File: 2_Tensile_Data/Hamel_ForceTest_Bolt10_Test5.csv
Time, Load (lb), Position (in), AxialStrain (in), TransverseStrain (in), Auxiliary (), Control Out (V), Stress (psi)
0.0, 1.41537, 0.0, NaN, NaN, NaN, 0.09094793, "- N/A -   "
0.01, 1.88716, 2.49908e-05, NaN, NaN, NaN, 0.09949338, "- N/A -   "
0.02, 2.35895, 5.27583e-05, NaN, NaN, NaN, 0.108039, "- N/A -   "
0.03, 2.94869, 7.774905E-5, NaN, NaN, NaN, 0.103156, "- N/A -   "
0.04, 3.53842, 0.000105517, NaN, NaN, NaN, 0.0982726, "- N/A -   "
0.05, 4.246109, 0.000133284, NaN, NaN, NaN, 0.09338949, "- N/A -   "
0.06, 4.59995, 1.610516E-4, NaN, NaN, NaN, 0.0897272, "- N/A -   "
0.07, 5.18969, 0.000183266, NaN, NaN, NaN, 0.0872856, "- N/A -   "
0.08, 5.66148, 0.000208256, NaN, NaN, NaN, 0.08362327, "- N/A -   "
0.09, 6.13327, 0.000233247, NaN, NaN, NaN, 0.0799609, "- N/A -   "
0.1, 6.723006, 2.582379E-4, NaN, NaN, NaN, 0.0762986, "- N/A -   "
0.11, 7.1948, 2.832287E-4, NaN, NaN, NaN, 0.07141549, "- N/A -   "
0.12, 7.666586, 0.000308219, NaN, NaN, NaN, 0.06775316, "- N/A -   "
0.13, 8.256323, 0.000335987, NaN, NaN, NaN, 0.0640908, "- N/A -   "
0.14, 8.846061, 0.000360978, NaN, NaN, NaN, 0.0592077, "- N/A -   "
0.15, 9.199903, 3.859685E-4, NaN, NaN, NaN, 0.05676616, "- N/A -   "
0.16, 9.671693, 4.081825E-4, NaN, NaN, NaN, 0.0543246, "- N/A -   "
0.17, 10.0255, 4.276198E-4, NaN, NaN, NaN, 0.05188305, "- N/A -   "
0.18, 10.4973, 0.000449834, NaN, NaN, NaN, 0.0494415, "- N/A -   "
0.19, 10.9691, 4.720478E-4, NaN, NaN, NaN, 0.0482207, "- N/A -   "
0.2, 11.323, 0.000491485, NaN, NaN, NaN, 0.04699994, "- N/A -   "
0.21, 11.7947, 0.000510922, NaN, NaN, NaN, 0.04577916, "- N/A -   "
0.22, 12.0306, 0.000527583, NaN, NaN, NaN, 0.0445584, "- N/A -   "
0.23, 12.3845, 5.442434E-4, NaN, NaN, NaN, 0.0445584, "- N/A -   "
0.24, 12.7383, 5.664574E-4, NaN, NaN, NaN, 0.0433376, "- N/A -   "
0.25, 13.2101, 5.858946E-4, NaN, NaN, NaN, 0.04089605, "- N/A -   "
0.26, 13.564, 6.053319E-4, NaN, NaN, NaN, 0.04089605, "- N/A -   "
0.27, 14.0357, 0.000624769, NaN, NaN, NaN, 0.0396753, "- N/A -   "
0.28, 14.3896, 6.442064E-4, NaN, NaN, NaN, 0.0372337, "- N/A -   "
0.29, 14.7434, 6.636437E-4, NaN, NaN, NaN, 0.03601294, "- N/A -   "
0.3, 15.2152, 6.858577E-4, NaN, NaN, NaN, 0.0335714, "- N/A -   "
0.31, 15.5691, 0.000705295, NaN, NaN, NaN, 0.0323506, "- N/A -   "
0.32, 15.9229, 7.219555E-4, NaN, NaN, NaN, 0.0323506, "- N/A -   "
0.33, 16.3947, 7.413927E-4, NaN, NaN, NaN, 0.03112983, "- N/A -   "
0.34, 16.6306, 7.6083E-4, NaN, NaN, NaN, 0.0299091, "- N/A -   "
0.35, 16.9844, 0.000780267, NaN, NaN, NaN, 0.0299091, "- N/A -   "
0.36, 17.3383, 0.000794151, NaN, NaN, NaN, 0.0299091, "- N/A -   "
0.37, 17.6921, 8.108115E-4, NaN, NaN, NaN, 0.0299091, "- N/A -   "
0.38, 17.928, 8.27472E-4, NaN, NaN, NaN, 0.03112983, "- N/A -   "
0.39, 18.3998, 8.413558E-4, NaN, NaN, NaN, 0.0323506, "- N/A -   "
0.4, 18.5178, 8.552396E-4, NaN, NaN, NaN, 0.0323506, "- N/A -   "
0.41, 18.8716, 0.0008719, NaN, NaN, NaN, 0.0323506, "- N/A -   "
0.42, 19.2254, 8.857838E-4, NaN, NaN, NaN, 0.0335714, "- N/A -   "
0.43, 19.3434, 0.000899668, NaN, NaN, NaN, 0.0347922, "- N/A -   "
0.44, 19.6972, 9.163281E-4, NaN, NaN, NaN, 0.0347922, "- N/A -   "
0.45, 20.05107, 9.329886E-4, NaN, NaN, NaN, 0.0347922, "- N/A -   "
0.46, 20.4049, 0.000949649, NaN, NaN, NaN, 0.0347922, "- N/A -   "
0.47, 20.7588, 9.663096E-4, NaN, NaN, NaN, 0.03601294, "- N/A -   "
0.48, 20.99465, 9.801934E-4, NaN, NaN, NaN, 0.03601294, "- N/A -   "
0.49, 21.2305, 9.940772E-4, NaN, NaN, NaN, 0.0372337, "- N/A -   "
0.5, 21.5844, 0.00100796, NaN, NaN, NaN, 0.0384545, "- N/A -   "
0.51, 21.7023, 0.00102184, NaN, NaN, NaN, 0.0396753, "- N/A -   "
0.52, 22.0562, 0.00103295, NaN, NaN, NaN, 0.04211683, "- N/A -   "
0.53, 22.29207, 0.00104961, NaN, NaN, NaN, 0.04211683, "- N/A -   "
0.54, 22.6459, 0.001063496, NaN, NaN, NaN, 0.0433376, "- N/A -   "
0.55, 22.9998, 0.00108016, NaN, NaN, NaN, 0.0433376, "- N/A -   "
0.56, 23.2357, 0.00109404, NaN, NaN, NaN, 0.0445584, "- N/A -   "
0.57, 23.5895, 0.00110792, NaN, NaN, NaN, 0.04577916, "- N/A -   "
0.58, 23.82539, 0.00112458, NaN, NaN, NaN, 0.04577916, "- N/A -   "
0.59, 24.1792, 0.001141245, NaN, NaN, NaN, 0.04699994, "- N/A -   "
0.6, 24.4151, 0.00115513, NaN, NaN, NaN, 0.04699994, "- N/A -   "
0.61, 24.769, 0.00117179, NaN, NaN, NaN, 0.04699994, "- N/A -   "
0.62, 25.0049, 0.001185673, NaN, NaN, NaN, 0.0482207, "- N/A -   "
0.63, 25.3587, 0.00120233, NaN, NaN, NaN, 0.0482207, "- N/A -   "
0.64, 25.7125, 0.00122177, NaN, NaN, NaN, 0.04699994, "- N/A -   "
0.65, 26.18434, 0.001241208, NaN, NaN, NaN, 0.04699994, "- N/A -   "
0.66, 26.5382, 0.00126065, NaN, NaN, NaN, 0.04577916, "- N/A -   "
0.67, 26.892, 0.00128008, NaN, NaN, NaN, 0.0445584, "- N/A -   "
0.68, 27.2459, 0.001296743, NaN, NaN, NaN, 0.0433376, "- N/A -   "
0.69, 27.7177, 0.00131618, NaN, NaN, NaN, 0.04211683, "- N/A -   "
0.7, 28.0715, 0.00133562, NaN, NaN, NaN, 0.04089605, "- N/A -   "
0.71, 28.42534, 0.00135505, NaN, NaN, NaN, 0.0396753, "- N/A -   "
0.72, 28.7792, 0.00137449, NaN, NaN, NaN, 0.0384545, "- N/A -   "
0.73, 29.251, 0.00139115, NaN, NaN, NaN, 0.0384545, "- N/A -   "
0.74, 29.6048, 0.00141059, NaN, NaN, NaN, 0.0372337, "- N/A -   "
0.75, 29.9587, 0.00142725, NaN, NaN, NaN, 0.0372337, "- N/A -   "
0.76, 30.3125, 0.00144669, NaN, NaN, NaN, 0.03601294, "- N/A -   "
0.77, 30.6663, 0.00146612, NaN, NaN, NaN, 0.03601294, "- N/A -   "
0.78, 30.9022, 0.00148279, NaN, NaN, NaN, 0.0347922, "- N/A -   "
0.79, 31.374, 0.001499446, NaN, NaN, NaN, 0.0347922, "- N/A -   "
0.8, 31.6099, 0.00151611, NaN, NaN, NaN, 0.0347922, "- N/A -   "
0.81, 31.8458, 0.001532767, NaN, NaN, NaN, 0.0347922, "- N/A -   "
0.82, 32.3176, 0.0015522, NaN, NaN, NaN, 0.0347922, "- N/A -   "
0.83, 32.5535, 0.00156609, NaN, NaN, NaN, 0.0347922, "- N/A -   "
0.84, 32.9073, 0.00158275, NaN, NaN, NaN, 0.0347922, "- N/A -   "
0.85, 33.2612, 0.001599409, NaN, NaN, NaN, 0.0347922, "- N/A -   "
0.86, 33.61503, 0.00161885, NaN, NaN, NaN, 0.0347922, "- N/A -   "
0.87, 33.9689, 0.00163551, NaN, NaN, NaN, 0.0335714, "- N/A -   "
0.88, 34.3227, 0.001654944, NaN, NaN, NaN, 0.0323506, "- N/A -   "
0.89, 34.6766, 0.0016716, NaN, NaN, NaN, 0.0323506, "- N/A -   "
0.9, 35.0304, 0.00169104, NaN, NaN, NaN, 0.03112983, "- N/A -   "
0.91, 35.3842, 0.0017077, NaN, NaN, NaN, 0.03112983, "- N/A -   "
0.92, 35.7381, 0.00172714, NaN, NaN, NaN, 0.0299091, "- N/A -   "
0.93, 36.0919, 0.0017438, NaN, NaN, NaN, 0.0299091, "- N/A -   "
0.94, 36.44577, 0.00176046, NaN, NaN, NaN, 0.03112983, "- N/A -   "
0.95, 36.6817, 0.00177434, NaN, NaN, NaN, 0.03112983, "- N/A -   "
0.96, 36.9176, 0.001791, NaN, NaN, NaN, 0.03112983, "- N/A -   "
0.97, 37.3893, 0.00181044, NaN, NaN, NaN, 0.03112983, "- N/A -   "
0.98, 37.74319, 0.0018271, NaN, NaN, NaN, 0.0299091, "- N/A -   "
0.99, 38.097, 0.00184376, NaN, NaN, NaN, 0.0299091, "- N/A -   "
1, 38.3329, 0.00186042, NaN, NaN, NaN, 0.0299091, "- N/A -   "
1.01, 38.68677, 0.00187708, NaN, NaN, NaN, 0.0299091, "- N/A -   "
1.02, 38.9227, 0.00189374, NaN, NaN, NaN, 0.0299091, "- N/A -   "
1.03, 39.2765, 0.00191041, NaN, NaN, NaN, 0.0299091, "- N/A -   "
1.04, 39.5124, 0.00192707, NaN, NaN, NaN, 0.0299091, "- N/A -   "
1.05, 39.98419, 0.00194373, NaN, NaN, NaN, 0.03112983, "- N/A -   "
1.06, 40.22009, 0.00195761, NaN, NaN, NaN, 0.03112983, "- N/A -   "
1.07, 40.57393, 0.00197427, NaN, NaN, NaN, 0.03112983, "- N/A -   "
1.08, 40.8098, 0.00198815, NaN, NaN, NaN, 0.0323506, "- N/A -   "
1.09, 41.16367, 0.002002038, NaN, NaN, NaN, 0.0335714, "- N/A -   "
1.1, 41.39956, 0.00201592, NaN, NaN, NaN, 0.03601294, "- N/A -   "
1.11, 41.6355, 0.00202981, NaN, NaN, NaN, 0.0372337, "- N/A -   "
1.12, 41.8714, 0.00204369, NaN, NaN, NaN, 0.0372337, "- N/A -   "
1.13, 42.2252, 0.002057573, NaN, NaN, NaN, 0.0396753, "- N/A -   "
1.14, 42.3431, 0.00207146, NaN, NaN, NaN, 0.0396753, "- N/A -   "
1.15, 42.697, 0.00208812, NaN, NaN, NaN, 0.0396753, "- N/A -   "
1.16, 43.0508, 0.002102001, NaN, NaN, NaN, 0.04089605, "- N/A -   "
1.17, 43.2867, 0.00211866, NaN, NaN, NaN, 0.04211683, "- N/A -   "
1.18, 43.5226, 0.00213255, NaN, NaN, NaN, 0.04211683, "- N/A -   "
1.19, 43.9944, 0.002149206, NaN, NaN, NaN, 0.0433376, "- N/A -   "
1.2, 44.2303, 0.00216309, NaN, NaN, NaN, 0.0433376, "- N/A -   "
1.21, 44.58414, 0.00217975, NaN, NaN, NaN, 0.0445584, "- N/A -   "
1.22, 44.93799, 0.00219641, NaN, NaN, NaN, 0.0445584, "- N/A -   "
1.23, 45.29183, 0.002213071, NaN, NaN, NaN, 0.0433376, "- N/A -   "
1.24, 45.5277, 0.00222973, NaN, NaN, NaN, 0.0433376, "- N/A -   "
1.25, 45.8816, 0.00224639, NaN, NaN, NaN, 0.0433376, "- N/A -   "
1.26, 46.23541, 0.00226305, NaN, NaN, NaN, 0.0433376, "- N/A -   "
1.27, 46.5893, 0.00227971, NaN, NaN, NaN, 0.0445584, "- N/A -   "
1.28, 46.8251, 0.002293597, NaN, NaN, NaN, 0.0445584, "- N/A -   "
1.29, 47.179, 0.00231026, NaN, NaN, NaN, 0.0445584, "- N/A -   "
1.3, 47.5328, 0.002326918, NaN, NaN, NaN, 0.0445584, "- N/A -   "
1.31, 47.7687, 0.00234358, NaN, NaN, NaN, 0.04577916, "- N/A -   "
1.32, 48.12257, 0.002360239, NaN, NaN, NaN, 0.04577916, "- N/A -   "
1.33, 48.3585, 0.00237412, NaN, NaN, NaN, 0.04699994, "- N/A -   "
1.34, 48.7123, 0.00239078, NaN, NaN, NaN, 0.04577916, "- N/A -   "
1.35, 49.0661, 0.002407444, NaN, NaN, NaN, 0.04577916, "- N/A -   "
1.36, 49.41999, 0.0024241, NaN, NaN, NaN, 0.04577916, "- N/A -   "
1.37, 49.7738, 0.00244354, NaN, NaN, NaN, 0.0445584, "- N/A -   "
1.38, 50.1277, 0.0024602, NaN, NaN, NaN, 0.0445584, "- N/A -   "
1.39, 50.4815, 0.00247964, NaN, NaN, NaN, 0.0433376, "- N/A -   "
1.4, 50.83536, 0.0024963, NaN, NaN, NaN, 0.0433376, "- N/A -   "
1.41, 51.1892, 0.00251574, NaN, NaN, NaN, 0.04211683, "- N/A -   "
1.42, 51.66099, 0.00253517, NaN, NaN, NaN, 0.04211683, "- N/A -   "
1.43, 52.01483, 0.00255461, NaN, NaN, NaN, 0.04089605, "- N/A -   "
1.44, 52.36868, 0.00257127, NaN, NaN, NaN, 0.0396753, "- N/A -   "
1.45, 52.72252, 0.00259071, NaN, NaN, NaN, 0.0384545, "- N/A -   "
1.46, 53.0764, 0.00261015, NaN, NaN, NaN, 0.0372337, "- N/A -   "
1.47, 53.4302, 0.00262958, NaN, NaN, NaN, 0.03601294, "- N/A -   "
1.48, 53.784, 0.002651798, NaN, NaN, NaN, 0.0347922, "- N/A -   "
1.49, 54.13789, 0.00266846, NaN, NaN, NaN, 0.0335714, "- N/A -   "
1.5, 54.6097, 0.00269067, NaN, NaN, NaN, 0.0323506, "- N/A -   "
1.51, 54.9635, 0.002707333, NaN, NaN, NaN, 0.03112983, "- N/A -   "
1.52, 55.3174, 0.00272399, NaN, NaN, NaN, 0.03112983, "- N/A -   "
1.53, 55.6712, 0.002743431, NaN, NaN, NaN, 0.0299091, "- N/A -   "
1.54, 56.143, 0.00276287, NaN, NaN, NaN, 0.0299091, "- N/A -   "
1.55, 56.37889, 0.00277953, NaN, NaN, NaN, 0.0286883, "- N/A -   "
1.56, 56.6148, 0.00279619, NaN, NaN, NaN, 0.0286883, "- N/A -   "
1.57, 56.9686, 0.00281285, NaN, NaN, NaN, 0.0286883, "- N/A -   "
1.58, 57.32247, 0.00282951, NaN, NaN, NaN, 0.0299091, "- N/A -   "
1.59, 57.6763, 0.00284617, NaN, NaN, NaN, 0.0299091, "- N/A -   "
1.6, 58.0302, 0.00286283, NaN, NaN, NaN, 0.0286883, "- N/A -   "
1.61, 58.26605, 0.00287949, NaN, NaN, NaN, 0.0299091, "- N/A -   "
1.62, 58.7378, 0.00289615, NaN, NaN, NaN, 0.0299091, "- N/A -   "
1.63, 58.8558, 0.002910036, NaN, NaN, NaN, 0.0299091, "- N/A -   "
1.64, 59.2096, 0.0029267, NaN, NaN, NaN, 0.03112983, "- N/A -   "
1.65, 59.4455, 0.00294058, NaN, NaN, NaN, 0.03112983, "- N/A -   "
1.66, 59.79937, 0.002954464, NaN, NaN, NaN, 0.0323506, "- N/A -   "
1.67, 60.15321, 0.00296835, NaN, NaN, NaN, 0.0335714, "- N/A -   "
1.68, 60.3891, 0.00298223, NaN, NaN, NaN, 0.0347922, "- N/A -   "
1.69, 60.625, 0.002998892, NaN, NaN, NaN, 0.03601294, "- N/A -   "
1.7, 60.97884, 0.003012776, NaN, NaN, NaN, 0.03601294, "- N/A -   "
1.71, 61.3327, 0.00302944, NaN, NaN, NaN, 0.0372337, "- N/A -   "
1.72, 61.6865, 0.00304332, NaN, NaN, NaN, 0.0372337, "- N/A -   "
1.73, 62.0404, 0.00306276, NaN, NaN, NaN, 0.03601294, "- N/A -   "
1.74, 62.2763, 0.00307942, NaN, NaN, NaN, 0.03601294, "- N/A -   "
1.75, 62.6301, 0.00309608, NaN, NaN, NaN, 0.03601294, "- N/A -   "
1.76, 62.98395, 0.003112739, NaN, NaN, NaN, 0.03601294, "- N/A -   "
1.77, 63.33779, 0.0031294, NaN, NaN, NaN, 0.03601294, "- N/A -   "
1.78, 63.5737, 0.003143283, NaN, NaN, NaN, 0.0372337, "- N/A -   "
1.79, 63.92753, 0.00315994, NaN, NaN, NaN, 0.0372337, "- N/A -   "
1.8, 64.16342, 0.0031766, NaN, NaN, NaN, 0.0384545, "- N/A -   "
1.81, 64.6352, 0.00319326, NaN, NaN, NaN, 0.0372337, "- N/A -   "
1.82, 64.87111, 0.003209925, NaN, NaN, NaN, 0.0372337, "- N/A -   "
1.83, 65.22495, 0.003223809, NaN, NaN, NaN, 0.0384545, "- N/A -   "
1.84, 65.3429, 0.00324047, NaN, NaN, NaN, 0.0396753, "- N/A -   "
1.85, 65.69674, 0.003254353, NaN, NaN, NaN, 0.0396753, "- N/A -   "
1.86, 66.05058, 0.003268237, NaN, NaN, NaN, 0.04089605, "- N/A -   "
1.87, 66.40443, 0.0032849, NaN, NaN, NaN, 0.04089605, "- N/A -   "
1.88, 66.64032, 0.003301558, NaN, NaN, NaN, 0.04211683, "- N/A -   "
1.89, 66.99416, 0.00331822, NaN, NaN, NaN, 0.04211683, "- N/A -   "
1.9, 67.34801, 0.0033321, NaN, NaN, NaN, 0.04211683, "- N/A -   "
1.91, 67.5839, 0.00334876, NaN, NaN, NaN, 0.04211683, "- N/A -   "
1.92, 67.9377, 0.00336542, NaN, NaN, NaN, 0.0433376, "- N/A -   "
1.93, 68.17364, 0.00338208, NaN, NaN, NaN, 0.04211683, "- N/A -   "
1.94, 68.52748, 0.00339874, NaN, NaN, NaN, 0.04211683, "- N/A -   "
1.95, 68.8813, 0.0034154, NaN, NaN, NaN, 0.04211683, "- N/A -   "
1.96, 69.23517, 0.00342929, NaN, NaN, NaN, 0.0433376, "- N/A -   "
1.97, 69.589, 0.00344595, NaN, NaN, NaN, 0.0433376, "- N/A -   "
1.98, 69.707, 0.00345983, NaN, NaN, NaN, 0.0445584, "- N/A -   "
1.99, 70.0608, 0.00347649, NaN, NaN, NaN, 0.0445584, "- N/A -   "
2, 70.5326, 0.00349593, NaN, NaN, NaN, 0.0445584, "- N/A -   "
2.01, 70.7685, 0.00351259, NaN, NaN, NaN, 0.0433376, "- N/A -   "
2.02, 71.24027, 0.00352925, NaN, NaN, NaN, 0.0433376, "- N/A -   "
2.03, 71.59412, 0.00354869, NaN, NaN, NaN, 0.04211683, "- N/A -   "
2.04, 72.06591, 0.00356813, NaN, NaN, NaN, 0.04089605, "- N/A -   "
2.05, 72.41975, 0.00358756, NaN, NaN, NaN, 0.0396753, "- N/A -   "
2.06, 72.77359, 0.003607, NaN, NaN, NaN, 0.0384545, "- N/A -   "
2.07, 73.12743, 0.00362644, NaN, NaN, NaN, 0.0372337, "- N/A -   "
2.08, 73.59922, 0.00364865, NaN, NaN, NaN, 0.03601294, "- N/A -   "
2.09, 73.9531, 0.00366809, NaN, NaN, NaN, 0.0335714, "- N/A -   "
2.1, 74.42485, 0.00368753, NaN, NaN, NaN, 0.0335714, "- N/A -   "
2.11, 74.7787, 0.003704187, NaN, NaN, NaN, 0.0323506, "- N/A -   "
2.12, 75.13254, 0.00372362, NaN, NaN, NaN, 0.03112983, "- N/A -   "
2.13, 75.6043, 0.00374306, NaN, NaN, NaN, 0.0299091, "- N/A -   "
2.14, 75.95817, 0.003759722, NaN, NaN, NaN, 0.0299091, "- N/A -   "
2.15, 76.19407, 0.00377916, NaN, NaN, NaN, 0.0286883, "- N/A -   "
2.16, 76.6659, 0.00379582, NaN, NaN, NaN, 0.0286883, "- N/A -   "
2.17, 76.90175, 0.003815257, NaN, NaN, NaN, 0.0286883, "- N/A -   "
2.18, 77.25559, 0.003829141, NaN, NaN, NaN, 0.0286883, "- N/A -   "
2.19, 77.6094, 0.0038458, NaN, NaN, NaN, 0.0299091, "- N/A -   "
2.2, 77.84533, 0.003859685, NaN, NaN, NaN, 0.0299091, "- N/A -   "
2.21, 78.19917, 0.003873569, NaN, NaN, NaN, 0.03112983, "- N/A -   "
2.22, 78.4351, 0.00389023, NaN, NaN, NaN, 0.03112983, "- N/A -   "
2.23, 78.67096, 0.003904113, NaN, NaN, NaN, 0.0323506, "- N/A -   "
2.24, 79.0248, 0.003917997, NaN, NaN, NaN, 0.0335714, "- N/A -   "
2.25, 79.2607, 0.00393188, NaN, NaN, NaN, 0.0347922, "- N/A -   "
2.26, 79.61454, 0.003948541, NaN, NaN, NaN, 0.0347922, "- N/A -   "
2.27, 79.85043, 0.003965202, NaN, NaN, NaN, 0.0347922, "- N/A -   "
2.28, 80.0863, 0.003981862, NaN, NaN, NaN, 0.03601294, "- N/A -   "
2.29, 80.55813, 0.00399852, NaN, NaN, NaN, 0.03601294, "- N/A -   "
2.3, 80.912, 0.004015183, NaN, NaN, NaN, 0.0347922, "- N/A -   "
2.31, 81.26581, 0.00403184, NaN, NaN, NaN, 0.0347922, "- N/A -   "
2.32, 81.7376, 0.004051281, NaN, NaN, NaN, 0.0347922, "- N/A -   "
2.33, 81.97349, 0.00406794, NaN, NaN, NaN, 0.0335714, "- N/A -   "
2.34, 82.32734, 0.004084602, NaN, NaN, NaN, 0.0335714, "- N/A -   "
2.35, 82.68118, 0.004104039, NaN, NaN, NaN, 0.0335714, "- N/A -   "
2.36, 83.03502, 0.0041207, NaN, NaN, NaN, 0.0335714, "- N/A -   "
2.37, 83.50681, 0.00413736, NaN, NaN, NaN, 0.0323506, "- N/A -   "
2.38, 83.74271, 0.004154021, NaN, NaN, NaN, 0.0323506, "- N/A -   "
2.39, 84.09654, 0.004173458, NaN, NaN, NaN, 0.0323506, "- N/A -   "
2.4, 84.33244, 0.004187342, NaN, NaN, NaN, 0.0323506, "- N/A -   "
2.41, 84.68629, 0.004204002, NaN, NaN, NaN, 0.0323506, "- N/A -   "
2.42, 85.04012, 0.00422066, NaN, NaN, NaN, 0.0323506, "- N/A -   "
2.43, 85.39397, 0.004237323, NaN, NaN, NaN, 0.0323506, "- N/A -   "
2.44, 85.74781, 0.004251207, NaN, NaN, NaN, 0.0335714, "- N/A -   "
2.45, 85.9837, 0.00426787, NaN, NaN, NaN, 0.0335714, "- N/A -   "
2.46, 86.33755, 0.004284528, NaN, NaN, NaN, 0.0347922, "- N/A -   "
2.47, 86.57345, 0.004298412, NaN, NaN, NaN, 0.0347922, "- N/A -   "
2.48, 86.92729, 0.00430952, NaN, NaN, NaN, 0.0372337, "- N/A -   "
2.49, 87.16318, 0.004326179, NaN, NaN, NaN, 0.0372337, "- N/A -   "
2.5, 87.39908, 0.00434006, NaN, NaN, NaN, 0.0384545, "- N/A -   "
2.51, 87.63497, 0.004353947, NaN, NaN, NaN, 0.0396753, "- N/A -   "
2.52, 88.10676, 0.00437061, NaN, NaN, NaN, 0.0396753, "- N/A -   "
2.53, 88.34265, 0.004387268, NaN, NaN, NaN, 0.0396753, "- N/A -   "
2.54, 88.6965, 0.00440115, NaN, NaN, NaN, 0.04089605, "- N/A -   "
2.55, 88.9324, 0.00441781, NaN, NaN, NaN, 0.04089605, "- N/A -   "
2.56, 89.16828, 0.004434473, NaN, NaN, NaN, 0.04211683, "- N/A -   "
2.57, 89.6401, 0.00444836, NaN, NaN, NaN, 0.04211683, "- N/A -   "
2.58, 89.87598, 0.004465017, NaN, NaN, NaN, 0.04211683, "- N/A -   "
2.59, 90.34776, 0.00448168, NaN, NaN, NaN, 0.04211683, "- N/A -   "
2.6, 90.70161, 0.004498338, NaN, NaN, NaN, 0.04211683, "- N/A -   "
2.61, 91.05545, 0.004515, NaN, NaN, NaN, 0.04211683, "- N/A -   "
2.62, 91.2913, 0.004534436, NaN, NaN, NaN, 0.04089605, "- N/A -   "
2.63, 91.64519, 0.0045511, NaN, NaN, NaN, 0.04211683, "- N/A -   "
2.64, 91.99903, 0.004567757, NaN, NaN, NaN, 0.04089605, "- N/A -   "
2.65, 92.23492, 0.004584417, NaN, NaN, NaN, 0.04089605, "- N/A -   "
2.66, 92.70671, 0.004601078, NaN, NaN, NaN, 0.04089605, "- N/A -   "
2.67, 93.0606, 0.00461774, NaN, NaN, NaN, 0.04211683, "- N/A -   "
2.68, 93.2965, 0.004634399, NaN, NaN, NaN, 0.04089605, "- N/A -   "
2.69, 93.65029, 0.00465106, NaN, NaN, NaN, 0.04089605, "- N/A -   "
2.7, 94.0041, 0.0046705, NaN, NaN, NaN, 0.04089605, "- N/A -   "
2.71, 94.47592, 0.004687157, NaN, NaN, NaN, 0.0396753, "- N/A -   "
2.72, 94.8298, 0.00470659, NaN, NaN, NaN, 0.0384545, "- N/A -   "
2.73, 95.18361, 0.004723255, NaN, NaN, NaN, 0.0384545, "- N/A -   "
2.74, 95.6554, 0.004742692, NaN, NaN, NaN, 0.0372337, "- N/A -   "
2.75, 95.8913, 0.00476213, NaN, NaN, NaN, 0.0372337, "- N/A -   "
2.76, 96.24514, 0.00477601, NaN, NaN, NaN, 0.0372337, "- N/A -   "
2.77, 96.481, 0.00479267, NaN, NaN, NaN, 0.0372337, "- N/A -   "
2.78, 96.83487, 0.004812111, NaN, NaN, NaN, 0.0372337, "- N/A -   "
2.79, 97.18872, 0.004828771, NaN, NaN, NaN, 0.03601294, "- N/A -   "
2.8, 97.54256, 0.00484266, NaN, NaN, NaN, 0.0372337, "- N/A -   "
2.81, 97.8964, 0.004859315, NaN, NaN, NaN, 0.0372337, "- N/A -   "
2.82, 98.13229, 0.00487598, NaN, NaN, NaN, 0.0372337, "- N/A -   "
2.83, 98.4861, 0.004892637, NaN, NaN, NaN, 0.0372337, "- N/A -   "
2.84, 98.83998, 0.004909297, NaN, NaN, NaN, 0.0372337, "- N/A -   "
2.85, 99.0759, 0.00492596, NaN, NaN, NaN, 0.0372337, "- N/A -   "
2.86, 99.42972, 0.004942619, NaN, NaN, NaN, 0.0372337, "- N/A -   "
2.87, 99.7836, 0.00496206, NaN, NaN, NaN, 0.0372337, "- N/A -   "
2.88, 100.019, 0.00497872, NaN, NaN, NaN, 0.03601294, "- N/A -   "
2.89, 100.6092, 0.004995377, NaN, NaN, NaN, 0.03601294, "- N/A -   "
2.9, 100.727, 0.005012037, NaN, NaN, NaN, 0.03601294, "- N/A -   "
2.91, 101.199, 0.005028697, NaN, NaN, NaN, 0.03601294, "- N/A -   "
2.92, 101.435, 0.00504814, NaN, NaN, NaN, 0.0347922, "- N/A -   "
2.93, 101.907, 0.00506757, NaN, NaN, NaN, 0.0347922, "- N/A -   "
2.94, 102.26, 0.005087009, NaN, NaN, NaN, 0.0335714, "- N/A -   "
2.95, 102.6143, 0.00510367, NaN, NaN, NaN, 0.0323506, "- N/A -   "
2.96, 102.968, 0.005123107, NaN, NaN, NaN, 0.0323506, "- N/A -   "
2.97, 103.322, 0.00513977, NaN, NaN, NaN, 0.03112983, "- N/A -   "
2.98, 103.676, 0.00515921, NaN, NaN, NaN, 0.03112983, "- N/A -   "
2.99, 103.912, 0.005173089, NaN, NaN, NaN, 0.03112983, "- N/A -   "
3, 104.266, 0.00518975, NaN, NaN, NaN, 0.03112983, "- N/A -   "
3.01, 104.619, 0.005203633, NaN, NaN, NaN, 0.0323506, "- N/A -   "
3.02, 104.855, 0.00522029, NaN, NaN, NaN, 0.0335714, "- N/A -   "
3.03, 105.091, 0.00523695, NaN, NaN, NaN, 0.0323506, "- N/A -   "
3.04, 105.563, 0.005256391, NaN, NaN, NaN, 0.0323506, "- N/A -   "
3.05, 105.917, 0.00527028, NaN, NaN, NaN, 0.0323506, "- N/A -   "
3.06, 106.035, 0.00528694, NaN, NaN, NaN, 0.0323506, "- N/A -   "
3.07, 106.389, 0.0053036, NaN, NaN, NaN, 0.0323506, "- N/A -   "
3.08, 106.742, 0.005320257, NaN, NaN, NaN, 0.0323506, "- N/A -   "
3.09, 107.0963, 0.00533692, NaN, NaN, NaN, 0.0323506, "- N/A -   "
3.1, 107.45, 0.00535358, NaN, NaN, NaN, 0.0323506, "- N/A -   "
3.11, 107.804, 0.005370238, NaN, NaN, NaN, 0.0323506, "- N/A -   "
3.12, 108.04, 0.005386899, NaN, NaN, NaN, 0.0323506, "- N/A -   "
3.13, 108.276, 0.005403559, NaN, NaN, NaN, 0.0335714, "- N/A -   "
3.14, 108.512, 0.00541744, NaN, NaN, NaN, 0.0335714, "- N/A -   "
3.15, 108.866, 0.0054341, NaN, NaN, NaN, 0.0335714, "- N/A -   "
3.16, 109.219, 0.00545076, NaN, NaN, NaN, 0.0335714, "- N/A -   "
3.17, 109.5732, 0.0054702, NaN, NaN, NaN, 0.0335714, "- N/A -   "
3.18, 109.927, 0.005486862, NaN, NaN, NaN, 0.0335714, "- N/A -   "
3.19, 110.163, 0.00550352, NaN, NaN, NaN, 0.0323506, "- N/A -   "
3.2, 110.399, 0.005517406, NaN, NaN, NaN, 0.0335714, "- N/A -   "
3.21, 110.753, 0.00553129, NaN, NaN, NaN, 0.0347922, "- N/A -   "
3.22, 110.989, 0.00554795, NaN, NaN, NaN, 0.0347922, "- N/A -   "
3.23, 111.224, 0.00556183, NaN, NaN, NaN, 0.0372337, "- N/A -   "
3.24, 111.578, 0.00557572, NaN, NaN, NaN, 0.0372337, "- N/A -   "
3.25, 111.932, 0.005592378, NaN, NaN, NaN, 0.0372337, "- N/A -   "
3.26, 112.168, 0.005609039, NaN, NaN, NaN, 0.0372337, "- N/A -   "
3.27, 112.522, 0.0056257, NaN, NaN, NaN, 0.0384545, "- N/A -   "
3.28, 112.758, 0.00564236, NaN, NaN, NaN, 0.0384545, "- N/A -   "
3.29, 113.112, 0.00565902, NaN, NaN, NaN, 0.0372337, "- N/A -   "
3.3, 113.465, 0.00567568, NaN, NaN, NaN, 0.0372337, "- N/A -   "
3.31, 113.819, 0.00569234, NaN, NaN, NaN, 0.0372337, "- N/A -   "
3.32, 114.055, 0.00570623, NaN, NaN, NaN, 0.0384545, "- N/A -   "
3.33, 114.409, 0.00572289, NaN, NaN, NaN, 0.0396753, "- N/A -   "
3.34, 114.645, 0.00573677, NaN, NaN, NaN, 0.0396753, "- N/A -   "
3.35, 114.881, 0.00575065, NaN, NaN, NaN, 0.04089605, "- N/A -   "
3.36, 115.117, 0.00576454, NaN, NaN, NaN, 0.04211683, "- N/A -   "
3.37, 115.353, 0.00577842, NaN, NaN, NaN, 0.0433376, "- N/A -   "
3.38, 115.589, 0.005792304, NaN, NaN, NaN, 0.0445584, "- N/A -   "
3.39, 115.942, 0.00580897, NaN, NaN, NaN, 0.0445584, "- N/A -   "
3.4, 116.296, 0.005828402, NaN, NaN, NaN, 0.0445584, "- N/A -   "
3.41, 116.768, 0.005845062, NaN, NaN, NaN, 0.0433376, "- N/A -   "
3.42, 117.122, 0.00586172, NaN, NaN, NaN, 0.0433376, "- N/A -   "
3.43, 117.476, 0.00587838, NaN, NaN, NaN, 0.0433376, "- N/A -   "
3.44, 117.712, 0.00589782, NaN, NaN, NaN, 0.04211683, "- N/A -   "
3.45, 118.183, 0.005914482, NaN, NaN, NaN, 0.04211683, "- N/A -   "
3.46, 118.419, 0.0059367, NaN, NaN, NaN, 0.04089605, "- N/A -   "
3.47, 119.009, 0.00595613, NaN, NaN, NaN, 0.0396753, "- N/A -   "
3.48, 119.245, 0.005972794, NaN, NaN, NaN, 0.0384545, "- N/A -   "
3.49, 119.717, 0.00599223, NaN, NaN, NaN, 0.0372337, "- N/A -   "
3.5, 119.835, 0.00600889, NaN, NaN, NaN, 0.0372337, "- N/A -   "
3.51, 120.306, 0.00603111, NaN, NaN, NaN, 0.03601294, "- N/A -   "
3.52, 120.66, 0.00604777, NaN, NaN, NaN, 0.0347922, "- N/A -   "
3.53, 121.014, 0.0060672, NaN, NaN, NaN, 0.03601294, "- N/A -   "
3.54, 121.368, 0.006083864, NaN, NaN, NaN, 0.0347922, "- N/A -   "
3.55, 121.722, 0.0061033, NaN, NaN, NaN, 0.0335714, "- N/A -   "
3.56, 122.076, 0.00612274, NaN, NaN, NaN, 0.0335714, "- N/A -   "
3.57, 122.429, 0.006139398, NaN, NaN, NaN, 0.0335714, "- N/A -   "
3.58, 122.783, 0.00615606, NaN, NaN, NaN, 0.0323506, "- N/A -   "
3.59, 123.019, 0.00617272, NaN, NaN, NaN, 0.0323506, "- N/A -   "
3.6, 123.373, 0.0061866, NaN, NaN, NaN, 0.0335714, "- N/A -   "
3.61, 123.491, 0.006203264, NaN, NaN, NaN, 0.0335714, "- N/A -   "
3.62, 123.963, 0.006219924, NaN, NaN, NaN, 0.0335714, "- N/A -   "
3.63, 124.199, 0.00623658, NaN, NaN, NaN, 0.0347922, "- N/A -   "
3.64, 124.553, 0.006250468, NaN, NaN, NaN, 0.0347922, "- N/A -   "
3.65, 124.788, 0.00626713, NaN, NaN, NaN, 0.0347922, "- N/A -   "
3.66, 125.142, 0.006281012, NaN, NaN, NaN, 0.03601294, "- N/A -   "
3.67, 125.378, 0.00629767, NaN, NaN, NaN, 0.03601294, "- N/A -   "
3.68, 125.732, 0.006314334, NaN, NaN, NaN, 0.03601294, "- N/A -   "
3.69, 126.204, 0.006330994, NaN, NaN, NaN, 0.03601294, "- N/A -   "
3.7, 126.44, 0.00635043, NaN, NaN, NaN, 0.0347922, "- N/A -   "
3.71, 126.794, 0.00636987, NaN, NaN, NaN, 0.0335714, "- N/A -   "
3.72, 127.265, 0.006389306, NaN, NaN, NaN, 0.0335714, "- N/A -   "
3.73, 127.501, 0.00640597, NaN, NaN, NaN, 0.0323506, "- N/A -   "
3.74, 127.855, 0.006425404, NaN, NaN, NaN, 0.0323506, "- N/A -   "
3.75, 128.209, 0.00644206, NaN, NaN, NaN, 0.03112983, "- N/A -   "
3.76, 128.563, 0.00645872, NaN, NaN, NaN, 0.03112983, "- N/A -   "
3.77, 128.799, 0.00647539, NaN, NaN, NaN, 0.03112983, "- N/A -   "
3.78, 129.035, 0.006492046, NaN, NaN, NaN, 0.03112983, "- N/A -   "
3.79, 129.506, 0.006508706, NaN, NaN, NaN, 0.03112983, "- N/A -   "
3.8, 129.624, 0.00652259, NaN, NaN, NaN, 0.0323506, "- N/A -   "
3.81, 129.86, 0.00653925, NaN, NaN, NaN, 0.0335714, "- N/A -   "
3.82, 130.332, 0.00655591, NaN, NaN, NaN, 0.0335714, "- N/A -   "
3.83, 130.6858, 0.006572572, NaN, NaN, NaN, 0.0335714, "- N/A -   "
3.84, 131.04, 0.006589232, NaN, NaN, NaN, 0.0335714, "- N/A -   "
3.85, 131.276, 0.006603116, NaN, NaN, NaN, 0.0335714, "- N/A -   "
3.86, 131.511, 0.006619776, NaN, NaN, NaN, 0.0347922, "- N/A -   "
3.87, 131.747, 0.00663366, NaN, NaN, NaN, 0.0347922, "- N/A -   "
3.88, 132.101, 0.006647544, NaN, NaN, NaN, 0.03601294, "- N/A -   "
3.89, 132.337, 0.0066642, NaN, NaN, NaN, 0.0372337, "- N/A -   "
3.9, 132.573, 0.006678088, NaN, NaN, NaN, 0.0384545, "- N/A -   "
3.91, 132.809, 0.00669197, NaN, NaN, NaN, 0.0396753, "- N/A -   "
3.92, 133.045, 0.006705856, NaN, NaN, NaN, 0.0396753, "- N/A -   "
3.93, 133.281, 0.00671974, NaN, NaN, NaN, 0.04089605, "- N/A -   "
3.94, 133.517, 0.006733624, NaN, NaN, NaN, 0.04211683, "- N/A -   "
3.95, 133.87, 0.006750284, NaN, NaN, NaN, 0.04211683, "- N/A -   "
3.96, 134.106, 0.006764168, NaN, NaN, NaN, 0.0433376, "- N/A -   "
3.97, 134.342, 0.006778052, NaN, NaN, NaN, 0.0445584, "- N/A -   "
3.98, 134.696, 0.006794712, NaN, NaN, NaN, 0.0445584, "- N/A -   "
3.99, 135.05, 0.006808596, NaN, NaN, NaN, 0.04577916, "- N/A -   "
4, 135.286, 0.006825256, NaN, NaN, NaN, 0.04699994, "- N/A -   "
4.01, 135.64, 0.00683914, NaN, NaN, NaN, 0.0482207, "- N/A -   "
4.02, 135.875, 0.0068558, NaN, NaN, NaN, 0.04699994, "- N/A -   "
4.03, 136.229, 0.00687246, NaN, NaN, NaN, 0.04699994, "- N/A -   "
4.04, 136.465, 0.006889122, NaN, NaN, NaN, 0.04699994, "- N/A -   "
4.05, 136.937, 0.00690856, NaN, NaN, NaN, 0.04577916, "- N/A -   "
4.06, 137.291, 0.006928, NaN, NaN, NaN, 0.0445584, "- N/A -   "
4.07, 137.6447, 0.00694743, NaN, NaN, NaN, 0.0433376, "- N/A -   "
4.08, 137.999, 0.00696687, NaN, NaN, NaN, 0.0433376, "- N/A -   "
4.09, 138.352, 0.006986308, NaN, NaN, NaN, 0.04211683, "- N/A -   "
4.1, 138.588, 0.00700574, NaN, NaN, NaN, 0.04089605, "- N/A -   "
4.11, 139.06, 0.007022406, NaN, NaN, NaN, 0.0396753, "- N/A -   "
4.12, 139.414, 0.00704184, NaN, NaN, NaN, 0.0384545, "- N/A -   "
4.13, 139.768, 0.0070585, NaN, NaN, NaN, 0.0384545, "- N/A -   "
4.14, 140.1216, 0.00707794, NaN, NaN, NaN, 0.0372337, "- N/A -   "
4.15, 140.475, 0.0070946, NaN, NaN, NaN, 0.0372337, "- N/A -   "
4.16, 140.829, 0.007111262, NaN, NaN, NaN, 0.0372337, "- N/A -   "
4.17, 141.065, 0.00712792, NaN, NaN, NaN, 0.0372337, "- N/A -   "
4.18, 141.419, 0.00714736, NaN, NaN, NaN, 0.0372337, "- N/A -   "
4.19, 141.773, 0.00716402, NaN, NaN, NaN, 0.03601294, "- N/A -   "
4.2, 142.1267, 0.00718068, NaN, NaN, NaN, 0.03601294, "- N/A -   "
4.21, 142.3626, 0.007200118, NaN, NaN, NaN, 0.03601294, "- N/A -   "
4.22, 142.716, 0.00721678, NaN, NaN, NaN, 0.0347922, "- N/A -   "
4.23, 142.952, 0.00723344, NaN, NaN, NaN, 0.0347922, "- N/A -   "
4.24, 143.306, 0.00724732, NaN, NaN, NaN, 0.03601294, "- N/A -   "
4.25, 143.66, 0.00726398, NaN, NaN, NaN, 0.03601294, "- N/A -   "
4.26, 144.014, 0.007280643, NaN, NaN, NaN, 0.03601294, "- N/A -   "
4.27, 144.25, 0.0072973, NaN, NaN, NaN, 0.03601294, "- N/A -   "
4.28, 144.604, 0.00731674, NaN, NaN, NaN, 0.0347922, "- N/A -   "
4.29, 145.0754, 0.007336179, NaN, NaN, NaN, 0.0335714, "- N/A -   "
4.3, 145.429, 0.00735562, NaN, NaN, NaN, 0.0323506, "- N/A -   "
4.31, 145.665, 0.00737505, NaN, NaN, NaN, 0.03112983, "- N/A -   "
4.32, 146.019, 0.00739449, NaN, NaN, NaN, 0.03112983, "- N/A -   "
4.33, 146.3728, 0.00741115, NaN, NaN, NaN, 0.0299091, "- N/A -   "
4.34, 146.727, 0.007427811, NaN, NaN, NaN, 0.0299091, "- N/A -   "
4.35, 147.0805, 0.00744447, NaN, NaN, NaN, 0.0299091, "- N/A -   "
4.36, 147.434, 0.00746113, NaN, NaN, NaN, 0.0299091, "- N/A -   "
4.37, 147.67, 0.007480569, NaN, NaN, NaN, 0.0299091, "- N/A -   "
4.38, 147.906, 0.00749723, NaN, NaN, NaN, 0.0299091, "- N/A -   "
4.39, 148.26, 0.00751389, NaN, NaN, NaN, 0.0299091, "- N/A -   "
4.4, 148.6138, 0.007530551, NaN, NaN, NaN, 0.0286883, "- N/A -   "
4.41, 148.8497, 0.00754443, NaN, NaN, NaN, 0.0299091, "- N/A -   "
4.42, 149.0856, 0.007561095, NaN, NaN, NaN, 0.0299091, "- N/A -   "
4.43, 149.439, 0.00757776, NaN, NaN, NaN, 0.0299091, "- N/A -   "
4.44, 149.793, 0.007594417, NaN, NaN, NaN, 0.0299091, "- N/A -   "
4.45, 150.029, 0.0076083, NaN, NaN, NaN, 0.03112983, "- N/A -   "
4.46, 150.501, 0.007624961, NaN, NaN, NaN, 0.03112983, "- N/A -   "
4.47, 150.619, 0.007641621, NaN, NaN, NaN, 0.03112983, "- N/A -   "
4.48, 150.973, 0.00765828, NaN, NaN, NaN, 0.03112983, "- N/A -   "
4.49, 151.327, 0.007672165, NaN, NaN, NaN, 0.0323506, "- N/A -   "
4.5, 151.445, 0.00768883, NaN, NaN, NaN, 0.0335714, "- N/A -   "
4.51, 151.798, 0.007702709, NaN, NaN, NaN, 0.0335714, "- N/A -   "
4.52, 152.034, 0.00771937, NaN, NaN, NaN, 0.0335714, "- N/A -   "
4.53, 152.388, 0.00773325, NaN, NaN, NaN, 0.0347922, "- N/A -   "
4.54, 152.624, 0.00774714, NaN, NaN, NaN, 0.03601294, "- N/A -   "
4.55, 152.742, 0.007761021, NaN, NaN, NaN, 0.0372337, "- N/A -   "
4.56, 153.096, 0.00777491, NaN, NaN, NaN, 0.0384545, "- N/A -   "
4.57, 153.332, 0.007788789, NaN, NaN, NaN, 0.0396753, "- N/A -   "
4.58, 153.568, 0.00780267, NaN, NaN, NaN, 0.04089605, "- N/A -   "
4.59, 153.921, 0.007816557, NaN, NaN, NaN, 0.04211683, "- N/A -   "
4.6, 154.157, 0.007830441, NaN, NaN, NaN, 0.0433376, "- N/A -   "
4.61, 154.393, 0.0078471, NaN, NaN, NaN, 0.0433376, "- N/A -   "
4.62, 154.629, 0.007860985, NaN, NaN, NaN, 0.0445584, "- N/A -   "
4.63, 154.865, 0.007874869, NaN, NaN, NaN, 0.04577916, "- N/A -   "
4.64, 155.219, 0.00789431, NaN, NaN, NaN, 0.04577916, "- N/A -   "
4.65, 155.573, 0.007910967, NaN, NaN, NaN, 0.0445584, "- N/A -   "
4.66, 155.927, 0.007927627, NaN, NaN, NaN, 0.04577916, "- N/A -   "
4.67, 156.2804, 0.007947063, NaN, NaN, NaN, 0.0445584, "- N/A -   "
4.68, 156.634, 0.007963724, NaN, NaN, NaN, 0.0445584, "- N/A -   "
4.69, 156.988, 0.007980385, NaN, NaN, NaN, 0.0433376, "- N/A -   "
4.7, 157.342, 0.00799982, NaN, NaN, NaN, 0.0433376, "- N/A -   "
4.71, 157.696, 0.008016483, NaN, NaN, NaN, 0.04211683, "- N/A -   "
4.72, 158.0496, 0.008033143, NaN, NaN, NaN, 0.04211683, "- N/A -   "
4.73, 158.403, 0.008052581, NaN, NaN, NaN, 0.04211683, "- N/A -   "
4.74, 158.7573, 0.008069241, NaN, NaN, NaN, 0.04211683, "- N/A -   "
4.75, 158.875, 0.008085901, NaN, NaN, NaN, 0.04089605, "- N/A -   "
4.76, 159.111, 0.008099785, NaN, NaN, NaN, 0.04211683, "- N/A -   "
4.77, 159.465, 0.00811645, NaN, NaN, NaN, 0.04211683, "- N/A -   "
4.78, 159.819, 0.008133107, NaN, NaN, NaN, 0.04211683, "- N/A -   "
4.79, 160.173, 0.008149767, NaN, NaN, NaN, 0.04211683, "- N/A -   "
4.8, 160.5265, 0.008169204, NaN, NaN, NaN, 0.04089605, "- N/A -   "
4.81, 160.88, 0.008185865, NaN, NaN, NaN, 0.04089605, "- N/A -   "
4.82, 161.234, 0.008202525, NaN, NaN, NaN, 0.04089605, "- N/A -   "
4.83, 161.588, 0.008224739, NaN, NaN, NaN, 0.0396753, "- N/A -   "
4.84, 162.06, 0.008244176, NaN, NaN, NaN, 0.0372337, "- N/A -   "
4.85, 162.296, 0.008263613, NaN, NaN, NaN, 0.03601294, "- N/A -   "
4.86, 162.65, 0.008285827, NaN, NaN, NaN, 0.0347922, "- N/A -   "
4.87, 163.121, 0.008302487, NaN, NaN, NaN, 0.0347922, "- N/A -   "
4.88, 163.475, 0.008321925, NaN, NaN, NaN, 0.0323506, "- N/A -   "
4.89, 163.829, 0.008341363, NaN, NaN, NaN, 0.03112983, "- N/A -   "
4.9, 164.301, 0.008360799, NaN, NaN, NaN, 0.0299091, "- N/A -   "
4.91, 164.537, 0.008377461, NaN, NaN, NaN, 0.0299091, "- N/A -   "
4.92, 164.891, 0.008394121, NaN, NaN, NaN, 0.0299091, "- N/A -   "
4.93, 165.126, 0.008410782, NaN, NaN, NaN, 0.0299091, "- N/A -   "
4.94, 165.4803, 0.008427442, NaN, NaN, NaN, 0.0299091, "- N/A -   "
4.95, 165.7162, 0.008444103, NaN, NaN, NaN, 0.03112983, "- N/A -   "
4.96, 166.188, 0.008457986, NaN, NaN, NaN, 0.03112983, "- N/A -   "
4.97, 166.424, 0.008474647, NaN, NaN, NaN, 0.03112983, "- N/A -   "
4.98, 166.778, 0.00849131, NaN, NaN, NaN, 0.03112983, "- N/A -   "
4.99, 167.014, 0.008507968, NaN, NaN, NaN, 0.03112983, "- N/A -   "
5, 167.25, 0.008524627, NaN, NaN, NaN, 0.03112983, "- N/A -   "
5.01, 167.603, 0.008541289, NaN, NaN, NaN, 0.03112983, "- N/A -   "
5.02, 167.9572, 0.008557949, NaN, NaN, NaN, 0.03112983, "- N/A -   "
5.03, 168.193, 0.00857461, NaN, NaN, NaN, 0.0323506, "- N/A -   "
5.04, 168.665, 0.008588494, NaN, NaN, NaN, 0.0323506, "- N/A -   "
5.05, 168.901, 0.008607931, NaN, NaN, NaN, 0.0323506, "- N/A -   "
5.06, 169.019, 0.008624592, NaN, NaN, NaN, 0.0323506, "- N/A -   "
5.07, 169.373, 0.008638475, NaN, NaN, NaN, 0.0335714, "- N/A -   "
5.08, 169.726, 0.008652359, NaN, NaN, NaN, 0.0335714, "- N/A -   "
5.09, 170.08, 0.00866902, NaN, NaN, NaN, 0.0335714, "- N/A -   "
5.1, 170.4341, 0.00868568, NaN, NaN, NaN, 0.0335714, "- N/A -   "
5.11, 170.552, 0.008699563, NaN, NaN, NaN, 0.0347922, "- N/A -   "
5.12, 170.906, 0.008716224, NaN, NaN, NaN, 0.0347922, "- N/A -   "
5.13, 171.142, 0.008732885, NaN, NaN, NaN, 0.0347922, "- N/A -   "
5.14, 171.614, 0.008749546, NaN, NaN, NaN, 0.0347922, "- N/A -   "
5.15, 171.849, 0.00876343, NaN, NaN, NaN, 0.03601294, "- N/A -   "
5.16, 172.085, 0.008780089, NaN, NaN, NaN, 0.0372337, "- N/A -   "
5.17, 172.321, 0.00879675, NaN, NaN, NaN, 0.03601294, "- N/A -   "
5.18, 172.6751, 0.00881341, NaN, NaN, NaN, 0.03601294, "- N/A -   "
5.19, 173.1469, 0.008830071, NaN, NaN, NaN, 0.03601294, "- N/A -   "
5.2, 173.501, 0.008849508, NaN, NaN, NaN, 0.0347922, "- N/A -   "
5.21, 173.737, 0.00886617, NaN, NaN, NaN, 0.0347922, "- N/A -   "
5.22, 173.973, 0.00888283, NaN, NaN, NaN, 0.0347922, "- N/A -   "
5.23, 174.208, 0.008896713, NaN, NaN, NaN, 0.03601294, "- N/A -   "
5.24, 174.562, 0.008910597, NaN, NaN, NaN, 0.0372337, "- N/A -   "
5.25, 174.9161, 0.008927258, NaN, NaN, NaN, 0.0372337, "- N/A -   "
5.26, 175.152, 0.008941141, NaN, NaN, NaN, 0.0384545, "- N/A -   "
5.27, 175.388, 0.008955025, NaN, NaN, NaN, 0.0396753, "- N/A -   "
5.28, 175.624, 0.008968908, NaN, NaN, NaN, 0.04089605, "- N/A -   "
5.29, 175.978, 0.008982792, NaN, NaN, NaN, 0.04211683, "- N/A -   "
5.3, 176.214, 0.008999453, NaN, NaN, NaN, 0.04211683, "- N/A -   "
5.31, 176.6853, 0.009016113, NaN, NaN, NaN, 0.04211683, "- N/A -   "
5.32, 176.803, 0.009032774, NaN, NaN, NaN, 0.0433376, "- N/A -   "
5.33, 177.1571, 0.009046658, NaN, NaN, NaN, 0.0433376, "- N/A -   "
5.34, 177.393, 0.009063318, NaN, NaN, NaN, 0.0433376, "- N/A -   "
5.35, 177.629, 0.009077202, NaN, NaN, NaN, 0.0445584, "- N/A -   "
5.36, 177.983, 0.009093862, NaN, NaN, NaN, 0.0445584, "- N/A -   "
5.37, 178.219, 0.009110523, NaN, NaN, NaN, 0.04577916, "- N/A -   "
5.38, 178.572, 0.009127184, NaN, NaN, NaN, 0.04577916, "- N/A -   "
5.39, 179.044, 0.009141068, NaN, NaN, NaN, 0.04577916, "- N/A -   "
5.4, 179.28, 0.00915773, NaN, NaN, NaN, 0.04577916, "- N/A -   "
5.41, 179.634, 0.009177165, NaN, NaN, NaN, 0.0445584, "- N/A -   "
5.42, 179.988, 0.009193826, NaN, NaN, NaN, 0.0445584, "- N/A -   "
5.43, 180.342, 0.009213262, NaN, NaN, NaN, 0.0445584, "- N/A -   "
5.44, 180.813, 0.0092327, NaN, NaN, NaN, 0.04211683, "- N/A -   "
5.45, 181.167, 0.00925214, NaN, NaN, NaN, 0.04089605, "- N/A -   "
5.46, 181.521, 0.009271574, NaN, NaN, NaN, 0.0396753, "- N/A -   "
5.47, 181.875, 0.009291012, NaN, NaN, NaN, 0.0384545, "- N/A -   "
5.48, 182.3468, 0.009313226, NaN, NaN, NaN, 0.0372337, "- N/A -   "
5.49, 182.819, 0.009332663, NaN, NaN, NaN, 0.0347922, "- N/A -   "
5.5, 183.172, 0.0093521, NaN, NaN, NaN, 0.0335714, "- N/A -   "
5.51, 183.408, 0.009371538, NaN, NaN, NaN, 0.0323506, "- N/A -   "
5.52, 183.8801, 0.009390974, NaN, NaN, NaN, 0.03112983, "- N/A -   "
5.53, 184.234, 0.009410412, NaN, NaN, NaN, 0.03112983, "- N/A -   "
5.54, 184.5878, 0.00942707, NaN, NaN, NaN, 0.03112983, "- N/A -   "
5.55, 184.942, 0.009443734, NaN, NaN, NaN, 0.0299091, "- N/A -   "
5.56, 185.178, 0.009460394, NaN, NaN, NaN, 0.0299091, "- N/A -   "
5.57, 185.531, 0.009477054, NaN, NaN, NaN, 0.0299091, "- N/A -   "
5.58, 185.885, 0.009493714, NaN, NaN, NaN, 0.0299091, "- N/A -   "
5.59, 186.121, 0.009510376, NaN, NaN, NaN, 0.0299091, "- N/A -   "
5.6, 186.357, 0.009524259, NaN, NaN, NaN, 0.03112983, "- N/A -   "
5.61, 186.593, 0.009538142, NaN, NaN, NaN, 0.0323506, "- N/A -   "
5.62, 186.947, 0.009552026, NaN, NaN, NaN, 0.0335714, "- N/A -   "
5.63, 187.183, 0.009568687, NaN, NaN, NaN, 0.0335714, "- N/A -   "
5.64, 187.536, 0.009585347, NaN, NaN, NaN, 0.0347922, "- N/A -   "
5.65, 187.772, 0.00959923, NaN, NaN, NaN, 0.0347922, "- N/A -   "
5.66, 188.1262, 0.009615892, NaN, NaN, NaN, 0.03601294, "- N/A -   "
5.67, 188.3621, 0.009629775, NaN, NaN, NaN, 0.03601294, "- N/A -   "
5.68, 188.716, 0.009646436, NaN, NaN, NaN, 0.03601294, "- N/A -   "
5.69, 189.0698, 0.009663097, NaN, NaN, NaN, 0.03601294, "- N/A -   "
5.7, 189.3057, 0.009679756, NaN, NaN, NaN, 0.0372337, "- N/A -   "
5.71, 189.66, 0.00969364, NaN, NaN, NaN, 0.0372337, "- N/A -   "
5.72, 190.131, 0.009713078, NaN, NaN, NaN, 0.03601294, "- N/A -   "
5.73, 190.249, 0.009732515, NaN, NaN, NaN, 0.03601294, "- N/A -   "
5.74, 190.839, 0.009749176, NaN, NaN, NaN, 0.0347922, "- N/A -   "
5.75, 191.075, 0.009768613, NaN, NaN, NaN, 0.0335714, "- N/A -   "
5.76, 191.429, 0.009785273, NaN, NaN, NaN, 0.0335714, "- N/A -   "
5.77, 191.7826, 0.009804711, NaN, NaN, NaN, 0.0335714, "- N/A -   "
5.78, 192.136, 0.009818594, NaN, NaN, NaN, 0.0335714, "- N/A -   "
5.79, 192.372, 0.009835254, NaN, NaN, NaN, 0.0335714, "- N/A -   "
5.8, 192.726, 0.009851915, NaN, NaN, NaN, 0.0335714, "- N/A -   "
5.81, 193.08, 0.009868576, NaN, NaN, NaN, 0.0335714, "- N/A -   "
5.82, 193.434, 0.009888013, NaN, NaN, NaN, 0.0335714, "- N/A -   "
5.83, 193.67, 0.009901897, NaN, NaN, NaN, 0.0335714, "- N/A -   "
5.84, 194.024, 0.009918557, NaN, NaN, NaN, 0.0335714, "- N/A -   "
5.85, 194.259, 0.009935218, NaN, NaN, NaN, 0.0335714, "- N/A -   "
5.86, 194.613, 0.009951878, NaN, NaN, NaN, 0.0347922, "- N/A -   "
5.87, 194.967, 0.009968539, NaN, NaN, NaN, 0.0335714, "- N/A -   "
5.88, 195.203, 0.009985199, NaN, NaN, NaN, 0.0335714, "- N/A -   "
5.89, 195.675, 0.009999082, NaN, NaN, NaN, 0.0347922, "- N/A -   "
5.9, 195.911, 0.0100157, NaN, NaN, NaN, 0.0347922, "- N/A -   "
5.91, 196.147, 0.0100296, NaN, NaN, NaN, 0.03601294, "- N/A -   "
5.92, 196.618, 0.0100463, NaN, NaN, NaN, 0.0372337, "- N/A -   "
5.93, 196.736, 0.0100602, NaN, NaN, NaN, 0.0372337, "- N/A -   "
5.94, 197.09, 0.0100741, NaN, NaN, NaN, 0.0384545, "- N/A -   "
5.95, 197.326, 0.0100879, NaN, NaN, NaN, 0.0396753, "- N/A -   "
5.96, 197.68, 0.0101046, NaN, NaN, NaN, 0.0396753, "- N/A -   "
[...]
20.33, 760.707, 0.0340596, NaN, NaN, NaN, 0.0372337, "- N/A -   "
20.37, 762.1263, 0.0341152, NaN, NaN, NaN, 0.04211683, "- N/A -   "
20.41, 763.5457, 0.03417626, NaN, NaN, NaN, 0.0445584, "- N/A -   "
20.45, 765.32, 0.0342401, NaN, NaN, NaN, 0.04577916, "- N/A -   "
20.49, 767.0941, 0.0343095, NaN, NaN, NaN, 0.04577916, "- N/A -   "
20.53, 768.987, 0.03438452, NaN, NaN, NaN, 0.04089605, "- N/A -   "
20.57, 771.116, 0.03446227, NaN, NaN, NaN, 0.03601294, "- N/A -   "
20.61, 773.126, 0.0345372, NaN, NaN, NaN, 0.0335714, "- N/A -   "
20.65, 774.664, 0.0346011, NaN, NaN, NaN, 0.0335714, "- N/A -   "
20.69, 776.438, 0.03466775, NaN, NaN, NaN, 0.0335714, "- N/A -   "
20.73, 777.976, 0.03473161, NaN, NaN, NaN, 0.0347922, "- N/A -   "
20.77, 779.7502, 0.034801, NaN, NaN, NaN, 0.0335714, "- N/A -   "
20.81, 781.761, 0.034876, NaN, NaN, NaN, 0.0299091, "- N/A -   "
20.85, 783.5352, 0.03494542, NaN, NaN, NaN, 0.0299091, "- N/A -   "
20.89, 785.1911, 0.0350065, NaN, NaN, NaN, 0.03112983, "- N/A -   "
20.93, 786.6105, 0.0350676, NaN, NaN, NaN, 0.0335714, "- N/A -   "
20.97, 787.912, 0.0351231, NaN, NaN, NaN, 0.0396753, "- N/A -   "
21.01, 789.213, 0.03517589, NaN, NaN, NaN, 0.0445584, "- N/A -   "
21.05, 790.7503, 0.0352398, NaN, NaN, NaN, 0.04577916, "- N/A -   "
21.09, 792.643, 0.0353064, NaN, NaN, NaN, 0.04699994, "- N/A -   "
21.13, 794.417, 0.03537582, NaN, NaN, NaN, 0.0445584, "- N/A -   "
21.17, 796.428, 0.0354536, NaN, NaN, NaN, 0.0396753, "- N/A -   "
21.21, 798.439, 0.03552854, NaN, NaN, NaN, 0.03601294, "- N/A -   "
21.25, 800.331, 0.035598, NaN, NaN, NaN, 0.0347922, "- N/A -   "
21.29, 801.987, 0.03566738, NaN, NaN, NaN, 0.0347922, "- N/A -   "
21.33, 803.879, 0.0357396, NaN, NaN, NaN, 0.03112983, "- N/A -   "
21.37, 805.772, 0.03581732, NaN, NaN, NaN, 0.0274675, "- N/A -   "
21.41, 807.6645, 0.03588674, NaN, NaN, NaN, 0.0250259, "- N/A -   "
21.45, 809.2021, 0.0359506, NaN, NaN, NaN, 0.0274675, "- N/A -   "
21.49, 810.74, 0.03601447, NaN, NaN, NaN, 0.0286883, "- N/A -   "
21.53, 812.3957, 0.03607556, NaN, NaN, NaN, 0.0299091, "- N/A -   "
21.57, 813.815, 0.0361339, NaN, NaN, NaN, 0.0335714, "- N/A -   "
21.61, 815.3527, 0.0361922, NaN, NaN, NaN, 0.0372337, "- N/A -   "
21.65, 816.772, 0.0362505, NaN, NaN, NaN, 0.04211683, "- N/A -   "
21.69, 818.5463, 0.03631436, NaN, NaN, NaN, 0.0433376, "- N/A -   "
21.73, 820.2023, 0.036381, NaN, NaN, NaN, 0.0433376, "- N/A -   "
21.77, 821.976, 0.0364476, NaN, NaN, NaN, 0.0433376, "- N/A -   "
21.81, 823.6324, 0.03651151, NaN, NaN, NaN, 0.0445584, "- N/A -   "
21.85, 825.4066, 0.0365809, NaN, NaN, NaN, 0.0445584, "- N/A -   "
21.89, 827.1808, 0.0366476, NaN, NaN, NaN, 0.0433376, "- N/A -   "
21.93, 829.3098, 0.0367281, NaN, NaN, NaN, 0.0372337, "- N/A -   "
21.97, 831.3206, 0.0368058, NaN, NaN, NaN, 0.0323506, "- N/A -   "
22.01, 833.095, 0.036878, NaN, NaN, NaN, 0.03112983, "- N/A -   "
22.05, 834.6325, 0.03694191, NaN, NaN, NaN, 0.0323506, "- N/A -   "
22.09, 836.407, 0.037003, NaN, NaN, NaN, 0.0335714, "- N/A -   "
22.13, 838.0626, 0.0370696, NaN, NaN, NaN, 0.0335714, "- N/A -   "
22.17, 839.719, 0.0371307, NaN, NaN, NaN, 0.03601294, "- N/A -   "
22.21, 841.138, 0.0371918, NaN, NaN, NaN, 0.0384545, "- N/A -   "
22.25, 842.9121, 0.0372612, NaN, NaN, NaN, 0.0384545, "- N/A -   "
22.29, 844.686, 0.0373251, NaN, NaN, NaN, 0.0384545, "- N/A -   "
22.33, 846.224, 0.03738896, NaN, NaN, NaN, 0.0396753, "- N/A -   "
22.37, 847.88, 0.0374501, NaN, NaN, NaN, 0.04211683, "- N/A -   "
22.41, 849.4176, 0.03751114, NaN, NaN, NaN, 0.0445584, "- N/A -   "
22.45, 851.0735, 0.03757778, NaN, NaN, NaN, 0.04577916, "- N/A -   "
22.49, 852.8477, 0.0376444, NaN, NaN, NaN, 0.0445584, "- N/A -   "
22.53, 855.0951, 0.03772773, NaN, NaN, NaN, 0.0372337, "- N/A -   "
22.57, 857.1059, 0.03780548, NaN, NaN, NaN, 0.0323506, "- N/A -   "
22.61, 858.88, 0.0378804, NaN, NaN, NaN, 0.0299091, "- N/A -   "
22.65, 860.536, 0.0379443, NaN, NaN, NaN, 0.0299091, "- N/A -   "
22.69, 862.074, 0.0380026, NaN, NaN, NaN, 0.0335714, "- N/A -   "
22.73, 863.848, 0.0380693, NaN, NaN, NaN, 0.0347922, "- N/A -   "
22.77, 865.5038, 0.0381331, NaN, NaN, NaN, 0.0347922, "- N/A -   "
22.81, 867.278, 0.03820533, NaN, NaN, NaN, 0.0335714, "- N/A -   "
22.85, 869.1705, 0.0382747, NaN, NaN, NaN, 0.03112983, "- N/A -   "
22.89, 870.8264, 0.0383358, NaN, NaN, NaN, 0.0335714, "- N/A -   "
22.93, 872.3641, 0.0383997, NaN, NaN, NaN, 0.0347922, "- N/A -   "
22.97, 873.783, 0.038458, NaN, NaN, NaN, 0.0384545, "- N/A -   "
23.01, 875.3211, 0.0385191, NaN, NaN, NaN, 0.04089605, "- N/A -   "
23.05, 876.977, 0.0385857, NaN, NaN, NaN, 0.04211683, "- N/A -   "
23.09, 878.8695, 0.03865516, NaN, NaN, NaN, 0.0396753, "- N/A -   "
23.13, 880.644, 0.0387246, NaN, NaN, NaN, 0.0384545, "- N/A -   "
23.17, 882.181, 0.03878567, NaN, NaN, NaN, 0.04089605, "- N/A -   "
23.21, 884.074, 0.0388579, NaN, NaN, NaN, 0.0384545, "- N/A -   "
23.25, 885.8481, 0.0389245, NaN, NaN, NaN, 0.0384545, "- N/A -   "
23.29, 887.622, 0.03899115, NaN, NaN, NaN, 0.0384545, "- N/A -   "
23.33, 889.16, 0.03905779, NaN, NaN, NaN, 0.0384545, "- N/A -   "
23.37, 891.0525, 0.03912721, NaN, NaN, NaN, 0.0372337, "- N/A -   "
23.41, 892.9449, 0.0391966, NaN, NaN, NaN, 0.03601294, "- N/A -   "
23.45, 894.7191, 0.03926882, NaN, NaN, NaN, 0.0335714, "- N/A -   "
23.49, 896.3751, 0.03933269, NaN, NaN, NaN, 0.0347922, "- N/A -   "
23.53, 898.031, 0.0393993, NaN, NaN, NaN, 0.0347922, "- N/A -   "
23.57, 899.687, 0.03946597, NaN, NaN, NaN, 0.0347922, "- N/A -   "
23.61, 901.579, 0.0395354, NaN, NaN, NaN, 0.0347922, "- N/A -   "
23.65, 903.472, 0.03960759, NaN, NaN, NaN, 0.03112983, "- N/A -   "
23.69, 904.8913, 0.0396659, NaN, NaN, NaN, 0.0347922, "- N/A -   "
23.73, 906.429, 0.03972699, NaN, NaN, NaN, 0.0372337, "- N/A -   "
23.77, 907.9666, 0.0397853, NaN, NaN, NaN, 0.04089605, "- N/A -   "
23.81, 909.5043, 0.0398492, NaN, NaN, NaN, 0.04211683, "- N/A -   "
23.85, 911.16, 0.0399103, NaN, NaN, NaN, 0.0445584, "- N/A -   "
23.89, 913.0527, 0.03998245, NaN, NaN, NaN, 0.04211683, "- N/A -   "
23.93, 914.8269, 0.0400519, NaN, NaN, NaN, 0.04089605, "- N/A -   "
23.97, 917.0743, 0.0401324, NaN, NaN, NaN, 0.03601294, "- N/A -   "
24.01, 919.085, 0.0402074, NaN, NaN, NaN, 0.03112983, "- N/A -   "
24.05, 920.6227, 0.0402712, NaN, NaN, NaN, 0.0323506, "- N/A -   "
24.09, 922.2786, 0.0403351, NaN, NaN, NaN, 0.0335714, "- N/A -   "
24.13, 923.8162, 0.04040174, NaN, NaN, NaN, 0.0347922, "- N/A -   "
24.17, 925.709, 0.0404739, NaN, NaN, NaN, 0.03112983, "- N/A -   "
24.21, 927.72, 0.0405461, NaN, NaN, NaN, 0.0286883, "- N/A -   "
24.25, 929.3754, 0.04061, NaN, NaN, NaN, 0.0299091, "- N/A -   "
24.29, 931.0314, 0.04067664, NaN, NaN, NaN, 0.0299091, "- N/A -   "
24.33, 932.569, 0.04073495, NaN, NaN, NaN, 0.0335714, "- N/A -   "
24.37, 933.9884, 0.04079604, NaN, NaN, NaN, 0.03601294, "- N/A -   "
24.41, 935.2895, 0.04085157, NaN, NaN, NaN, 0.04089605, "- N/A -   "
24.45, 936.8271, 0.0409099, NaN, NaN, NaN, 0.0445584, "- N/A -   "
24.49, 938.6014, 0.0409765, NaN, NaN, NaN, 0.0445584, "- N/A -   "
24.53, 940.3756, 0.0410459, NaN, NaN, NaN, 0.0433376, "- N/A -   "
24.57, 942.268, 0.04111814, NaN, NaN, NaN, 0.04211683, "- N/A -   "
24.61, 944.1605, 0.0411903, NaN, NaN, NaN, 0.0384545, "- N/A -   "
24.65, 945.935, 0.041257, NaN, NaN, NaN, 0.0384545, "- N/A -   "
24.69, 947.709, 0.0413292, NaN, NaN, NaN, 0.03601294, "- N/A -   "
24.73, 949.483, 0.0413986, NaN, NaN, NaN, 0.0347922, "- N/A -   "
24.77, 951.3757, 0.0414708, NaN, NaN, NaN, 0.0335714, "- N/A -   "
24.81, 953.1499, 0.04154021, NaN, NaN, NaN, 0.03112983, "- N/A -   "
24.85, 955.042, 0.0416124, NaN, NaN, NaN, 0.0286883, "- N/A -   "
24.89, 956.58, 0.0416763, NaN, NaN, NaN, 0.0299091, "- N/A -   "
24.93, 958.236, 0.04174013, NaN, NaN, NaN, 0.03112983, "- N/A -   "
24.97, 959.8919, 0.04180122, NaN, NaN, NaN, 0.0347922, "- N/A -   "
25.01, 961.3113, 0.0418651, NaN, NaN, NaN, 0.03601294, "- N/A -   "
25.05, 962.731, 0.0419178, NaN, NaN, NaN, 0.04089605, "- N/A -   "
25.09, 964.15, 0.0419762, NaN, NaN, NaN, 0.0445584, "- N/A -   "
25.13, 965.9242, 0.0420456, NaN, NaN, NaN, 0.0445584, "- N/A -   "
25.17, 967.58, 0.0421122, NaN, NaN, NaN, 0.0445584, "- N/A -   "
25.21, 969.3544, 0.04217886, NaN, NaN, NaN, 0.0433376, "- N/A -   "
25.25, 971.2469, 0.04225383, NaN, NaN, NaN, 0.0396753, "- N/A -   "
25.29, 973.2576, 0.0423288, NaN, NaN, NaN, 0.03601294, "- N/A -   "
25.33, 975.268, 0.0424038, NaN, NaN, NaN, 0.0323506, "- N/A -   "
25.37, 977.2792, 0.0424843, NaN, NaN, NaN, 0.0274675, "- N/A -   "
25.41, 979.0534, 0.0425509, NaN, NaN, NaN, 0.0262467, "- N/A -   "
25.45, 980.7093, 0.04261481, NaN, NaN, NaN, 0.0274675, "- N/A -   "
25.49, 982.247, 0.0426787, NaN, NaN, NaN, 0.0299091, "- N/A -   "
25.53, 983.9029, 0.0427425, NaN, NaN, NaN, 0.03112983, "- N/A -   "
25.57, 985.441, 0.0428009, NaN, NaN, NaN, 0.0335714, "- N/A -   "
25.61, 987.0965, 0.0428647, NaN, NaN, NaN, 0.0347922, "- N/A -   "
25.65, 988.752, 0.0429341, NaN, NaN, NaN, 0.0347922, "- N/A -   "
25.69, 990.4084, 0.042998, NaN, NaN, NaN, 0.03601294, "- N/A -   "
25.73, 992.064, 0.0430563, NaN, NaN, NaN, 0.0384545, "- N/A -   "
25.77, 993.484, 0.0431174, NaN, NaN, NaN, 0.04089605, "- N/A -   "
25.81, 995.1396, 0.0431785, NaN, NaN, NaN, 0.0433376, "- N/A -   "
25.85, 996.796, 0.0432451, NaN, NaN, NaN, 0.0433376, "- N/A -   "
25.89, 998.688, 0.04331733, NaN, NaN, NaN, 0.04089605, "- N/A -   "
25.93, 1000.7, 0.0433951, NaN, NaN, NaN, 0.03601294, "- N/A -   "
25.97, 1002.59, 0.04347005, NaN, NaN, NaN, 0.0323506, "- N/A -   "
26.01, 1004.37, 0.04353669, NaN, NaN, NaN, 0.0323506, "- N/A -   "
26.05, 1005.9, 0.04360056, NaN, NaN, NaN, 0.0335714, "- N/A -   "
26.09, 1007.44, 0.0436616, NaN, NaN, NaN, 0.03601294, "- N/A -   "
26.13, 1009.1, 0.0437255, NaN, NaN, NaN, 0.0372337, "- N/A -   "
26.17, 1010.63, 0.0437894, NaN, NaN, NaN, 0.0396753, "- N/A -   "
26.21, 1012.41, 0.043856, NaN, NaN, NaN, 0.04089605, "- N/A -   "
26.25, 1014.19, 0.0439282, NaN, NaN, NaN, 0.0372337, "- N/A -   "
26.29, 1016.22, 0.0440032, NaN, NaN, NaN, 0.0347922, "- N/A -   "
26.33, 1017.77, 0.04406705, NaN, NaN, NaN, 0.0347922, "- N/A -   "
26.37, 1019.56, 0.0441309, NaN, NaN, NaN, 0.03601294, "- N/A -   "
26.41, 1020.99, 0.04418923, NaN, NaN, NaN, 0.0396753, "- N/A -   "
26.45, 1022.54, 0.0442503, NaN, NaN, NaN, 0.04211683, "- N/A -   "
26.49, 1024.45, 0.0443225, NaN, NaN, NaN, 0.04089605, "- N/A -   "
26.53, 1026.12, 0.0443892, NaN, NaN, NaN, 0.0396753, "- N/A -   "
26.57, 1027.91, 0.04445857, NaN, NaN, NaN, 0.0396753, "- N/A -   "
26.61, 1029.7, 0.044528, NaN, NaN, NaN, 0.0384545, "- N/A -   "
26.65, 1031.72, 0.0446002, NaN, NaN, NaN, 0.0347922, "- N/A -   "
26.69, 1033.51, 0.04466961, NaN, NaN, NaN, 0.0335714, "- N/A -   "
26.73, 1035.18, 0.04473625, NaN, NaN, NaN, 0.0335714, "- N/A -   "
26.77, 1036.85, 0.04480289, NaN, NaN, NaN, 0.0347922, "- N/A -   "
26.81, 1038.52, 0.0448668, NaN, NaN, NaN, 0.0347922, "- N/A -   "
26.85, 1040.19, 0.0449334, NaN, NaN, NaN, 0.0347922, "- N/A -   "
26.89, 1041.859, 0.0449973, NaN, NaN, NaN, 0.03601294, "- N/A -   "
26.93, 1043.767, 0.04506668, NaN, NaN, NaN, 0.0347922, "- N/A -   "
26.97, 1045.56, 0.0451389, NaN, NaN, NaN, 0.0335714, "- N/A -   "
27.01, 1047.23, 0.04520552, NaN, NaN, NaN, 0.0323506, "- N/A -   "
27.05, 1048.78, 0.0452694, NaN, NaN, NaN, 0.0347922, "- N/A -   "
27.09, 1050.56, 0.045336, NaN, NaN, NaN, 0.0347922, "- N/A -   "
27.13, 1052, 0.0453916, NaN, NaN, NaN, 0.0396753, "- N/A -   "
27.17, 1053.66, 0.0454554, NaN, NaN, NaN, 0.0396753, "- N/A -   "
27.21, 1055.22, 0.0455193, NaN, NaN, NaN, 0.04089605, "- N/A -   "
27.25, 1056.77, 0.04558038, NaN, NaN, NaN, 0.0445584, "- N/A -   "
27.29, 1058.43, 0.04564425, NaN, NaN, NaN, 0.0445584, "- N/A -   "
27.33, 1060.22, 0.0457137, NaN, NaN, NaN, 0.0445584, "- N/A -   "
27.37, 1062.37, 0.0457859, NaN, NaN, NaN, 0.04089605, "- N/A -   "
27.41, 1064.28, 0.0458608, NaN, NaN, NaN, 0.0372337, "- N/A -   "
27.45, 1066.19, 0.045933, NaN, NaN, NaN, 0.0347922, "- N/A -   "
27.49, 1067.98, 0.0460052, NaN, NaN, NaN, 0.0335714, "- N/A -   "
27.53, 1069.64, 0.04606909, NaN, NaN, NaN, 0.0335714, "- N/A -   "
27.57, 1071.195, 0.046133, NaN, NaN, NaN, 0.03601294, "- N/A -   "
27.61, 1073.22, 0.04620515, NaN, NaN, NaN, 0.0323506, "- N/A -   "
27.65, 1075.13, 0.0462801, NaN, NaN, NaN, 0.0286883, "- N/A -   "
27.69, 1076.8, 0.046344, NaN, NaN, NaN, 0.0299091, "- N/A -   "
27.73, 1078.35, 0.0464079, NaN, NaN, NaN, 0.0323506, "- N/A -   "
27.77, 1079.78, 0.04646339, NaN, NaN, NaN, 0.03601294, "- N/A -   "
27.81, 1081.09, 0.0465189, NaN, NaN, NaN, 0.04211683, "- N/A -   "
27.85, 1082.52, 0.04657446, NaN, NaN, NaN, 0.04577916, "- N/A -   "
27.89, 1084.07, 0.04663555, NaN, NaN, NaN, 0.0482207, "- N/A -   "
27.93, 1085.74, 0.0466994, NaN, NaN, NaN, 0.0494415, "- N/A -   "
27.97, 1087.771, 0.0467772, NaN, NaN, NaN, 0.04577916, "- N/A -   "
28.01, 1089.8, 0.0468549, NaN, NaN, NaN, 0.0396753, "- N/A -   "
28.05, 1091.83, 0.04693266, NaN, NaN, NaN, 0.0347922, "- N/A -   "
28.09, 1093.85, 0.04700763, NaN, NaN, NaN, 0.0323506, "- N/A -   "
28.13, 1095.88, 0.0470798, NaN, NaN, NaN, 0.0286883, "- N/A -   "
28.17, 1097.55, 0.04714647, NaN, NaN, NaN, 0.0286883, "- N/A -   "
28.21, 1099.34, 0.0472187, NaN, NaN, NaN, 0.0274675, "- N/A -   "
28.25, 1100.89, 0.0472798, NaN, NaN, NaN, 0.0299091, "- N/A -   "
28.29, 1102.56, 0.0473464, NaN, NaN, NaN, 0.0299091, "- N/A -   "
28.33, 1104.347, 0.04741026, NaN, NaN, NaN, 0.0299091, "- N/A -   "
28.37, 1105.78, 0.0474741, NaN, NaN, NaN, 0.0323506, "- N/A -   "
28.41, 1107.209, 0.0475297, NaN, NaN, NaN, 0.0372337, "- N/A -   "
28.45, 1108.64, 0.0475852, NaN, NaN, NaN, 0.04089605, "- N/A -   "
28.49, 1110.19, 0.04764351, NaN, NaN, NaN, 0.0445584, "- N/A -   "
28.53, 1111.98, 0.0477101, NaN, NaN, NaN, 0.04577916, "- N/A -   "
28.57, 1113.65, 0.0477768, NaN, NaN, NaN, 0.0445584, "- N/A -   "
28.61, 1115.32, 0.0478434, NaN, NaN, NaN, 0.0445584, "- N/A -   "
28.65, 1117.23, 0.0479129, NaN, NaN, NaN, 0.0433376, "- N/A -   "
28.69, 1119.015, 0.04798227, NaN, NaN, NaN, 0.04211683, "- N/A -   "
28.73, 1121.04, 0.0480572, NaN, NaN, NaN, 0.0384545, "- N/A -   "
28.77, 1123.19, 0.04813777, NaN, NaN, NaN, 0.0323506, "- N/A -   "
28.81, 1125.1, 0.04821274, NaN, NaN, NaN, 0.0299091, "- N/A -   "
28.85, 1126.65, 0.04827661, NaN, NaN, NaN, 0.0299091, "- N/A -   "
28.89, 1128.44, 0.04834325, NaN, NaN, NaN, 0.03112983, "- N/A -   "
28.93, 1129.867, 0.0484043, NaN, NaN, NaN, 0.0323506, "- N/A -   "
28.97, 1131.66, 0.0484654, NaN, NaN, NaN, 0.0347922, "- N/A -   "
29.01, 1133.33, 0.04852929, NaN, NaN, NaN, 0.03601294, "- N/A -   "
29.05, 1134.99, 0.04859316, NaN, NaN, NaN, 0.0372337, "- N/A -   "
29.09, 1136.66, 0.0486626, NaN, NaN, NaN, 0.0372337, "- N/A -   "
29.13, 1138.45, 0.04872644, NaN, NaN, NaN, 0.0372337, "- N/A -   "
29.17, 1139.88, 0.04878753, NaN, NaN, NaN, 0.0396753, "- N/A -   "
29.21, 1141.43, 0.0488458, NaN, NaN, NaN, 0.0433376, "- N/A -   "
29.25, 1143.1, 0.04890971, NaN, NaN, NaN, 0.0445584, "- N/A -   "
29.29, 1144.77, 0.04897357, NaN, NaN, NaN, 0.04577916, "- N/A -   "
29.33, 1146.68, 0.0490513, NaN, NaN, NaN, 0.04211683, "- N/A -   "
29.37, 1148.95, 0.0491318, NaN, NaN, NaN, 0.03601294, "- N/A -   "
29.41, 1151.09, 0.04920682, NaN, NaN, NaN, 0.03112983, "- N/A -   "
29.45, 1152.88, 0.04928179, NaN, NaN, NaN, 0.0274675, "- N/A -   "
29.49, 1154.552, 0.0493457, NaN, NaN, NaN, 0.0286883, "- N/A -   "
29.53, 1156.1, 0.04940397, NaN, NaN, NaN, 0.0323506, "- N/A -   "
29.57, 1157.89, 0.0494734, NaN, NaN, NaN, 0.03112983, "- N/A -   "
29.61, 1159.32, 0.0495317, NaN, NaN, NaN, 0.0347922, "- N/A -   "
29.65, 1161.111, 0.04960112, NaN, NaN, NaN, 0.0335714, "- N/A -   "
29.69, 1163.02, 0.0496705, NaN, NaN, NaN, 0.0323506, "- N/A -   "
29.73, 1164.57, 0.0497344, NaN, NaN, NaN, 0.0335714, "- N/A -   "
29.77, 1166.358, 0.04979827, NaN, NaN, NaN, 0.0347922, "- N/A -   "
29.81, 1167.91, 0.04985936, NaN, NaN, NaN, 0.0372337, "- N/A -   "
29.85, 1169.22, 0.0499177, NaN, NaN, NaN, 0.04211683, "- N/A -   "
29.89, 1170.89, 0.0499815, NaN, NaN, NaN, 0.04211683, "- N/A -   "
29.93, 1172.68, 0.0500482, NaN, NaN, NaN, 0.04211683, "- N/A -   "
29.97, 1174.47, 0.0501176, NaN, NaN, NaN, 0.04089605, "- N/A -   "
30.01, 1176.14, 0.0501842, NaN, NaN, NaN, 0.04089605, "- N/A -   "
30.05, 1178.04, 0.05025643, NaN, NaN, NaN, 0.0384545, "- N/A -   "
30.09, 1179.95, 0.05032585, NaN, NaN, NaN, 0.0372337, "- N/A -   "
30.13, 1181.62, 0.0503925, NaN, NaN, NaN, 0.0372337, "- N/A -   "
30.17, 1183.411, 0.0504619, NaN, NaN, NaN, 0.03601294, "- N/A -   "
30.21, 1185.32, 0.05053133, NaN, NaN, NaN, 0.0347922, "- N/A -   "
30.25, 1187.23, 0.0506035, NaN, NaN, NaN, 0.0323506, "- N/A -   "
30.29, 1188.9, 0.05067017, NaN, NaN, NaN, 0.0323506, "- N/A -   "
30.33, 1190.57, 0.050734, NaN, NaN, NaN, 0.0335714, "- N/A -   "
30.37, 1192.24, 0.0508007, NaN, NaN, NaN, 0.0335714, "- N/A -   "
30.41, 1193.91, 0.0508701, NaN, NaN, NaN, 0.0335714, "- N/A -   "
30.45, 1195.694, 0.050934, NaN, NaN, NaN, 0.0335714, "- N/A -   "
30.49, 1197.48, 0.0510034, NaN, NaN, NaN, 0.0323506, "- N/A -   "
30.53, 1198.914, 0.05106169, NaN, NaN, NaN, 0.0372337, "- N/A -   "
30.57, 1200.34, 0.0511228, NaN, NaN, NaN, 0.0396753, "- N/A -   "
30.61, 1202.13, 0.0511866, NaN, NaN, NaN, 0.0396753, "- N/A -   "
30.65, 1203.56, 0.05124496, NaN, NaN, NaN, 0.0433376, "- N/A -   "
30.69, 1205.23, 0.0513088, NaN, NaN, NaN, 0.04577916, "- N/A -   "
30.73, 1207.14, 0.05137824, NaN, NaN, NaN, 0.04577916, "- N/A -   "
30.77, 1209.05, 0.0514504, NaN, NaN, NaN, 0.04211683, "- N/A -   "
30.81, 1211.32, 0.0515337, NaN, NaN, NaN, 0.03601294, "- N/A -   "
30.85, 1213.224, 0.0516087, NaN, NaN, NaN, 0.03112983, "- N/A -   "
30.89, 1214.77, 0.05167535, NaN, NaN, NaN, 0.03112983, "- N/A -   "
30.93, 1216.56, 0.051742, NaN, NaN, NaN, 0.03112983, "- N/A -   "
30.97, 1218.35, 0.0518114, NaN, NaN, NaN, 0.03112983, "- N/A -   "
31.01, 1220.14, 0.0518808, NaN, NaN, NaN, 0.0286883, "- N/A -   "
31.05, 1221.81, 0.0519475, NaN, NaN, NaN, 0.0286883, "- N/A -   "
31.09, 1223.599, 0.0520141, NaN, NaN, NaN, 0.0286883, "- N/A -   "
31.13, 1225.27, 0.052078, NaN, NaN, NaN, 0.0299091, "- N/A -   "
31.17, 1226.938, 0.05213907, NaN, NaN, NaN, 0.0323506, "- N/A -   "
31.21, 1228.13, 0.0521946, NaN, NaN, NaN, 0.0372337, "- N/A -   "
31.25, 1229.44, 0.05225014, NaN, NaN, NaN, 0.04211683, "- N/A -   "
31.29, 1230.75, 0.0523029, NaN, NaN, NaN, 0.0482207, "- N/A -   "
31.33, 1232.42, 0.052364, NaN, NaN, NaN, 0.05066227, "- N/A -   "
31.37, 1233.97, 0.05243063, NaN, NaN, NaN, 0.05066227, "- N/A -   "
31.41, 1236, 0.0525056, NaN, NaN, NaN, 0.04699994, "- N/A -   "
31.45, 1238.15, 0.0525861, NaN, NaN, NaN, 0.04089605, "- N/A -   "
31.49, 1240.175, 0.0526611, NaN, NaN, NaN, 0.0384545, "- N/A -   "
31.53, 1241.84, 0.05272774, NaN, NaN, NaN, 0.0372337, "- N/A -   "
31.57, 1243.63, 0.0527972, NaN, NaN, NaN, 0.0372337, "- N/A -   "
31.61, 1245.66, 0.0528749, NaN, NaN, NaN, 0.03112983, "- N/A -   "
31.65, 1247.45, 0.0529471, NaN, NaN, NaN, 0.0286883, "- N/A -   "
31.69, 1249.24, 0.0530137, NaN, NaN, NaN, 0.0286883, "- N/A -   "
31.73, 1250.67, 0.05307761, NaN, NaN, NaN, 0.03112983, "- N/A -   "
31.77, 1252.34, 0.0531387, NaN, NaN, NaN, 0.0323506, "- N/A -   "
31.81, 1254.01, 0.0532026, NaN, NaN, NaN, 0.0335714, "- N/A -   "
31.85, 1255.44, 0.0532637, NaN, NaN, NaN, 0.0372337, "- N/A -   "
31.89, 1256.87, 0.05332197, NaN, NaN, NaN, 0.04089605, "- N/A -   "
31.93, 1258.42, 0.0533831, NaN, NaN, NaN, 0.04211683, "- N/A -   "
31.97, 1260.21, 0.0534497, NaN, NaN, NaN, 0.04211683, "- N/A -   "
32.01, 1261.76, 0.05351356, NaN, NaN, NaN, 0.0433376, "- N/A -   "
32.05, 1263.67, 0.0535858, NaN, NaN, NaN, 0.04089605, "- N/A -   "
32.09, 1265.46, 0.0536524, NaN, NaN, NaN, 0.04089605, "- N/A -   "
32.13, 1267.25, 0.0537246, NaN, NaN, NaN, 0.0384545, "- N/A -   "
32.17, 1269.39, 0.0538023, NaN, NaN, NaN, 0.0335714, "- N/A -   "
32.21, 1271.419, 0.05388009, NaN, NaN, NaN, 0.0286883, "- N/A -   "
32.238, 1272.61, 0.0539273, NaN, NaN, NaN, 0.0286883, "- N/A -   "