File: 2_Tensile_Data/Hamel_ForceTest_Bolt6_Test7.csv
Time, Load (lb), Position (in), AxialStrain (in), TransverseStrain (in), Auxiliary (), Control Out (V), Stress (psi)
0.0, 9.199903, 0.0, NaN, NaN, NaN, -0.006714277, "- N/A -   "
0.01, 9.199903, 0.0, NaN, NaN, NaN, 6.103888E-4, "- N/A -   "
0.02, 9.199903, 2.776752E-6, NaN, NaN, NaN, 0.006714277, "- N/A -   "
0.03, 9.199903, 2.776752E-6, NaN, NaN, NaN, 0.0189221, "- N/A -   "
0.04, 9.199903, 8.330256E-6, NaN, NaN, NaN, 0.03601294, "- N/A -   "
0.05, 9.199903, 1.38838e-05, NaN, NaN, NaN, 0.0531038, "- N/A -   "
0.06, 9.31785, 2.77675e-05, NaN, NaN, NaN, 0.06775316, "- N/A -   "
0.07, 9.553744, 4.442803E-5, NaN, NaN, NaN, 0.07874016, "- N/A -   "
0.08, 9.78964, 6.6642e-05, NaN, NaN, NaN, 0.08850638, "- N/A -   "
0.09, 10.1435, 9.440956E-5, NaN, NaN, NaN, 0.09705182, "- N/A -   "
0.1, 10.3794, 0.000122177, NaN, NaN, NaN, 0.104376, "- N/A -   "
0.11, 10.73322, 1.499446E-4, NaN, NaN, NaN, 0.101935, "- N/A -   "
0.12, 11.0871, 0.000180489, NaN, NaN, NaN, 0.095831, "- N/A -   "
0.13, 11.5589, 0.000208256, NaN, NaN, NaN, 0.09094793, "- N/A -   "
0.14, 11.9127, 0.000233247, NaN, NaN, NaN, 0.0872856, "- N/A -   "
0.15, 12.14859, 0.000261015, NaN, NaN, NaN, 0.08362327, "- N/A -   "
0.16, 12.5024, 2.832287E-4, NaN, NaN, NaN, 0.0799609, "- N/A -   "
0.17, 12.7383, 0.000308219, NaN, NaN, NaN, 0.0762986, "- N/A -   "
0.18, 12.9742, 0.000330433, NaN, NaN, NaN, 0.0750778, "- N/A -   "
0.19, 13.3281, 0.000352647, NaN, NaN, NaN, 0.07263627, "- N/A -   "
0.2, 13.6819, 0.000372085, NaN, NaN, NaN, 0.0701947, "- N/A -   "
0.21, 13.7999, 0.000391522, NaN, NaN, NaN, 0.0689739, "- N/A -   "
0.22, 14.0357, 4.13736E-4, NaN, NaN, NaN, 0.06775316, "- N/A -   "
0.23, 14.2716, 4.331733E-4, NaN, NaN, NaN, 0.06653238, "- N/A -   "
0.24, 14.6255, 4.553873E-4, NaN, NaN, NaN, 0.0640908, "- N/A -   "
0.25, 14.8614, 0.000474825, NaN, NaN, NaN, 0.06164927, "- N/A -   "
0.26, 15.2152, 4.970386E-4, NaN, NaN, NaN, 0.0604285, "- N/A -   "
0.27, 15.4511, 5.164758E-4, NaN, NaN, NaN, 0.0579869, "- N/A -   "
0.28, 15.687, 0.00053869, NaN, NaN, NaN, 0.0555454, "- N/A -   "
0.29, 16.0409, 0.000560904, NaN, NaN, NaN, 0.0543246, "- N/A -   "
0.3, 16.27675, 0.000580341, NaN, NaN, NaN, 0.05188305, "- N/A -   "
0.31, 16.6306, 5.997784E-4, NaN, NaN, NaN, 0.05066227, "- N/A -   "
0.32, 16.86649, 6.219924E-4, NaN, NaN, NaN, 0.0494415, "- N/A -   "
0.33, 17.2203, 6.442064E-4, NaN, NaN, NaN, 0.04699994, "- N/A -   "
0.34, 17.4562, 6.636437E-4, NaN, NaN, NaN, 0.0445584, "- N/A -   "
0.35, 17.8101, 6.858577E-4, NaN, NaN, NaN, 0.04211683, "- N/A -   "
0.36, 18.046, 0.000705295, NaN, NaN, NaN, 0.04089605, "- N/A -   "
0.37, 18.3998, 7.27509E-4, NaN, NaN, NaN, 0.0384545, "- N/A -   "
0.38, 18.5178, 0.000744169, NaN, NaN, NaN, 0.0384545, "- N/A -   "
0.39, 18.7536, 0.000763607, NaN, NaN, NaN, 0.0372337, "- N/A -   "
0.4, 18.9895, 0.000780267, NaN, NaN, NaN, 0.0372337, "- N/A -   "
0.41, 19.3434, 7.997045E-4, NaN, NaN, NaN, 0.03601294, "- N/A -   "
0.42, 19.4613, 8.16365E-4, NaN, NaN, NaN, 0.03601294, "- N/A -   "
0.43, 19.6972, 0.000833026, NaN, NaN, NaN, 0.03601294, "- N/A -   "
0.44, 20.05107, 0.000849686, NaN, NaN, NaN, 0.03601294, "- N/A -   "
0.45, 20.169, 8.635698E-4, NaN, NaN, NaN, 0.0372337, "- N/A -   "
0.46, 20.4049, 8.830071E-4, NaN, NaN, NaN, 0.0372337, "- N/A -   "
0.47, 20.6408, 0.000899668, NaN, NaN, NaN, 0.03601294, "- N/A -   "
0.48, 20.8767, 9.163281E-4, NaN, NaN, NaN, 0.03601294, "- N/A -   "
0.49, 21.2305, 9.329886E-4, NaN, NaN, NaN, 0.03601294, "- N/A -   "
0.5, 21.46644, 0.000949649, NaN, NaN, NaN, 0.03601294, "- N/A -   "
0.51, 21.7023, 0.000969086, NaN, NaN, NaN, 0.0347922, "- N/A -   "
0.52, 22.0562, 9.857469E-4, NaN, NaN, NaN, 0.0347922, "- N/A -   "
0.53, 22.1741, 0.00100518, NaN, NaN, NaN, 0.0335714, "- N/A -   "
0.54, 22.41, 0.00102462, NaN, NaN, NaN, 0.0335714, "- N/A -   "
0.55, 22.7639, 0.00104406, NaN, NaN, NaN, 0.0323506, "- N/A -   "
0.56, 22.9998, 0.00106072, NaN, NaN, NaN, 0.03112983, "- N/A -   "
0.57, 23.2357, 0.00108016, NaN, NaN, NaN, 0.0299091, "- N/A -   "
0.58, 23.4715, 0.001096817, NaN, NaN, NaN, 0.0299091, "- N/A -   "
0.59, 23.82539, 0.00111625, NaN, NaN, NaN, 0.0286883, "- N/A -   "
0.6, 23.9433, 0.00113291, NaN, NaN, NaN, 0.0286883, "- N/A -   "
0.61, 24.1792, 0.0011468, NaN, NaN, NaN, 0.0299091, "- N/A -   "
0.62, 24.4151, 0.001163459, NaN, NaN, NaN, 0.0299091, "- N/A -   "
0.63, 24.65102, 0.00117734, NaN, NaN, NaN, 0.03112983, "- N/A -   "
0.64, 24.8869, 0.00119123, NaN, NaN, NaN, 0.0323506, "- N/A -   "
0.65, 25.0049, 0.00120789, NaN, NaN, NaN, 0.0323506, "- N/A -   "
0.66, 25.3587, 0.00122455, NaN, NaN, NaN, 0.0323506, "- N/A -   "
0.67, 25.5946, 0.001241208, NaN, NaN, NaN, 0.0323506, "- N/A -   "
0.68, 25.5946, 0.00125509, NaN, NaN, NaN, 0.0335714, "- N/A -   "
0.69, 25.8305, 0.00127175, NaN, NaN, NaN, 0.0347922, "- N/A -   "
0.7, 26.0664, 0.00128564, NaN, NaN, NaN, 0.03601294, "- N/A -   "
0.71, 26.3023, 0.00129952, NaN, NaN, NaN, 0.0372337, "- N/A -   "
0.72, 26.4202, 0.00131063, NaN, NaN, NaN, 0.0384545, "- N/A -   "
0.73, 26.6561, 0.00132451, NaN, NaN, NaN, 0.04089605, "- N/A -   "
0.74, 26.7741, 0.00133562, NaN, NaN, NaN, 0.04211683, "- N/A -   "
0.75, 27.01, 0.00135228, NaN, NaN, NaN, 0.0433376, "- N/A -   "
0.76, 27.1279, 0.00136616, NaN, NaN, NaN, 0.0445584, "- N/A -   "
0.77, 27.4818, 0.00138005, NaN, NaN, NaN, 0.0445584, "- N/A -   "
0.78, 27.5997, 0.00139393, NaN, NaN, NaN, 0.04577916, "- N/A -   "
0.79, 27.8356, 0.00141059, NaN, NaN, NaN, 0.04577916, "- N/A -   "
0.8, 28.1894, 0.00142447, NaN, NaN, NaN, 0.04699994, "- N/A -   "
0.81, 28.42534, 0.00144113, NaN, NaN, NaN, 0.04699994, "- N/A -   "
0.82, 28.6612, 0.00145779, NaN, NaN, NaN, 0.04699994, "- N/A -   "
0.83, 28.7792, 0.00147446, NaN, NaN, NaN, 0.04699994, "- N/A -   "
0.84, 29.0151, 0.00149112, NaN, NaN, NaN, 0.04699994, "- N/A -   "
0.85, 29.251, 0.00150778, NaN, NaN, NaN, 0.04699994, "- N/A -   "
0.86, 29.4869, 0.00152721, NaN, NaN, NaN, 0.04699994, "- N/A -   "
0.87, 29.7228, 0.0015411, NaN, NaN, NaN, 0.04699994, "- N/A -   "
0.88, 29.9587, 0.00156053, NaN, NaN, NaN, 0.04577916, "- N/A -   "
0.89, 30.3125, 0.00157997, NaN, NaN, NaN, 0.0445584, "- N/A -   "
0.9, 30.5484, 0.001599409, NaN, NaN, NaN, 0.0433376, "- N/A -   "
0.91, 30.9022, 0.00161885, NaN, NaN, NaN, 0.04211683, "- N/A -   "
0.92, 31.1381, 0.00163828, NaN, NaN, NaN, 0.04211683, "- N/A -   "
0.93, 31.374, 0.00165772, NaN, NaN, NaN, 0.04089605, "- N/A -   "
0.94, 31.72787, 0.00167438, NaN, NaN, NaN, 0.0396753, "- N/A -   "
0.95, 31.9638, 0.00169382, NaN, NaN, NaN, 0.0384545, "- N/A -   "
0.96, 32.3176, 0.00171326, NaN, NaN, NaN, 0.0384545, "- N/A -   "
0.97, 32.5535, 0.00172992, NaN, NaN, NaN, 0.0372337, "- N/A -   "
0.98, 32.9073, 0.00174935, NaN, NaN, NaN, 0.03601294, "- N/A -   "
0.99, 33.02529, 0.00176879, NaN, NaN, NaN, 0.03601294, "- N/A -   "
1, 33.3791, 0.00178545, NaN, NaN, NaN, 0.03601294, "- N/A -   "
1.01, 33.49708, 0.001802112, NaN, NaN, NaN, 0.0347922, "- N/A -   "
1.02, 33.8509, 0.00182155, NaN, NaN, NaN, 0.0347922, "- N/A -   "
1.03, 34.08682, 0.00183821, NaN, NaN, NaN, 0.0335714, "- N/A -   "
1.04, 34.3227, 0.00185487, NaN, NaN, NaN, 0.0335714, "- N/A -   "
1.05, 34.6766, 0.00187153, NaN, NaN, NaN, 0.0335714, "- N/A -   "
1.06, 34.9125, 0.001890968, NaN, NaN, NaN, 0.0323506, "- N/A -   "
1.07, 35.1483, 0.00190763, NaN, NaN, NaN, 0.0323506, "- N/A -   "
1.08, 35.3842, 0.001924289, NaN, NaN, NaN, 0.0323506, "- N/A -   "
1.09, 35.6201, 0.00194373, NaN, NaN, NaN, 0.0323506, "- N/A -   "
1.1, 35.85603, 0.00196316, NaN, NaN, NaN, 0.03112983, "- N/A -   "
1.11, 36.2099, 0.00197982, NaN, NaN, NaN, 0.0299091, "- N/A -   "
1.12, 36.5637, 0.00199648, NaN, NaN, NaN, 0.0299091, "- N/A -   "
1.13, 36.6817, 0.00201592, NaN, NaN, NaN, 0.0299091, "- N/A -   "
1.14, 37.0355, 0.00203258, NaN, NaN, NaN, 0.0286883, "- N/A -   "
1.15, 37.15345, 0.00204924, NaN, NaN, NaN, 0.0286883, "- N/A -   "
1.16, 37.5073, 0.00206868, NaN, NaN, NaN, 0.0286883, "- N/A -   "
1.17, 37.8611, 0.00208534, NaN, NaN, NaN, 0.0274675, "- N/A -   "
1.18, 37.9791, 0.00209922, NaN, NaN, NaN, 0.0286883, "- N/A -   "
1.19, 38.3329, 0.00211588, NaN, NaN, NaN, 0.0286883, "- N/A -   "
1.2, 38.4509, 0.00213255, NaN, NaN, NaN, 0.0299091, "- N/A -   "
1.21, 38.68677, 0.00214643, NaN, NaN, NaN, 0.0299091, "- N/A -   "
1.22, 39.04061, 0.00216309, NaN, NaN, NaN, 0.0299091, "- N/A -   "
1.23, 39.15856, 0.00217975, NaN, NaN, NaN, 0.0299091, "- N/A -   "
1.24, 39.3945, 0.00219641, NaN, NaN, NaN, 0.0299091, "- N/A -   "
1.25, 39.7483, 0.002213071, NaN, NaN, NaN, 0.0299091, "- N/A -   "
1.26, 39.98419, 0.00222973, NaN, NaN, NaN, 0.0299091, "- N/A -   "
1.27, 40.22009, 0.00224362, NaN, NaN, NaN, 0.03112983, "- N/A -   "
1.28, 40.456, 0.002260276, NaN, NaN, NaN, 0.03112983, "- N/A -   "
1.29, 40.69188, 0.00227694, NaN, NaN, NaN, 0.0323506, "- N/A -   "
1.3, 40.8098, 0.00229082, NaN, NaN, NaN, 0.0335714, "- N/A -   "
1.31, 41.04572, 0.00230193, NaN, NaN, NaN, 0.0347922, "- N/A -   "
1.32, 41.16367, 0.00231859, NaN, NaN, NaN, 0.0347922, "- N/A -   "
1.33, 41.51751, 0.00233247, NaN, NaN, NaN, 0.03601294, "- N/A -   "
1.34, 41.6355, 0.00234636, NaN, NaN, NaN, 0.0372337, "- N/A -   "
1.35, 41.9893, 0.002363016, NaN, NaN, NaN, 0.0372337, "- N/A -   "
1.36, 42.1072, 0.0023769, NaN, NaN, NaN, 0.0384545, "- N/A -   "
1.37, 42.3431, 0.00239078, NaN, NaN, NaN, 0.0396753, "- N/A -   "
1.38, 42.579, 0.002404667, NaN, NaN, NaN, 0.04089605, "- N/A -   "
1.39, 42.697, 0.00241855, NaN, NaN, NaN, 0.04211683, "- N/A -   "
1.4, 42.93288, 0.00243521, NaN, NaN, NaN, 0.0433376, "- N/A -   "
1.41, 43.1688, 0.002449095, NaN, NaN, NaN, 0.0433376, "- N/A -   "
1.42, 43.40467, 0.00246298, NaN, NaN, NaN, 0.0445584, "- N/A -   "
1.43, 43.6406, 0.00247964, NaN, NaN, NaN, 0.0445584, "- N/A -   "
1.44, 43.9944, 0.0024963, NaN, NaN, NaN, 0.0445584, "- N/A -   "
1.45, 44.2303, 0.00251296, NaN, NaN, NaN, 0.04577916, "- N/A -   "
1.46, 44.4662, 0.00252684, NaN, NaN, NaN, 0.04577916, "- N/A -   "
1.47, 44.70209, 0.0025435, NaN, NaN, NaN, 0.04577916, "- N/A -   "
1.48, 44.93799, 0.00256294, NaN, NaN, NaN, 0.0445584, "- N/A -   "
1.49, 45.29183, 0.0025796, NaN, NaN, NaN, 0.0445584, "- N/A -   "
1.5, 45.5277, 0.00259626, NaN, NaN, NaN, 0.0445584, "- N/A -   "
1.51, 45.76362, 0.00261292, NaN, NaN, NaN, 0.0445584, "- N/A -   "
1.52, 46.11746, 0.002629584, NaN, NaN, NaN, 0.0445584, "- N/A -   "
1.53, 46.23541, 0.00264624, NaN, NaN, NaN, 0.0445584, "- N/A -   "
1.54, 46.5893, 0.0026629, NaN, NaN, NaN, 0.0445584, "- N/A -   "
1.55, 46.7072, 0.00267957, NaN, NaN, NaN, 0.0445584, "- N/A -   "
1.56, 47.179, 0.002696226, NaN, NaN, NaN, 0.0445584, "- N/A -   "
1.57, 47.2969, 0.00271289, NaN, NaN, NaN, 0.0445584, "- N/A -   "
1.58, 47.65078, 0.00273232, NaN, NaN, NaN, 0.0445584, "- N/A -   "
1.59, 48.00462, 0.00274898, NaN, NaN, NaN, 0.0433376, "- N/A -   "
1.6, 48.2405, 0.00276564, NaN, NaN, NaN, 0.0433376, "- N/A -   "
1.61, 48.47641, 0.00278231, NaN, NaN, NaN, 0.0433376, "- N/A -   "
1.62, 48.7123, 0.00280174, NaN, NaN, NaN, 0.04211683, "- N/A -   "
1.63, 48.9482, 0.0028184, NaN, NaN, NaN, 0.04211683, "- N/A -   "
1.64, 49.30204, 0.00283784, NaN, NaN, NaN, 0.04089605, "- N/A -   "
1.65, 49.5379, 0.00286005, NaN, NaN, NaN, 0.0384545, "- N/A -   "
1.66, 50.0097, 0.00287949, NaN, NaN, NaN, 0.0372337, "- N/A -   "
1.67, 50.2456, 0.00290171, NaN, NaN, NaN, 0.03601294, "- N/A -   "
1.68, 50.5995, 0.00292114, NaN, NaN, NaN, 0.0335714, "- N/A -   "
1.69, 50.9533, 0.00294058, NaN, NaN, NaN, 0.0323506, "- N/A -   "
1.7, 51.30715, 0.00296002, NaN, NaN, NaN, 0.0323506, "- N/A -   "
1.71, 51.543, 0.00297668, NaN, NaN, NaN, 0.03112983, "- N/A -   "
1.72, 51.89689, 0.002996115, NaN, NaN, NaN, 0.0299091, "- N/A -   "
1.73, 52.1328, 0.003012776, NaN, NaN, NaN, 0.0299091, "- N/A -   "
1.74, 52.36868, 0.003032213, NaN, NaN, NaN, 0.0299091, "- N/A -   "
1.75, 52.6046, 0.0030461, NaN, NaN, NaN, 0.0299091, "- N/A -   "
1.76, 52.9584, 0.003065534, NaN, NaN, NaN, 0.0286883, "- N/A -   "
1.77, 53.19431, 0.00308219, NaN, NaN, NaN, 0.0286883, "- N/A -   "
1.78, 53.4302, 0.003098855, NaN, NaN, NaN, 0.0299091, "- N/A -   "
1.79, 53.6661, 0.003115516, NaN, NaN, NaN, 0.0299091, "- N/A -   "
1.8, 53.902, 0.0031294, NaN, NaN, NaN, 0.0299091, "- N/A -   "
1.81, 54.13789, 0.00314606, NaN, NaN, NaN, 0.03112983, "- N/A -   "
1.82, 54.3738, 0.00315994, NaN, NaN, NaN, 0.03112983, "- N/A -   "
1.83, 54.6097, 0.0031766, NaN, NaN, NaN, 0.0323506, "- N/A -   "
1.84, 54.9635, 0.00319326, NaN, NaN, NaN, 0.0323506, "- N/A -   "
1.85, 55.1994, 0.00320715, NaN, NaN, NaN, 0.0323506, "- N/A -   "
1.86, 55.55326, 0.003226586, NaN, NaN, NaN, 0.0323506, "- N/A -   "
1.87, 55.6712, 0.003243246, NaN, NaN, NaN, 0.0323506, "- N/A -   "
1.88, 56.02505, 0.00325713, NaN, NaN, NaN, 0.0323506, "- N/A -   "
1.89, 56.143, 0.00327379, NaN, NaN, NaN, 0.0323506, "- N/A -   "
1.9, 56.4968, 0.00328767, NaN, NaN, NaN, 0.0335714, "- N/A -   "
1.91, 56.6148, 0.003304335, NaN, NaN, NaN, 0.0335714, "- N/A -   "
1.92, 56.85068, 0.00331822, NaN, NaN, NaN, 0.0347922, "- N/A -   "
1.93, 57.32247, 0.00333488, NaN, NaN, NaN, 0.0347922, "- N/A -   "
1.94, 57.44042, 0.00335154, NaN, NaN, NaN, 0.0347922, "- N/A -   "
1.95, 57.79426, 0.0033682, NaN, NaN, NaN, 0.0347922, "- N/A -   "
1.96, 57.91221, 0.00338486, NaN, NaN, NaN, 0.03601294, "- N/A -   "
1.97, 58.26605, 0.00340152, NaN, NaN, NaN, 0.03601294, "- N/A -   "
1.98, 58.5019, 0.003415405, NaN, NaN, NaN, 0.03601294, "- N/A -   "
1.99, 58.8558, 0.00343207, NaN, NaN, NaN, 0.03601294, "- N/A -   "
2, 59.2096, 0.0034515, NaN, NaN, NaN, 0.0347922, "- N/A -   "
2.01, 59.4455, 0.003468163, NaN, NaN, NaN, 0.0347922, "- N/A -   "
2.02, 59.68142, 0.00348482, NaN, NaN, NaN, 0.0347922, "- N/A -   "
2.03, 59.9173, 0.00350426, NaN, NaN, NaN, 0.0347922, "- N/A -   "
2.04, 60.15321, 0.00351814, NaN, NaN, NaN, 0.0347922, "- N/A -   "
2.05, 60.3891, 0.00353481, NaN, NaN, NaN, 0.03601294, "- N/A -   "
2.06, 60.625, 0.00354869, NaN, NaN, NaN, 0.0372337, "- N/A -   "
2.07, 60.97884, 0.00356257, NaN, NaN, NaN, 0.0372337, "- N/A -   "
2.08, 61.09679, 0.00357923, NaN, NaN, NaN, 0.0384545, "- N/A -   "
2.09, 61.3327, 0.00359034, NaN, NaN, NaN, 0.0396753, "- N/A -   "
2.1, 61.6865, 0.003607, NaN, NaN, NaN, 0.0396753, "- N/A -   "
2.11, 61.8045, 0.00361811, NaN, NaN, NaN, 0.04211683, "- N/A -   "
2.12, 62.0404, 0.00363477, NaN, NaN, NaN, 0.04211683, "- N/A -   "
2.13, 62.3942, 0.00365143, NaN, NaN, NaN, 0.0433376, "- N/A -   "
2.14, 62.5122, 0.00366531, NaN, NaN, NaN, 0.0433376, "- N/A -   "
2.15, 62.7481, 0.003681973, NaN, NaN, NaN, 0.0433376, "- N/A -   "
2.16, 63.2198, 0.00369863, NaN, NaN, NaN, 0.0433376, "- N/A -   "
2.17, 63.33779, 0.00371529, NaN, NaN, NaN, 0.0433376, "- N/A -   "
2.18, 63.5737, 0.00373195, NaN, NaN, NaN, 0.0445584, "- N/A -   "
2.19, 63.92753, 0.00374584, NaN, NaN, NaN, 0.0445584, "- N/A -   "
2.2, 64.16342, 0.0037625, NaN, NaN, NaN, 0.0445584, "- N/A -   "
2.21, 64.3993, 0.00377916, NaN, NaN, NaN, 0.0445584, "- N/A -   "
2.22, 64.6352, 0.00379582, NaN, NaN, NaN, 0.0445584, "- N/A -   "
2.23, 64.98906, 0.00381248, NaN, NaN, NaN, 0.0445584, "- N/A -   "
2.24, 65.3429, 0.00382914, NaN, NaN, NaN, 0.0445584, "- N/A -   "
2.25, 65.5788, 0.00385135, NaN, NaN, NaN, 0.0433376, "- N/A -   "
2.26, 65.93263, 0.00387079, NaN, NaN, NaN, 0.04211683, "- N/A -   "
2.27, 66.2865, 0.00389023, NaN, NaN, NaN, 0.0396753, "- N/A -   "
2.28, 66.64032, 0.00390967, NaN, NaN, NaN, 0.0384545, "- N/A -   "
2.29, 66.99416, 0.0039291, NaN, NaN, NaN, 0.0372337, "- N/A -   "
2.3, 67.23006, 0.00394854, NaN, NaN, NaN, 0.03601294, "- N/A -   "
2.31, 67.46596, 0.00396798, NaN, NaN, NaN, 0.03601294, "- N/A -   "
2.32, 67.81979, 0.00398464, NaN, NaN, NaN, 0.0347922, "- N/A -   "
2.33, 68.05569, 0.00400408, NaN, NaN, NaN, 0.0335714, "- N/A -   "
2.34, 68.40953, 0.00402351, NaN, NaN, NaN, 0.0323506, "- N/A -   "
2.35, 68.7634, 0.00404295, NaN, NaN, NaN, 0.0323506, "- N/A -   "
2.36, 68.9993, 0.00406239, NaN, NaN, NaN, 0.03112983, "- N/A -   "
2.37, 69.47106, 0.00407905, NaN, NaN, NaN, 0.0299091, "- N/A -   "
2.38, 69.707, 0.004095709, NaN, NaN, NaN, 0.0299091, "- N/A -   "
2.39, 69.94285, 0.00411237, NaN, NaN, NaN, 0.0299091, "- N/A -   "
2.4, 70.29669, 0.00413181, NaN, NaN, NaN, 0.0299091, "- N/A -   "
2.41, 70.5326, 0.00414569, NaN, NaN, NaN, 0.0299091, "- N/A -   "
2.42, 70.6505, 0.00416235, NaN, NaN, NaN, 0.0299091, "- N/A -   "
2.43, 71.00438, 0.004176235, NaN, NaN, NaN, 0.03112983, "- N/A -   "
2.44, 71.24027, 0.0041929, NaN, NaN, NaN, 0.0323506, "- N/A -   "
2.45, 71.4762, 0.00420956, NaN, NaN, NaN, 0.0323506, "- N/A -   "
2.46, 71.71206, 0.00422344, NaN, NaN, NaN, 0.0323506, "- N/A -   "
2.47, 72.06591, 0.00424288, NaN, NaN, NaN, 0.0323506, "- N/A -   "
2.48, 72.41975, 0.00425676, NaN, NaN, NaN, 0.0323506, "- N/A -   "
2.49, 72.65564, 0.00427064, NaN, NaN, NaN, 0.0335714, "- N/A -   "
2.5, 72.89154, 0.004287305, NaN, NaN, NaN, 0.0335714, "- N/A -   "
2.51, 73.2454, 0.00430397, NaN, NaN, NaN, 0.0335714, "- N/A -   "
2.52, 73.48127, 0.00432063, NaN, NaN, NaN, 0.0335714, "- N/A -   "
2.53, 73.83511, 0.00433729, NaN, NaN, NaN, 0.0335714, "- N/A -   "
2.54, 74.189, 0.00435672, NaN, NaN, NaN, 0.0335714, "- N/A -   "
2.55, 74.42485, 0.004373384, NaN, NaN, NaN, 0.0335714, "- N/A -   "
2.56, 74.7787, 0.00439004, NaN, NaN, NaN, 0.0323506, "- N/A -   "
2.57, 75.13254, 0.004406705, NaN, NaN, NaN, 0.0323506, "- N/A -   "
2.58, 75.25049, 0.004423366, NaN, NaN, NaN, 0.0323506, "- N/A -   "
2.59, 75.7223, 0.004442803, NaN, NaN, NaN, 0.0323506, "- N/A -   "
2.6, 75.95817, 0.00445946, NaN, NaN, NaN, 0.03112983, "- N/A -   "
2.61, 76.19407, 0.004476124, NaN, NaN, NaN, 0.03112983, "- N/A -   "
2.62, 76.5479, 0.004492785, NaN, NaN, NaN, 0.03112983, "- N/A -   "
2.63, 76.7838, 0.004506668, NaN, NaN, NaN, 0.0323506, "- N/A -   "
2.64, 77.0197, 0.004523329, NaN, NaN, NaN, 0.0335714, "- N/A -   "
2.65, 77.25559, 0.00453721, NaN, NaN, NaN, 0.0335714, "- N/A -   "
2.66, 77.72738, 0.004553873, NaN, NaN, NaN, 0.0347922, "- N/A -   "
2.67, 77.84533, 0.004567757, NaN, NaN, NaN, 0.0347922, "- N/A -   "
2.68, 78.08122, 0.004584417, NaN, NaN, NaN, 0.0347922, "- N/A -   "
2.69, 78.4351, 0.004598301, NaN, NaN, NaN, 0.03601294, "- N/A -   "
2.7, 78.67096, 0.004614962, NaN, NaN, NaN, 0.03601294, "- N/A -   "
2.71, 78.90686, 0.004631622, NaN, NaN, NaN, 0.03601294, "- N/A -   "
2.72, 79.14275, 0.00464828, NaN, NaN, NaN, 0.0372337, "- N/A -   "
2.73, 79.4966, 0.00466217, NaN, NaN, NaN, 0.0384545, "- N/A -   "
2.74, 79.73249, 0.00467605, NaN, NaN, NaN, 0.0396753, "- N/A -   "
2.75, 79.96838, 0.00468993, NaN, NaN, NaN, 0.0396753, "- N/A -   "
2.76, 80.20428, 0.004706594, NaN, NaN, NaN, 0.0396753, "- N/A -   "
2.77, 80.55813, 0.004723255, NaN, NaN, NaN, 0.04089605, "- N/A -   "
2.78, 80.794, 0.00473714, NaN, NaN, NaN, 0.04089605, "- N/A -   "
2.79, 81.0299, 0.004751022, NaN, NaN, NaN, 0.04211683, "- N/A -   "
2.8, 81.38376, 0.004767683, NaN, NaN, NaN, 0.04211683, "- N/A -   "
2.81, 81.61965, 0.00478434, NaN, NaN, NaN, 0.04211683, "- N/A -   "
2.82, 81.97349, 0.004801004, NaN, NaN, NaN, 0.04211683, "- N/A -   "
2.83, 82.20939, 0.00482044, NaN, NaN, NaN, 0.04211683, "- N/A -   "
2.84, 82.56323, 0.004837102, NaN, NaN, NaN, 0.04089605, "- N/A -   "
2.85, 82.79912, 0.004856539, NaN, NaN, NaN, 0.04089605, "- N/A -   "
2.86, 83.15297, 0.0048732, NaN, NaN, NaN, 0.0396753, "- N/A -   "
2.87, 83.50681, 0.00488986, NaN, NaN, NaN, 0.0396753, "- N/A -   "
2.88, 83.86065, 0.00490652, NaN, NaN, NaN, 0.0396753, "- N/A -   "
2.89, 84.09654, 0.004923181, NaN, NaN, NaN, 0.04089605, "- N/A -   "
2.9, 84.33244, 0.004937065, NaN, NaN, NaN, 0.04089605, "- N/A -   "
2.91, 84.68629, 0.004956502, NaN, NaN, NaN, 0.0396753, "- N/A -   "
2.92, 84.92217, 0.004973163, NaN, NaN, NaN, 0.0396753, "- N/A -   "
2.93, 85.15807, 0.0049926, NaN, NaN, NaN, 0.0396753, "- N/A -   "
2.94, 85.62987, 0.00500926, NaN, NaN, NaN, 0.0384545, "- N/A -   "
2.95, 85.9837, 0.005025921, NaN, NaN, NaN, 0.0384545, "- N/A -   "
2.96, 86.1017, 0.00504258, NaN, NaN, NaN, 0.0384545, "- N/A -   "
2.97, 86.57345, 0.005062019, NaN, NaN, NaN, 0.0384545, "- N/A -   "
2.98, 86.80934, 0.00507868, NaN, NaN, NaN, 0.0372337, "- N/A -   "
2.99, 87.16318, 0.005098116, NaN, NaN, NaN, 0.0372337, "- N/A -   "
3, 87.51702, 0.005114777, NaN, NaN, NaN, 0.03601294, "- N/A -   "
3.01, 87.75292, 0.005134214, NaN, NaN, NaN, 0.03601294, "- N/A -   "
3.02, 88.10676, 0.005150875, NaN, NaN, NaN, 0.0347922, "- N/A -   "
3.03, 88.4606, 0.00517031, NaN, NaN, NaN, 0.0347922, "- N/A -   "
3.04, 88.6965, 0.005186972, NaN, NaN, NaN, 0.0347922, "- N/A -   "
3.05, 89.16828, 0.005203633, NaN, NaN, NaN, 0.0335714, "- N/A -   "
3.06, 89.28623, 0.00522029, NaN, NaN, NaN, 0.0335714, "- N/A -   "
3.07, 89.52213, 0.00523695, NaN, NaN, NaN, 0.0335714, "- N/A -   "
3.08, 89.758, 0.005250838, NaN, NaN, NaN, 0.0347922, "- N/A -   "
3.09, 90.11186, 0.0052675, NaN, NaN, NaN, 0.0347922, "- N/A -   "
3.1, 90.34776, 0.005284159, NaN, NaN, NaN, 0.0347922, "- N/A -   "
3.11, 90.70161, 0.005303596, NaN, NaN, NaN, 0.0347922, "- N/A -   "
3.12, 91.05545, 0.00532303, NaN, NaN, NaN, 0.0335714, "- N/A -   "
3.13, 91.40929, 0.005339694, NaN, NaN, NaN, 0.0323506, "- N/A -   "
3.14, 91.76313, 0.00535913, NaN, NaN, NaN, 0.0323506, "- N/A -   "
3.15, 91.99903, 0.00537579, NaN, NaN, NaN, 0.0323506, "- N/A -   "
3.16, 92.23492, 0.00539245, NaN, NaN, NaN, 0.03112983, "- N/A -   "
3.17, 92.58876, 0.00540911, NaN, NaN, NaN, 0.03112983, "- N/A -   "
3.18, 92.94261, 0.005425773, NaN, NaN, NaN, 0.03112983, "- N/A -   "
3.19, 93.1785, 0.00544521, NaN, NaN, NaN, 0.03112983, "- N/A -   "
3.2, 93.53234, 0.005461871, NaN, NaN, NaN, 0.03112983, "- N/A -   "
3.21, 93.76824, 0.00547575, NaN, NaN, NaN, 0.03112983, "- N/A -   "
3.22, 94.0041, 0.00549242, NaN, NaN, NaN, 0.03112983, "- N/A -   "
3.23, 94.24, 0.00550908, NaN, NaN, NaN, 0.03112983, "- N/A -   "
3.24, 94.47592, 0.00552296, NaN, NaN, NaN, 0.0323506, "- N/A -   "
3.25, 94.7118, 0.00553962, NaN, NaN, NaN, 0.0323506, "- N/A -   "
3.26, 95.06567, 0.00555628, NaN, NaN, NaN, 0.0335714, "- N/A -   "
3.27, 95.30156, 0.00557016, NaN, NaN, NaN, 0.0335714, "- N/A -   "
3.28, 95.41951, 0.005584048, NaN, NaN, NaN, 0.0347922, "- N/A -   "
3.29, 95.7733, 0.00560349, NaN, NaN, NaN, 0.0347922, "- N/A -   "
3.3, 96.00924, 0.00561737, NaN, NaN, NaN, 0.0347922, "- N/A -   "
3.31, 96.36309, 0.00563403, NaN, NaN, NaN, 0.0347922, "- N/A -   "
3.32, 96.599, 0.00564791, NaN, NaN, NaN, 0.03601294, "- N/A -   "
3.33, 96.95282, 0.00566735, NaN, NaN, NaN, 0.03601294, "- N/A -   "
3.34, 97.18872, 0.00568401, NaN, NaN, NaN, 0.0347922, "- N/A -   "
3.35, 97.4246, 0.00570067, NaN, NaN, NaN, 0.0347922, "- N/A -   "
3.36, 97.6605, 0.00572011, NaN, NaN, NaN, 0.0347922, "- N/A -   "
3.37, 98.01435, 0.00573677, NaN, NaN, NaN, 0.0335714, "- N/A -   "
3.38, 98.3682, 0.00575343, NaN, NaN, NaN, 0.0335714, "- N/A -   "
3.39, 98.60408, 0.00577009, NaN, NaN, NaN, 0.0335714, "- N/A -   "
3.4, 98.9579, 0.005786751, NaN, NaN, NaN, 0.0335714, "- N/A -   "
3.41, 99.1938, 0.00580341, NaN, NaN, NaN, 0.0335714, "- N/A -   "
3.42, 99.42972, 0.005820072, NaN, NaN, NaN, 0.0347922, "- N/A -   "
3.43, 99.66561, 0.00583673, NaN, NaN, NaN, 0.0347922, "- N/A -   "
3.44, 99.9015, 0.00585062, NaN, NaN, NaN, 0.03601294, "- N/A -   "
3.45, 100.255, 0.0058645, NaN, NaN, NaN, 0.03601294, "- N/A -   "
3.46, 100.491, 0.00587838, NaN, NaN, NaN, 0.0372337, "- N/A -   "
3.47, 100.727, 0.00589227, NaN, NaN, NaN, 0.0384545, "- N/A -   "
3.48, 100.963, 0.00590615, NaN, NaN, NaN, 0.0396753, "- N/A -   "
3.49, 101.081, 0.00592281, NaN, NaN, NaN, 0.0396753, "- N/A -   "
3.5, 101.435, 0.00593947, NaN, NaN, NaN, 0.0396753, "- N/A -   "
3.51, 101.671, 0.005956133, NaN, NaN, NaN, 0.04089605, "- N/A -   "
3.52, 102.025, 0.005972794, NaN, NaN, NaN, 0.04089605, "- N/A -   "
3.53, 102.26, 0.00598945, NaN, NaN, NaN, 0.0396753, "- N/A -   "
3.54, 102.496, 0.00600611, NaN, NaN, NaN, 0.0396753, "- N/A -   "
3.55, 102.85, 0.006019998, NaN, NaN, NaN, 0.04089605, "- N/A -   "
3.56, 103.086, 0.006033882, NaN, NaN, NaN, 0.04211683, "- N/A -   "
3.57, 103.322, 0.00605332, NaN, NaN, NaN, 0.04211683, "- N/A -   "
3.58, 103.558, 0.006067203, NaN, NaN, NaN, 0.04211683, "- N/A -   "
3.59, 103.912, 0.006083864, NaN, NaN, NaN, 0.04211683, "- N/A -   "
3.6, 104.03, 0.00610052, NaN, NaN, NaN, 0.04211683, "- N/A -   "
3.61, 104.384, 0.006114408, NaN, NaN, NaN, 0.0445584, "- N/A -   "
3.62, 104.737, 0.006131068, NaN, NaN, NaN, 0.0445584, "- N/A -   "
3.63, 104.855, 0.006147729, NaN, NaN, NaN, 0.0445584, "- N/A -   "
3.64, 105.209, 0.006164389, NaN, NaN, NaN, 0.0445584, "- N/A -   "
3.65, 105.563, 0.00618105, NaN, NaN, NaN, 0.0445584, "- N/A -   "
3.66, 105.917, 0.006200487, NaN, NaN, NaN, 0.0445584, "- N/A -   "
3.67, 106.153, 0.00621715, NaN, NaN, NaN, 0.0433376, "- N/A -   "
3.68, 106.389, 0.006236585, NaN, NaN, NaN, 0.04211683, "- N/A -   "
3.69, 106.742, 0.006256022, NaN, NaN, NaN, 0.04211683, "- N/A -   "
3.7, 107.0963, 0.006272683, NaN, NaN, NaN, 0.04089605, "- N/A -   "
3.71, 107.3322, 0.00629212, NaN, NaN, NaN, 0.0396753, "- N/A -   "
3.72, 107.804, 0.006311557, NaN, NaN, NaN, 0.0384545, "- N/A -   "
3.73, 108.04, 0.006330994, NaN, NaN, NaN, 0.0372337, "- N/A -   "
3.74, 108.394, 0.006347655, NaN, NaN, NaN, 0.0372337, "- N/A -   "
3.75, 108.63, 0.006367092, NaN, NaN, NaN, 0.03601294, "- N/A -   "
3.76, 108.866, 0.006386529, NaN, NaN, NaN, 0.0347922, "- N/A -   "
3.77, 109.3373, 0.006405967, NaN, NaN, NaN, 0.0335714, "- N/A -   "
3.78, 109.5732, 0.006425404, NaN, NaN, NaN, 0.0335714, "- N/A -   "
3.79, 109.8091, 0.00644206, NaN, NaN, NaN, 0.0335714, "- N/A -   "
3.8, 110.163, 0.006458725, NaN, NaN, NaN, 0.0323506, "- N/A -   "
3.81, 110.517, 0.006478162, NaN, NaN, NaN, 0.03112983, "- N/A -   "
3.82, 110.753, 0.006494823, NaN, NaN, NaN, 0.03112983, "- N/A -   "
3.83, 110.871, 0.00651148, NaN, NaN, NaN, 0.0323506, "- N/A -   "
3.84, 111.224, 0.006525367, NaN, NaN, NaN, 0.0323506, "- N/A -   "
3.85, 111.46, 0.00653925, NaN, NaN, NaN, 0.0335714, "- N/A -   "
3.86, 111.696, 0.006555911, NaN, NaN, NaN, 0.0335714, "- N/A -   "
3.87, 111.932, 0.006572572, NaN, NaN, NaN, 0.0335714, "- N/A -   "
3.88, 112.286, 0.006589232, NaN, NaN, NaN, 0.0335714, "- N/A -   "
3.89, 112.522, 0.006605893, NaN, NaN, NaN, 0.0335714, "- N/A -   "
3.9, 112.758, 0.00662533, NaN, NaN, NaN, 0.0323506, "- N/A -   "
3.91, 113.112, 0.00664199, NaN, NaN, NaN, 0.0323506, "- N/A -   "
3.92, 113.348, 0.006661428, NaN, NaN, NaN, 0.0323506, "- N/A -   "
3.93, 113.583, 0.006678088, NaN, NaN, NaN, 0.0323506, "- N/A -   "
3.94, 113.937, 0.006694749, NaN, NaN, NaN, 0.0323506, "- N/A -   "
3.95, 114.173, 0.00671141, NaN, NaN, NaN, 0.0323506, "- N/A -   "
3.96, 114.527, 0.00672807, NaN, NaN, NaN, 0.03112983, "- N/A -   "
3.97, 114.763, 0.006747507, NaN, NaN, NaN, 0.0299091, "- N/A -   "
3.98, 114.999, 0.006766944, NaN, NaN, NaN, 0.0299091, "- N/A -   "
3.99, 115.353, 0.006783605, NaN, NaN, NaN, 0.0286883, "- N/A -   "
4, 115.706, 0.00680027, NaN, NaN, NaN, 0.0299091, "- N/A -   "
4.01, 115.824, 0.006814149, NaN, NaN, NaN, 0.0299091, "- N/A -   "
4.02, 116.06, 0.006828033, NaN, NaN, NaN, 0.03112983, "- N/A -   "
4.03, 116.296, 0.00684469, NaN, NaN, NaN, 0.03112983, "- N/A -   "
4.04, 116.5321, 0.00685858, NaN, NaN, NaN, 0.0323506, "- N/A -   "
4.05, 116.768, 0.006875238, NaN, NaN, NaN, 0.0323506, "- N/A -   "
4.06, 117.004, 0.0068919, NaN, NaN, NaN, 0.0335714, "- N/A -   "
4.07, 117.24, 0.006905782, NaN, NaN, NaN, 0.0335714, "- N/A -   "
4.08, 117.476, 0.00692244, NaN, NaN, NaN, 0.0347922, "- N/A -   "
4.09, 117.83, 0.006936326, NaN, NaN, NaN, 0.0347922, "- N/A -   "
4.1, 117.947, 0.006952987, NaN, NaN, NaN, 0.0347922, "- N/A -   "
4.11, 118.065, 0.00696687, NaN, NaN, NaN, 0.03601294, "- N/A -   "
4.12, 118.419, 0.00698075, NaN, NaN, NaN, 0.0372337, "- N/A -   "
4.13, 118.537, 0.006994638, NaN, NaN, NaN, 0.0384545, "- N/A -   "
4.14, 118.7731, 0.00700852, NaN, NaN, NaN, 0.0396753, "- N/A -   "
4.15, 119.009, 0.00702241, NaN, NaN, NaN, 0.04089605, "- N/A -   "
4.16, 119.127, 0.00703907, NaN, NaN, NaN, 0.04211683, "- N/A -   "
4.17, 119.599, 0.00705573, NaN, NaN, NaN, 0.04211683, "- N/A -   "
4.18, 119.599, 0.00706683, NaN, NaN, NaN, 0.0433376, "- N/A -   "
4.19, 119.953, 0.007083494, NaN, NaN, NaN, 0.0445584, "- N/A -   "
4.2, 120.188, 0.00709738, NaN, NaN, NaN, 0.0445584, "- N/A -   "
4.21, 120.306, 0.00711126, NaN, NaN, NaN, 0.04577916, "- N/A -   "
4.22, 120.66, 0.00712515, NaN, NaN, NaN, 0.04699994, "- N/A -   "
4.23, 120.778, 0.00714458, NaN, NaN, NaN, 0.04699994, "- N/A -   "
4.24, 121.014, 0.00715847, NaN, NaN, NaN, 0.04699994, "- N/A -   "
4.25, 121.25, 0.007177904, NaN, NaN, NaN, 0.04699994, "- N/A -   "
4.26, 121.604, 0.00719179, NaN, NaN, NaN, 0.04699994, "- N/A -   "
4.27, 121.958, 0.00720845, NaN, NaN, NaN, 0.04699994, "- N/A -   "
4.28, 122.076, 0.00722789, NaN, NaN, NaN, 0.04577916, "- N/A -   "
4.29, 122.429, 0.00724732, NaN, NaN, NaN, 0.0445584, "- N/A -   "
4.3, 122.783, 0.007263983, NaN, NaN, NaN, 0.0445584, "- N/A -   "
4.31, 123.019, 0.00728342, NaN, NaN, NaN, 0.0445584, "- N/A -   "
4.32, 123.255, 0.00730286, NaN, NaN, NaN, 0.0433376, "- N/A -   "
4.33, 123.609, 0.00731952, NaN, NaN, NaN, 0.04211683, "- N/A -   "
4.34, 123.845, 0.00733896, NaN, NaN, NaN, 0.04089605, "- N/A -   "
4.35, 124.199, 0.00735839, NaN, NaN, NaN, 0.0396753, "- N/A -   "
4.36, 124.435, 0.00737783, NaN, NaN, NaN, 0.0396753, "- N/A -   "
4.37, 124.906, 0.00739449, NaN, NaN, NaN, 0.0384545, "- N/A -   "
4.38, 125.142, 0.00741393, NaN, NaN, NaN, 0.0384545, "- N/A -   "
4.39, 125.378, 0.00743336, NaN, NaN, NaN, 0.0372337, "- N/A -   "
4.4, 125.732, 0.00745003, NaN, NaN, NaN, 0.03601294, "- N/A -   "
4.41, 125.85, 0.00746946, NaN, NaN, NaN, 0.03601294, "- N/A -   "
4.42, 126.204, 0.00748335, NaN, NaN, NaN, 0.03601294, "- N/A -   "
4.43, 126.44, 0.007500007, NaN, NaN, NaN, 0.03601294, "- N/A -   "
4.44, 126.676, 0.00751944, NaN, NaN, NaN, 0.0347922, "- N/A -   "
4.45, 126.911, 0.007536105, NaN, NaN, NaN, 0.0347922, "- N/A -   "
4.46, 127.265, 0.00755277, NaN, NaN, NaN, 0.0347922, "- N/A -   "
4.47, 127.501, 0.0075722, NaN, NaN, NaN, 0.0347922, "- N/A -   "
4.48, 127.737, 0.007588863, NaN, NaN, NaN, 0.0335714, "- N/A -   "
4.49, 127.973, 0.007605524, NaN, NaN, NaN, 0.0335714, "- N/A -   "
4.5, 128.209, 0.007624961, NaN, NaN, NaN, 0.0335714, "- N/A -   "
4.51, 128.563, 0.00764162, NaN, NaN, NaN, 0.0323506, "- N/A -   "
4.52, 128.799, 0.007658282, NaN, NaN, NaN, 0.0323506, "- N/A -   "
4.53, 129.152, 0.007677719, NaN, NaN, NaN, 0.03112983, "- N/A -   "
4.54, 129.506, 0.00769716, NaN, NaN, NaN, 0.0299091, "- N/A -   "
4.55, 129.742, 0.007716594, NaN, NaN, NaN, 0.0286883, "- N/A -   "
4.56, 130.096, 0.00773325, NaN, NaN, NaN, 0.0286883, "- N/A -   "
4.57, 130.214, 0.00774991, NaN, NaN, NaN, 0.0286883, "- N/A -   "
4.58, 130.568, 0.007766575, NaN, NaN, NaN, 0.0286883, "- N/A -   "
4.59, 130.6858, 0.007783236, NaN, NaN, NaN, 0.0286883, "- N/A -   "
4.6, 130.922, 0.007799896, NaN, NaN, NaN, 0.0286883, "- N/A -   "
4.61, 131.276, 0.007816557, NaN, NaN, NaN, 0.0286883, "- N/A -   "
4.62, 131.511, 0.007833217, NaN, NaN, NaN, 0.0286883, "- N/A -   "
4.63, 131.629, 0.007852655, NaN, NaN, NaN, 0.0286883, "- N/A -   "
4.64, 132.101, 0.007866538, NaN, NaN, NaN, 0.0286883, "- N/A -   "
4.65, 132.219, 0.007883199, NaN, NaN, NaN, 0.0286883, "- N/A -   "
4.66, 132.455, 0.007899859, NaN, NaN, NaN, 0.0299091, "- N/A -   "
4.67, 132.809, 0.007913743, NaN, NaN, NaN, 0.0299091, "- N/A -   "
4.68, 133.045, 0.007930404, NaN, NaN, NaN, 0.0299091, "- N/A -   "
4.69, 133.281, 0.007947064, NaN, NaN, NaN, 0.03112983, "- N/A -   "
4.7, 133.517, 0.007960948, NaN, NaN, NaN, 0.03112983, "- N/A -   "
4.71, 133.634, 0.007974831, NaN, NaN, NaN, 0.0323506, "- N/A -   "
4.72, 133.87, 0.007988716, NaN, NaN, NaN, 0.0335714, "- N/A -   "
4.73, 134.106, 0.008005376, NaN, NaN, NaN, 0.0335714, "- N/A -   "
4.74, 134.342, 0.00801926, NaN, NaN, NaN, 0.0347922, "- N/A -   "
4.75, 134.46, 0.008033143, NaN, NaN, NaN, 0.03601294, "- N/A -   "
4.76, 134.814, 0.008049804, NaN, NaN, NaN, 0.0372337, "- N/A -   "
4.77, 135.05, 0.008063688, NaN, NaN, NaN, 0.0372337, "- N/A -   "
4.78, 135.1678, 0.008077571, NaN, NaN, NaN, 0.0384545, "- N/A -   "
4.79, 135.4037, 0.008094232, NaN, NaN, NaN, 0.0384545, "- N/A -   "
4.8, 135.64, 0.008110892, NaN, NaN, NaN, 0.0396753, "- N/A -   "
4.81, 135.875, 0.008124776, NaN, NaN, NaN, 0.0396753, "- N/A -   "
4.82, 136.111, 0.00813866, NaN, NaN, NaN, 0.04089605, "- N/A -   "
4.83, 136.347, 0.00815532, NaN, NaN, NaN, 0.04089605, "- N/A -   "
4.84, 136.583, 0.008171981, NaN, NaN, NaN, 0.04211683, "- N/A -   "
4.85, 136.819, 0.008185865, NaN, NaN, NaN, 0.04211683, "- N/A -   "
4.86, 137.055, 0.008202525, NaN, NaN, NaN, 0.0433376, "- N/A -   "
4.87, 137.291, 0.008216409, NaN, NaN, NaN, 0.0445584, "- N/A -   "
4.88, 137.6447, 0.008233069, NaN, NaN, NaN, 0.0433376, "- N/A -   "
4.89, 137.763, 0.00824973, NaN, NaN, NaN, 0.0433376, "- N/A -   "
4.9, 138.116, 0.008263614, NaN, NaN, NaN, 0.0445584, "- N/A -   "
4.91, 138.352, 0.008280274, NaN, NaN, NaN, 0.0445584, "- N/A -   "
4.92, 138.588, 0.008299711, NaN, NaN, NaN, 0.0445584, "- N/A -   "
4.93, 138.942, 0.00831637, NaN, NaN, NaN, 0.0445584, "- N/A -   "
4.94, 139.178, 0.008330256, NaN, NaN, NaN, 0.0445584, "- N/A -   "
4.95, 139.414, 0.008346916, NaN, NaN, NaN, 0.0445584, "- N/A -   "
4.96, 139.768, 0.008366354, NaN, NaN, NaN, 0.0433376, "- N/A -   "
4.97, 140.004, 0.008383014, NaN, NaN, NaN, 0.0433376, "- N/A -   "
4.98, 140.24, 0.008402451, NaN, NaN, NaN, 0.04211683, "- N/A -   "
4.99, 140.593, 0.008416335, NaN, NaN, NaN, 0.0433376, "- N/A -   "
5, 140.829, 0.008435773, NaN, NaN, NaN, 0.04211683, "- N/A -   "
5.01, 141.065, 0.008452433, NaN, NaN, NaN, 0.04211683, "- N/A -   "
5.02, 141.419, 0.008469094, NaN, NaN, NaN, 0.04211683, "- N/A -   "
5.03, 141.773, 0.008485754, NaN, NaN, NaN, 0.04211683, "- N/A -   "
5.04, 142.009, 0.008505192, NaN, NaN, NaN, 0.04211683, "- N/A -   "
5.05, 142.3626, 0.008521851, NaN, NaN, NaN, 0.04089605, "- N/A -   "
5.06, 142.5985, 0.008541289, NaN, NaN, NaN, 0.04089605, "- N/A -   "
5.07, 142.8344, 0.008557949, NaN, NaN, NaN, 0.0396753, "- N/A -   "
5.08, 143.07, 0.008577387, NaN, NaN, NaN, 0.0384545, "- N/A -   "
5.09, 143.542, 0.008599601, NaN, NaN, NaN, 0.0372337, "- N/A -   "
5.1, 143.896, 0.008616261, NaN, NaN, NaN, 0.03601294, "- N/A -   "
5.11, 144.132, 0.008635699, NaN, NaN, NaN, 0.0347922, "- N/A -   "
5.12, 144.368, 0.00865514, NaN, NaN, NaN, 0.0335714, "- N/A -   "
5.13, 144.8395, 0.008674573, NaN, NaN, NaN, 0.0335714, "- N/A -   "
5.14, 145.0754, 0.008691234, NaN, NaN, NaN, 0.0323506, "- N/A -   "
5.15, 145.429, 0.00871067, NaN, NaN, NaN, 0.03112983, "- N/A -   "
5.16, 145.665, 0.008730108, NaN, NaN, NaN, 0.03112983, "- N/A -   "
5.17, 146.019, 0.008749546, NaN, NaN, NaN, 0.0286883, "- N/A -   "
5.18, 146.3728, 0.008766206, NaN, NaN, NaN, 0.0286883, "- N/A -   "
5.19, 146.6087, 0.008782866, NaN, NaN, NaN, 0.0286883, "- N/A -   "
5.2, 146.8446, 0.008796751, NaN, NaN, NaN, 0.0299091, "- N/A -   "
5.21, 147.198, 0.008816187, NaN, NaN, NaN, 0.0286883, "- N/A -   "
5.22, 147.434, 0.008835625, NaN, NaN, NaN, 0.0286883, "- N/A -   "
5.23, 147.67, 0.008849508, NaN, NaN, NaN, 0.0286883, "- N/A -   "
5.24, 147.788, 0.008866169, NaN, NaN, NaN, 0.0299091, "- N/A -   "
5.25, 148.142, 0.008880053, NaN, NaN, NaN, 0.0299091, "- N/A -   "
5.26, 148.378, 0.008896713, NaN, NaN, NaN, 0.0299091, "- N/A -   "
5.27, 148.6138, 0.008913374, NaN, NaN, NaN, 0.0299091, "- N/A -   "
5.28, 148.8497, 0.008927258, NaN, NaN, NaN, 0.03112983, "- N/A -   "
5.29, 149.0856, 0.008946694, NaN, NaN, NaN, 0.03112983, "- N/A -   "
5.3, 149.439, 0.008960579, NaN, NaN, NaN, 0.03112983, "- N/A -   "
5.31, 149.557, 0.008974463, NaN, NaN, NaN, 0.0323506, "- N/A -   "
5.32, 149.911, 0.008993899, NaN, NaN, NaN, 0.03112983, "- N/A -   "
5.33, 150.265, 0.00901056, NaN, NaN, NaN, 0.0323506, "- N/A -   "
5.34, 150.383, 0.00902722, NaN, NaN, NaN, 0.0323506, "- N/A -   "
5.35, 150.619, 0.0090411, NaN, NaN, NaN, 0.0323506, "- N/A -   "
5.36, 150.855, 0.009054988, NaN, NaN, NaN, 0.0335714, "- N/A -   "
5.37, 151.091, 0.009071649, NaN, NaN, NaN, 0.0347922, "- N/A -   "
5.38, 151.445, 0.009085532, NaN, NaN, NaN, 0.0347922, "- N/A -   "
5.39, 151.5625, 0.009102193, NaN, NaN, NaN, 0.03601294, "- N/A -   "
5.4, 151.916, 0.009116077, NaN, NaN, NaN, 0.03601294, "- N/A -   "
5.41, 152.152, 0.009132737, NaN, NaN, NaN, 0.0372337, "- N/A -   "
5.42, 152.388, 0.009149398, NaN, NaN, NaN, 0.03601294, "- N/A -   "
5.43, 152.742, 0.009166058, NaN, NaN, NaN, 0.03601294, "- N/A -   "
5.44, 152.978, 0.009182719, NaN, NaN, NaN, 0.03601294, "- N/A -   "
5.45, 153.214, 0.009199379, NaN, NaN, NaN, 0.03601294, "- N/A -   "
5.46, 153.568, 0.009216039, NaN, NaN, NaN, 0.03601294, "- N/A -   "
5.47, 153.8035, 0.0092327, NaN, NaN, NaN, 0.03601294, "- N/A -   "
5.48, 153.921, 0.00924936, NaN, NaN, NaN, 0.0372337, "- N/A -   "
5.49, 154.2753, 0.009260467, NaN, NaN, NaN, 0.0384545, "- N/A -   "
5.5, 154.511, 0.009277128, NaN, NaN, NaN, 0.0384545, "- N/A -   "
5.51, 154.747, 0.009293789, NaN, NaN, NaN, 0.0396753, "- N/A -   "
5.52, 154.983, 0.009307672, NaN, NaN, NaN, 0.0396753, "- N/A -   "
5.53, 155.219, 0.009321556, NaN, NaN, NaN, 0.04089605, "- N/A -   "
5.54, 155.455, 0.009338217, NaN, NaN, NaN, 0.04089605, "- N/A -   "
5.55, 155.691, 0.009352101, NaN, NaN, NaN, 0.04211683, "- N/A -   "
5.56, 156.0445, 0.00936876, NaN, NaN, NaN, 0.04211683, "- N/A -   "
5.57, 156.2804, 0.009385422, NaN, NaN, NaN, 0.0433376, "- N/A -   "
5.58, 156.398, 0.009399305, NaN, NaN, NaN, 0.0433376, "- N/A -   "
5.59, 156.634, 0.009413189, NaN, NaN, NaN, 0.0445584, "- N/A -   "
5.6, 156.87, 0.00942985, NaN, NaN, NaN, 0.0445584, "- N/A -   "
5.61, 157.106, 0.009443733, NaN, NaN, NaN, 0.04577916, "- N/A -   "
5.62, 157.46, 0.009460394, NaN, NaN, NaN, 0.04577916, "- N/A -   "
5.63, 157.696, 0.009479831, NaN, NaN, NaN, 0.04577916, "- N/A -   "
5.64, 158.0496, 0.009496491, NaN, NaN, NaN, 0.0445584, "- N/A -   "
5.65, 158.403, 0.009515929, NaN, NaN, NaN, 0.0433376, "- N/A -   "
5.66, 158.7573, 0.009532589, NaN, NaN, NaN, 0.0433376, "- N/A -   "
5.67, 158.9932, 0.00954925, NaN, NaN, NaN, 0.0433376, "- N/A -   "
5.68, 159.347, 0.009571464, NaN, NaN, NaN, 0.04211683, "- N/A -   "
5.69, 159.701, 0.009588124, NaN, NaN, NaN, 0.04089605, "- N/A -   "
5.7, 160.055, 0.009610338, NaN, NaN, NaN, 0.0384545, "- N/A -   "
5.71, 160.409, 0.009629776, NaN, NaN, NaN, 0.0372337, "- N/A -   "
5.72, 160.7624, 0.00964921, NaN, NaN, NaN, 0.03601294, "- N/A -   "
5.73, 161.116, 0.00966865, NaN, NaN, NaN, 0.0347922, "- N/A -   "
5.74, 161.352, 0.009688087, NaN, NaN, NaN, 0.0347922, "- N/A -   "
5.75, 161.706, 0.009704747, NaN, NaN, NaN, 0.0335714, "- N/A -   "
5.76, 161.942, 0.009724185, NaN, NaN, NaN, 0.0323506, "- N/A -   "
5.77, 162.296, 0.00974362, NaN, NaN, NaN, 0.03112983, "- N/A -   "
5.78, 162.532, 0.009760283, NaN, NaN, NaN, 0.03112983, "- N/A -   "
5.79, 162.885, 0.009776942, NaN, NaN, NaN, 0.03112983, "- N/A -   "
5.8, 163.121, 0.00979638, NaN, NaN, NaN, 0.0299091, "- N/A -   "
5.81, 163.357, 0.00981304, NaN, NaN, NaN, 0.0299091, "- N/A -   "
5.82, 163.711, 0.009829701, NaN, NaN, NaN, 0.0299091, "- N/A -   "
5.83, 163.947, 0.009846362, NaN, NaN, NaN, 0.03112983, "- N/A -   "
5.84, 164.183, 0.009863023, NaN, NaN, NaN, 0.03112983, "- N/A -   "
5.85, 164.419, 0.009874129, NaN, NaN, NaN, 0.0323506, "- N/A -   "
5.86, 164.655, 0.00989079, NaN, NaN, NaN, 0.0323506, "- N/A -   "
5.87, 164.891, 0.009904673, NaN, NaN, NaN, 0.0335714, "- N/A -   "
5.88, 165.126, 0.009918557, NaN, NaN, NaN, 0.0347922, "- N/A -   "
5.89, 165.362, 0.009935218, NaN, NaN, NaN, 0.0347922, "- N/A -   "
5.9, 165.598, 0.009949101, NaN, NaN, NaN, 0.03601294, "- N/A -   "
5.91, 165.7162, 0.00996576, NaN, NaN, NaN, 0.03601294, "- N/A -   "
5.92, 166.07, 0.009982423, NaN, NaN, NaN, 0.0372337, "- N/A -   "
5.93, 166.306, 0.009996306, NaN, NaN, NaN, 0.0372337, "- N/A -   "
5.94, 166.66, 0.010013, NaN, NaN, NaN, 0.0372337, "- N/A -   "
5.95, 166.896, 0.0100324, NaN, NaN, NaN, 0.03601294, "- N/A -   "
[...]
28.43, 1046.75, 0.0475158, NaN, NaN, NaN, 0.0286883, "- N/A -   "
28.47, 1048.78, 0.0475852, NaN, NaN, NaN, 0.0274675, "- N/A -   "
28.51, 1050.45, 0.04765184, NaN, NaN, NaN, 0.0274675, "- N/A -   "
28.55, 1052.23, 0.0477157, NaN, NaN, NaN, 0.0286883, "- N/A -   "
28.59, 1053.78, 0.047774, NaN, NaN, NaN, 0.0323506, "- N/A -   "
28.63, 1055.33, 0.04783233, NaN, NaN, NaN, 0.0372337, "- N/A -   "
28.67, 1056.77, 0.0478906, NaN, NaN, NaN, 0.04089605, "- N/A -   "
28.71, 1058.32, 0.0479462, NaN, NaN, NaN, 0.0445584, "- N/A -   "
28.75, 1059.99, 0.0480128, NaN, NaN, NaN, 0.0445584, "- N/A -   "
28.79, 1062.01, 0.04807946, NaN, NaN, NaN, 0.0445584, "- N/A -   "
28.83, 1063.8, 0.0481433, NaN, NaN, NaN, 0.04577916, "- N/A -   "
28.87, 1065.71, 0.04821552, NaN, NaN, NaN, 0.0433376, "- N/A -   "
28.91, 1067.62, 0.0482877, NaN, NaN, NaN, 0.04211683, "- N/A -   "
28.95, 1069.76, 0.0483627, NaN, NaN, NaN, 0.0372337, "- N/A -   "
28.99, 1072.03, 0.04844599, NaN, NaN, NaN, 0.0299091, "- N/A -   "
29.03, 1073.94, 0.04851541, NaN, NaN, NaN, 0.0286883, "- N/A -   "
29.07, 1075.61, 0.0485793, NaN, NaN, NaN, 0.03112983, "- N/A -   "
29.11, 1077.28, 0.0486404, NaN, NaN, NaN, 0.0323506, "- N/A -   "
29.15, 1079.07, 0.048707, NaN, NaN, NaN, 0.0335714, "- N/A -   "
29.19, 1080.97, 0.0487736, NaN, NaN, NaN, 0.0323506, "- N/A -   "
29.23, 1082.64, 0.0488375, NaN, NaN, NaN, 0.0347922, "- N/A -   "
29.27, 1084.31, 0.0488958, NaN, NaN, NaN, 0.0372337, "- N/A -   "
29.31, 1086.1, 0.0489597, NaN, NaN, NaN, 0.0384545, "- N/A -   "
29.35, 1087.89, 0.04902633, NaN, NaN, NaN, 0.0384545, "- N/A -   "
29.39, 1089.44, 0.04908742, NaN, NaN, NaN, 0.04089605, "- N/A -   "
29.43, 1091.11, 0.04914851, NaN, NaN, NaN, 0.0433376, "- N/A -   "
29.47, 1092.9, 0.0492124, NaN, NaN, NaN, 0.0445584, "- N/A -   "
29.51, 1094.69, 0.04928179, NaN, NaN, NaN, 0.0445584, "- N/A -   "
29.55, 1096.95, 0.04935954, NaN, NaN, NaN, 0.0384545, "- N/A -   "
29.59, 1099.22, 0.0494401, NaN, NaN, NaN, 0.0323506, "- N/A -   "
29.63, 1101.25, 0.04951504, NaN, NaN, NaN, 0.0299091, "- N/A -   "
29.67, 1103.15, 0.0495872, NaN, NaN, NaN, 0.0274675, "- N/A -   "
29.71, 1104.94, 0.0496511, NaN, NaN, NaN, 0.0274675, "- N/A -   "
29.75, 1106.732, 0.049715, NaN, NaN, NaN, 0.0299091, "- N/A -   "
29.79, 1108.16, 0.0497733, NaN, NaN, NaN, 0.0323506, "- N/A -   "
29.83, 1109.83, 0.0498316, NaN, NaN, NaN, 0.03601294, "- N/A -   "
29.87, 1111.74, 0.049901, NaN, NaN, NaN, 0.0347922, "- N/A -   "
29.91, 1113.768, 0.0499732, NaN, NaN, NaN, 0.0335714, "- N/A -   "
29.95, 1115.56, 0.05003707, NaN, NaN, NaN, 0.0335714, "- N/A -   "
29.99, 1116.99, 0.05009538, NaN, NaN, NaN, 0.0372337, "- N/A -   "
30.03, 1118.538, 0.05015369, NaN, NaN, NaN, 0.04089605, "- N/A -   "
30.07, 1120.09, 0.050212, NaN, NaN, NaN, 0.0445584, "- N/A -   "
30.11, 1121.88, 0.05027309, NaN, NaN, NaN, 0.04699994, "- N/A -   "
30.15, 1123.785, 0.0503453, NaN, NaN, NaN, 0.0445584, "- N/A -   "
30.19, 1125.81, 0.0504175, NaN, NaN, NaN, 0.04211683, "- N/A -   "
30.23, 1127.84, 0.05048968, NaN, NaN, NaN, 0.0396753, "- N/A -   "
30.27, 1129.867, 0.0505619, NaN, NaN, NaN, 0.0372337, "- N/A -   "
30.31, 1131.775, 0.0506313, NaN, NaN, NaN, 0.03601294, "- N/A -   "
30.35, 1133.56, 0.0507007, NaN, NaN, NaN, 0.0347922, "- N/A -   "
30.39, 1135.35, 0.05077013, NaN, NaN, NaN, 0.0347922, "- N/A -   "
30.43, 1137.14, 0.050834, NaN, NaN, NaN, 0.0347922, "- N/A -   "
30.47, 1138.93, 0.0509006, NaN, NaN, NaN, 0.0347922, "- N/A -   "
30.51, 1140.72, 0.05096728, NaN, NaN, NaN, 0.03601294, "- N/A -   "
30.55, 1142.63, 0.05103392, NaN, NaN, NaN, 0.0347922, "- N/A -   "
30.59, 1144.654, 0.0511061, NaN, NaN, NaN, 0.0323506, "- N/A -   "
30.63, 1146.32, 0.0511728, NaN, NaN, NaN, 0.0323506, "- N/A -   "
30.67, 1148.11, 0.0512394, NaN, NaN, NaN, 0.0323506, "- N/A -   "
30.71, 1149.782, 0.0513033, NaN, NaN, NaN, 0.0347922, "- N/A -   "
30.75, 1151.57, 0.05136158, NaN, NaN, NaN, 0.0372337, "- N/A -   "
30.79, 1153.121, 0.0514254, NaN, NaN, NaN, 0.04089605, "- N/A -   "
30.83, 1154.91, 0.0514893, NaN, NaN, NaN, 0.04089605, "- N/A -   "
30.87, 1156.82, 0.05155595, NaN, NaN, NaN, 0.04089605, "- N/A -   "
30.91, 1158.37, 0.05161704, NaN, NaN, NaN, 0.0433376, "- N/A -   "
30.95, 1160.4, 0.0516865, NaN, NaN, NaN, 0.04211683, "- N/A -   "
30.99, 1162.42, 0.0517587, NaN, NaN, NaN, 0.0396753, "- N/A -   "
31.03, 1164.45, 0.0518364, NaN, NaN, NaN, 0.0347922, "- N/A -   "
31.07, 1166.358, 0.0519086, NaN, NaN, NaN, 0.0323506, "- N/A -   "
31.11, 1168.15, 0.0519725, NaN, NaN, NaN, 0.0335714, "- N/A -   "
31.15, 1169.94, 0.0520391, NaN, NaN, NaN, 0.0335714, "- N/A -   "
31.19, 1171.84, 0.0521085, NaN, NaN, NaN, 0.0323506, "- N/A -   "
31.23, 1173.63, 0.0521779, NaN, NaN, NaN, 0.03112983, "- N/A -   "
31.27, 1175.54, 0.05224736, NaN, NaN, NaN, 0.0299091, "- N/A -   "
31.31, 1177.45, 0.052314, NaN, NaN, NaN, 0.0299091, "- N/A -   "
31.35, 1179.118, 0.0523779, NaN, NaN, NaN, 0.0323506, "- N/A -   "
31.39, 1180.67, 0.0524362, NaN, NaN, NaN, 0.03601294, "- N/A -   "
31.43, 1181.98, 0.0524917, NaN, NaN, NaN, 0.04089605, "- N/A -   "
31.47, 1183.53, 0.05254725, NaN, NaN, NaN, 0.0445584, "- N/A -   "
31.51, 1185.2, 0.0526056, NaN, NaN, NaN, 0.0494415, "- N/A -   "
31.55, 1186.87, 0.05266943, NaN, NaN, NaN, 0.0494415, "- N/A -   "
31.59, 1188.78, 0.05273885, NaN, NaN, NaN, 0.0482207, "- N/A -   "
31.63, 1191.04, 0.0528194, NaN, NaN, NaN, 0.04211683, "- N/A -   "
31.67, 1192.95, 0.0528943, NaN, NaN, NaN, 0.0384545, "- N/A -   "
31.71, 1194.86, 0.0529665, NaN, NaN, NaN, 0.03601294, "- N/A -   "
31.75, 1196.89, 0.05303874, NaN, NaN, NaN, 0.0335714, "- N/A -   "
31.79, 1198.79, 0.0531082, NaN, NaN, NaN, 0.0335714, "- N/A -   "
31.83, 1200.58, 0.05318035, NaN, NaN, NaN, 0.03112983, "- N/A -   "
31.87, 1202.49, 0.053247, NaN, NaN, NaN, 0.0299091, "- N/A -   "
31.91, 1204.28, 0.0533136, NaN, NaN, NaN, 0.0299091, "- N/A -   "
31.95, 1205.95, 0.0533831, NaN, NaN, NaN, 0.0286883, "- N/A -   "
31.99, 1207.74, 0.0534414, NaN, NaN, NaN, 0.0323506, "- N/A -   "
32.03, 1209.29, 0.05349968, NaN, NaN, NaN, 0.03601294, "- N/A -   "
32.07, 1210.6, 0.05355799, NaN, NaN, NaN, 0.04089605, "- N/A -   "
32.11, 1212.27, 0.0536163, NaN, NaN, NaN, 0.0433376, "- N/A -   "
32.15, 1213.94, 0.05368017, NaN, NaN, NaN, 0.0445584, "- N/A -   "
32.19, 1215.85, 0.0537496, NaN, NaN, NaN, 0.0433376, "- N/A -   "
32.23, 1217.76, 0.053819, NaN, NaN, NaN, 0.04211683, "- N/A -   "
32.27, 1219.54, 0.0538884, NaN, NaN, NaN, 0.04089605, "- N/A -   "
32.31, 1221.33, 0.0539551, NaN, NaN, NaN, 0.04089605, "- N/A -   "
32.35, 1223.24, 0.0540245, NaN, NaN, NaN, 0.0396753, "- N/A -   "
32.39, 1225.507, 0.0541022, NaN, NaN, NaN, 0.0347922, "- N/A -   "
32.43, 1227.53, 0.05417998, NaN, NaN, NaN, 0.0299091, "- N/A -   "
32.47, 1229.44, 0.0542494, NaN, NaN, NaN, 0.0286883, "- N/A -   "
32.51, 1231.23, 0.054316, NaN, NaN, NaN, 0.0286883, "- N/A -   "
32.55, 1232.9, 0.05437713, NaN, NaN, NaN, 0.03112983, "- N/A -   "
32.59, 1234.57, 0.054441, NaN, NaN, NaN, 0.0323506, "- N/A -   "
32.63, 1236.359, 0.05450764, NaN, NaN, NaN, 0.0323506, "- N/A -   "
32.67, 1238.03, 0.05456595, NaN, NaN, NaN, 0.03601294, "- N/A -   "
32.71, 1239.698, 0.0546326, NaN, NaN, NaN, 0.03601294, "- N/A -   "
32.75, 1241.37, 0.0546992, NaN, NaN, NaN, 0.0372337, "- N/A -   "
32.79, 1243.037, 0.0547603, NaN, NaN, NaN, 0.0396753, "- N/A -   "
32.83, 1244.83, 0.05482141, NaN, NaN, NaN, 0.04089605, "- N/A -   "
32.87, 1246.38, 0.0548825, NaN, NaN, NaN, 0.0445584, "- N/A -   "
32.91, 1247.93, 0.0549408, NaN, NaN, NaN, 0.04699994, "- N/A -   "
32.95, 1249.83, 0.0550075, NaN, NaN, NaN, 0.0482207, "- N/A -   "
32.99, 1251.981, 0.05508798, NaN, NaN, NaN, 0.04211683, "- N/A -   "
33.03, 1254.13, 0.0551685, NaN, NaN, NaN, 0.0347922, "- N/A -   "
33.07, 1256.274, 0.05524348, NaN, NaN, NaN, 0.03112983, "- N/A -   "
33.11, 1257.94, 0.0553073, NaN, NaN, NaN, 0.0323506, "- N/A -   "
33.15, 1259.49, 0.0553712, NaN, NaN, NaN, 0.0335714, "- N/A -   "
33.19, 1261.4, 0.0554351, NaN, NaN, NaN, 0.0347922, "- N/A -   "
33.23, 1262.952, 0.05549616, NaN, NaN, NaN, 0.0372337, "- N/A -   "
33.27, 1264.741, 0.0555628, NaN, NaN, NaN, 0.0384545, "- N/A -   "
33.31, 1266.65, 0.055635, NaN, NaN, NaN, 0.0347922, "- N/A -   "
33.35, 1268.68, 0.0557072, NaN, NaN, NaN, 0.0323506, "- N/A -   "
33.39, 1270.35, 0.05577384, NaN, NaN, NaN, 0.0323506, "- N/A -   "
33.43, 1271.896, 0.0558321, NaN, NaN, NaN, 0.03601294, "- N/A -   "
33.47, 1273.45, 0.0558877, NaN, NaN, NaN, 0.04089605, "- N/A -   "
33.51, 1275.12, 0.05595155, NaN, NaN, NaN, 0.04211683, "- N/A -   "
33.55, 1277.14, 0.0560237, NaN, NaN, NaN, 0.0396753, "- N/A -   "
33.59, 1279.05, 0.0560932, NaN, NaN, NaN, 0.0384545, "- N/A -   "
33.63, 1280.84, 0.0561598, NaN, NaN, NaN, 0.0384545, "- N/A -   "
33.67, 1282.75, 0.056232, NaN, NaN, NaN, 0.0372337, "- N/A -   "
33.71, 1284.54, 0.0562986, NaN, NaN, NaN, 0.0372337, "- N/A -   "
33.75, 1286.44, 0.0563653, NaN, NaN, NaN, 0.03601294, "- N/A -   "
33.79, 1288.23, 0.0564347, NaN, NaN, NaN, 0.0347922, "- N/A -   "
33.83, 1290.02, 0.0565013, NaN, NaN, NaN, 0.0347922, "- N/A -   "
33.87, 1292.05, 0.0565735, NaN, NaN, NaN, 0.0323506, "- N/A -   "
33.91, 1293.84, 0.05664296, NaN, NaN, NaN, 0.0323506, "- N/A -   "
33.95, 1295.51, 0.0567068, NaN, NaN, NaN, 0.0335714, "- N/A -   "
33.99, 1297.3, 0.0567707, NaN, NaN, NaN, 0.0335714, "- N/A -   "
34.03, 1299.09, 0.0568373, NaN, NaN, NaN, 0.0335714, "- N/A -   "
34.07, 1300.87, 0.0569068, NaN, NaN, NaN, 0.0323506, "- N/A -   "
34.11, 1302.54, 0.0569706, NaN, NaN, NaN, 0.0335714, "- N/A -   "
34.15, 1304.33, 0.05703726, NaN, NaN, NaN, 0.0347922, "- N/A -   "
34.19, 1305.88, 0.0570928, NaN, NaN, NaN, 0.0384545, "- N/A -   "
34.23, 1307.55, 0.05715666, NaN, NaN, NaN, 0.04089605, "- N/A -   "
34.27, 1309.22, 0.0572177, NaN, NaN, NaN, 0.04211683, "- N/A -   "
34.31, 1310.77, 0.0572788, NaN, NaN, NaN, 0.04577916, "- N/A -   "
34.35, 1312.68, 0.0573427, NaN, NaN, NaN, 0.04577916, "- N/A -   "
34.39, 1314.469, 0.0574149, NaN, NaN, NaN, 0.0445584, "- N/A -   "
34.43, 1316.73, 0.0574926, NaN, NaN, NaN, 0.0384545, "- N/A -   "
34.47, 1318.88, 0.0575704, NaN, NaN, NaN, 0.0335714, "- N/A -   "
34.51, 1320.91, 0.0576426, NaN, NaN, NaN, 0.03112983, "- N/A -   "
34.55, 1322.46, 0.0577065, NaN, NaN, NaN, 0.0323506, "- N/A -   "
34.59, 1324.25, 0.05777032, NaN, NaN, NaN, 0.0335714, "- N/A -   "
34.63, 1326.04, 0.05783974, NaN, NaN, NaN, 0.0335714, "- N/A -   "
34.67, 1328.06, 0.05791471, NaN, NaN, NaN, 0.0299091, "- N/A -   "
34.71, 1330.091, 0.05798413, NaN, NaN, NaN, 0.0274675, "- N/A -   "
34.75, 1331.64, 0.05804522, NaN, NaN, NaN, 0.0299091, "- N/A -   "
34.79, 1333.19, 0.0581063, NaN, NaN, NaN, 0.0335714, "- N/A -   "
34.83, 1334.74, 0.0581618, NaN, NaN, NaN, 0.0372337, "- N/A -   "
34.87, 1336.17, 0.0582174, NaN, NaN, NaN, 0.04211683, "- N/A -   "
34.91, 1337.96, 0.0582812, NaN, NaN, NaN, 0.0433376, "- N/A -   "
34.95, 1339.63, 0.0583423, NaN, NaN, NaN, 0.04577916, "- N/A -   "
34.99, 1341.42, 0.05841175, NaN, NaN, NaN, 0.0445584, "- N/A -   "
35.03, 1343.57, 0.0584867, NaN, NaN, NaN, 0.04089605, "- N/A -   "
35.07, 1345.47, 0.0585645, NaN, NaN, NaN, 0.0372337, "- N/A -   "
35.11, 1347.62, 0.05863667, NaN, NaN, NaN, 0.0335714, "- N/A -   "
35.15, 1349.41, 0.05870331, NaN, NaN, NaN, 0.0335714, "- N/A -   "
35.19, 1351.32, 0.05877, NaN, NaN, NaN, 0.0347922, "- N/A -   "
35.23, 1352.99, 0.0588366, NaN, NaN, NaN, 0.0335714, "- N/A -   "
35.27, 1355.01, 0.0589116, NaN, NaN, NaN, 0.0299091, "- N/A -   "
35.31, 1356.92, 0.05898376, NaN, NaN, NaN, 0.0286883, "- N/A -   "
35.35, 1358.71, 0.0590476, NaN, NaN, NaN, 0.0299091, "- N/A -   "
35.39, 1360.5, 0.05911427, NaN, NaN, NaN, 0.0299091, "- N/A -   "
35.43, 1362.05, 0.05917258, NaN, NaN, NaN, 0.0335714, "- N/A -   "
35.47, 1363.48, 0.0592281, NaN, NaN, NaN, 0.0384545, "- N/A -   "
35.51, 1364.91, 0.0592864, NaN, NaN, NaN, 0.0433376, "- N/A -   "
35.55, 1366.46, 0.0593447, NaN, NaN, NaN, 0.04577916, "- N/A -   "
35.59, 1368.37, 0.0594114, NaN, NaN, NaN, 0.04577916, "- N/A -   "
35.63, 1370.28, 0.0594836, NaN, NaN, NaN, 0.0445584, "- N/A -   "
35.67, 1372.07, 0.0595474, NaN, NaN, NaN, 0.0445584, "- N/A -   "
35.71, 1373.86, 0.05961409, NaN, NaN, NaN, 0.0445584, "- N/A -   "
35.75, 1375.65, 0.0596863, NaN, NaN, NaN, 0.04211683, "- N/A -   "
35.79, 1378.03, 0.0597668, NaN, NaN, NaN, 0.03601294, "- N/A -   "
35.83, 1380.06, 0.0598473, NaN, NaN, NaN, 0.0299091, "- N/A -   "
35.87, 1382.08, 0.0599195, NaN, NaN, NaN, 0.0286883, "- N/A -   "
35.91, 1383.87, 0.05998617, NaN, NaN, NaN, 0.0274675, "- N/A -   "
35.95, 1385.54, 0.0600473, NaN, NaN, NaN, 0.03112983, "- N/A -   "
35.99, 1387.09, 0.06010557, NaN, NaN, NaN, 0.0335714, "- N/A -   "
36.03, 1388.763, 0.0601639, NaN, NaN, NaN, 0.0372337, "- N/A -   "
36.07, 1390.31, 0.06022497, NaN, NaN, NaN, 0.0396753, "- N/A -   "
36.11, 1392.34, 0.06030272, NaN, NaN, NaN, 0.03601294, "- N/A -   "
36.15, 1394.25, 0.06037214, NaN, NaN, NaN, 0.0335714, "- N/A -   "
36.19, 1395.8, 0.0604305, NaN, NaN, NaN, 0.0372337, "- N/A -   "
36.23, 1397.23, 0.06048599, NaN, NaN, NaN, 0.04211683, "- N/A -   "
36.27, 1398.9, 0.0605471, NaN, NaN, NaN, 0.04577916, "- N/A -   "
36.31, 1400.57, 0.0606109, NaN, NaN, NaN, 0.04577916, "- N/A -   "
36.35, 1402.6, 0.06068314, NaN, NaN, NaN, 0.0445584, "- N/A -   "
36.39, 1404.74, 0.06076088, NaN, NaN, NaN, 0.0384545, "- N/A -   "
36.43, 1406.65, 0.0608386, NaN, NaN, NaN, 0.0335714, "- N/A -   "
36.47, 1408.92, 0.0609136, NaN, NaN, NaN, 0.0299091, "- N/A -   "
36.51, 1410.71, 0.06098025, NaN, NaN, NaN, 0.0299091, "- N/A -   "
36.55, 1412.26, 0.06104411, NaN, NaN, NaN, 0.0323506, "- N/A -   "
36.59, 1413.81, 0.06109965, NaN, NaN, NaN, 0.03601294, "- N/A -   "
36.63, 1415.36, 0.06116351, NaN, NaN, NaN, 0.0372337, "- N/A -   "
36.67, 1417.26, 0.0612329, NaN, NaN, NaN, 0.0372337, "- N/A -   "
36.71, 1419.53, 0.0613079, NaN, NaN, NaN, 0.0323506, "- N/A -   "
36.75, 1421.32, 0.06137732, NaN, NaN, NaN, 0.03112983, "- N/A -   "
36.79, 1422.99, 0.06144119, NaN, NaN, NaN, 0.0323506, "- N/A -   "
36.83, 1424.54, 0.0614995, NaN, NaN, NaN, 0.03601294, "- N/A -   "
36.87, 1426.09, 0.06155781, NaN, NaN, NaN, 0.0396753, "- N/A -   "
36.91, 1427.52, 0.0616161, NaN, NaN, NaN, 0.0433376, "- N/A -   "
36.92, 1428, 0.06163, NaN, NaN, NaN, 0.0445584, "- N/A -   "
36.93, 1428.35, 0.0616494, NaN, NaN, NaN, 0.0445584, "- N/A -   "
36.94, 1428.83, 0.0616661, NaN, NaN, NaN, 0.0433376, "- N/A -   "
36.95, 1429.43, 0.0616855, NaN, NaN, NaN, 0.04211683, "- N/A -   "
36.96, 1429.9, 0.06170498, NaN, NaN, NaN, 0.04089605, "- N/A -   "
36.97, 1430.26, 0.06172164, NaN, NaN, NaN, 0.04211683, "- N/A -   "
36.98, 1430.74, 0.0617383, NaN, NaN, NaN, 0.04089605, "- N/A -   "
36.99, 1431.34, 0.06175496, NaN, NaN, NaN, 0.04089605, "- N/A -   "
37, 1431.69, 0.06177162, NaN, NaN, NaN, 0.04089605, "- N/A -   "
37.01, 1432.05, 0.06178828, NaN, NaN, NaN, 0.04089605, "- N/A -   "
37.02, 1432.53, 0.0618049, NaN, NaN, NaN, 0.04211683, "- N/A -   "
37.03, 1433.01, 0.0618188, NaN, NaN, NaN, 0.04211683, "- N/A -   "
37.04, 1433.36, 0.06183549, NaN, NaN, NaN, 0.04211683, "- N/A -   "
37.05, 1433.84, 0.06185215, NaN, NaN, NaN, 0.04211683, "- N/A -   "
37.06, 1434.198, 0.06187159, NaN, NaN, NaN, 0.04211683, "- N/A -   "
37.07, 1434.79, 0.0618882, NaN, NaN, NaN, 0.04089605, "- N/A -   "
37.08, 1435.27, 0.0619077, NaN, NaN, NaN, 0.04089605, "- N/A -   "
37.09, 1435.75, 0.0619243, NaN, NaN, NaN, 0.0396753, "- N/A -   "
37.1, 1436.23, 0.06194378, NaN, NaN, NaN, 0.0396753, "- N/A -   "
37.11, 1436.82, 0.0619604, NaN, NaN, NaN, 0.0396753, "- N/A -   "
37.12, 1437.18, 0.0619771, NaN, NaN, NaN, 0.0384545, "- N/A -   "
37.13, 1437.66, 0.0619965, NaN, NaN, NaN, 0.0384545, "- N/A -   "
37.14, 1438.13, 0.0620132, NaN, NaN, NaN, 0.0372337, "- N/A -   "
37.15, 1438.61, 0.06202986, NaN, NaN, NaN, 0.0372337, "- N/A -   "
37.16, 1439.09, 0.06204652, NaN, NaN, NaN, 0.0372337, "- N/A -   "
37.17, 1439.56, 0.06206596, NaN, NaN, NaN, 0.03601294, "- N/A -   "
37.18, 1440.04, 0.0620854, NaN, NaN, NaN, 0.03601294, "- N/A -   "
37.19, 1440.52, 0.0621021, NaN, NaN, NaN, 0.03601294, "- N/A -   "
37.2, 1440.88, 0.0621187, NaN, NaN, NaN, 0.0347922, "- N/A -   "
37.21, 1441.47, 0.0621354, NaN, NaN, NaN, 0.0347922, "- N/A -   "
37.22, 1441.83, 0.062152, NaN, NaN, NaN, 0.0347922, "- N/A -   "
37.23, 1442.31, 0.0621715, NaN, NaN, NaN, 0.0335714, "- N/A -   "
37.24, 1442.9, 0.0621881, NaN, NaN, NaN, 0.0335714, "- N/A -   "
37.25, 1443.38, 0.0622076, NaN, NaN, NaN, 0.0335714, "- N/A -   "
37.26, 1443.86, 0.06222423, NaN, NaN, NaN, 0.0323506, "- N/A -   "
37.27, 1444.22, 0.0622409, NaN, NaN, NaN, 0.0323506, "- N/A -   "
37.28, 1444.69, 0.0622576, NaN, NaN, NaN, 0.0323506, "- N/A -   "
37.29, 1445.05, 0.0622742, NaN, NaN, NaN, 0.0323506, "- N/A -   "
37.3, 1445.53, 0.0622909, NaN, NaN, NaN, 0.0335714, "- N/A -   "
37.31, 1445.88, 0.0623075, NaN, NaN, NaN, 0.0323506, "- N/A -   "
37.32, 1446.48, 0.0623242, NaN, NaN, NaN, 0.0323506, "- N/A -   "
37.33, 1446.84, 0.0623409, NaN, NaN, NaN, 0.0335714, "- N/A -   "
37.34, 1447.2, 0.0623575, NaN, NaN, NaN, 0.0335714, "- N/A -   "
37.35, 1447.67, 0.0623714, NaN, NaN, NaN, 0.0335714, "- N/A -   "
37.36, 1448.03, 0.0623881, NaN, NaN, NaN, 0.0347922, "- N/A -   "
37.37, 1448.39, 0.0624019, NaN, NaN, NaN, 0.0347922, "- N/A -   "
37.38, 1448.866, 0.0624186, NaN, NaN, NaN, 0.0347922, "- N/A -   "
37.39, 1449.34, 0.0624353, NaN, NaN, NaN, 0.0347922, "- N/A -   "
37.4, 1449.82, 0.0624519, NaN, NaN, NaN, 0.03601294, "- N/A -   "
37.41, 1450.18, 0.06246581, NaN, NaN, NaN, 0.03601294, "- N/A -   "
37.42, 1450.54, 0.06248247, NaN, NaN, NaN, 0.03601294, "- N/A -   "
37.43, 1451.01, 0.06249913, NaN, NaN, NaN, 0.0372337, "- N/A -   "
37.44, 1451.49, 0.062513, NaN, NaN, NaN, 0.0372337, "- N/A -   "
37.45, 1451.85, 0.0625297, NaN, NaN, NaN, 0.0372337, "- N/A -   "
37.46, 1452.32, 0.0625463, NaN, NaN, NaN, 0.0372337, "- N/A -   "
37.47, 1452.682, 0.062563, NaN, NaN, NaN, 0.0372337, "- N/A -   "
37.48, 1453.28, 0.06258243, NaN, NaN, NaN, 0.0372337, "- N/A -   "
37.49, 1453.76, 0.06260187, NaN, NaN, NaN, 0.03601294, "- N/A -   "
37.5, 1454.23, 0.0626213, NaN, NaN, NaN, 0.0347922, "- N/A -   "
37.51, 1454.83, 0.06264074, NaN, NaN, NaN, 0.0335714, "- N/A -   "
37.52, 1455.31, 0.06266018, NaN, NaN, NaN, 0.0323506, "- N/A -   "
37.53, 1455.78, 0.06267684, NaN, NaN, NaN, 0.03112983, "- N/A -   "
37.54, 1456.26, 0.0626935, NaN, NaN, NaN, 0.03112983, "- N/A -   "
37.55, 1456.62, 0.06270739, NaN, NaN, NaN, 0.0323506, "- N/A -   "
37.56, 1456.975, 0.0627213, NaN, NaN, NaN, 0.0335714, "- N/A -   "
37.57, 1457.33, 0.0627352, NaN, NaN, NaN, 0.03601294, "- N/A -   "
37.58, 1457.69, 0.062749, NaN, NaN, NaN, 0.03601294, "- N/A -   "
37.59, 1457.93, 0.0627601, NaN, NaN, NaN, 0.0384545, "- N/A -   "
37.6, 1458.41, 0.0627768, NaN, NaN, NaN, 0.0384545, "- N/A -   "
37.61, 1458.883, 0.06279069, NaN, NaN, NaN, 0.0396753, "- N/A -   "
37.62, 1459.12, 0.06280735, NaN, NaN, NaN, 0.04089605, "- N/A -   "
37.63, 1459.6, 0.06282123, NaN, NaN, NaN, 0.04089605, "- N/A -   "
37.64, 1459.96, 0.06283511, NaN, NaN, NaN, 0.04211683, "- N/A -   "
37.65, 1460.31, 0.06285178, NaN, NaN, NaN, 0.0433376, "- N/A -   "
37.66, 1460.67, 0.06286566, NaN, NaN, NaN, 0.0433376, "- N/A -   "
37.67, 1461.15, 0.06287955, NaN, NaN, NaN, 0.0445584, "- N/A -   "
37.68, 1461.626, 0.06289621, NaN, NaN, NaN, 0.0445584, "- N/A -   "
37.69, 1461.98, 0.06291287, NaN, NaN, NaN, 0.0445584, "- N/A -   "
37.7, 1462.46, 0.0629295, NaN, NaN, NaN, 0.0445584, "- N/A -   "
37.71, 1462.94, 0.0629462, NaN, NaN, NaN, 0.0445584, "- N/A -   "
37.72, 1463.41, 0.0629628, NaN, NaN, NaN, 0.0445584, "- N/A -   "
37.73, 1463.65, 0.06297673, NaN, NaN, NaN, 0.04577916, "- N/A -   "
37.74, 1464.25, 0.0629962, NaN, NaN, NaN, 0.04577916, "- N/A -   "
37.75, 1464.73, 0.06301283, NaN, NaN, NaN, 0.0445584, "- N/A -   "
37.76, 1465.32, 0.06303504, NaN, NaN, NaN, 0.0433376, "- N/A -   "
37.77, 1465.8, 0.0630517, NaN, NaN, NaN, 0.04211683, "- N/A -   "
37.778, 1466.16, 0.06306836, NaN, NaN, NaN, 0.04089605, "- N/A -   "