File: 2_Tensile_Data/Hamel_ForceTest_Bolt4_Test3.csv
Time, Load (lb), Position (in), AxialStrain (in), TransverseStrain (in), Auxiliary (), Control Out (V), Stress (psi)
0.0, 1.29742, 0.0, NaN, NaN, NaN, 0.08850638, "- N/A -   "
0.01, 1.41537, 3.054427E-5, NaN, NaN, NaN, 0.08240249, "- N/A -   "
0.02, 1.76921, 5.83118e-05, NaN, NaN, NaN, 0.07751938, "- N/A -   "
0.03, 2.005107, 8.607931E-5, NaN, NaN, NaN, 0.07385705, "- N/A -   "
0.04, 2.241, 0.00011107, NaN, NaN, NaN, 0.0689739, "- N/A -   "
0.05, 2.59484, 0.000136061, NaN, NaN, NaN, 0.0653116, "- N/A -   "
0.06, 2.83074, 1.610516E-4, NaN, NaN, NaN, 0.06164927, "- N/A -   "
0.07, 3.06663, 0.000183266, NaN, NaN, NaN, 0.0592077, "- N/A -   "
0.08, 3.30253, 0.00020548, NaN, NaN, NaN, 0.05676616, "- N/A -   "
0.09, 3.53842, 0.000227694, NaN, NaN, NaN, 0.0543246, "- N/A -   "
0.1, 3.89227, 0.000249908, NaN, NaN, NaN, 0.05188305, "- N/A -   "
0.11, 4.12816, 2.721217E-4, NaN, NaN, NaN, 0.0494415, "- N/A -   "
0.12, 4.36406, 0.000297112, NaN, NaN, NaN, 0.04699994, "- N/A -   "
0.13, 4.717899, 0.000319326, NaN, NaN, NaN, 0.0433376, "- N/A -   "
0.14, 5.071741, 0.00034154, NaN, NaN, NaN, 0.04089605, "- N/A -   "
0.15, 5.18969, 3.637545E-4, NaN, NaN, NaN, 0.0384545, "- N/A -   "
0.16, 5.425584, 3.859685E-4, NaN, NaN, NaN, 0.03601294, "- N/A -   "
0.17, 5.779426, 0.000405406, NaN, NaN, NaN, 0.0347922, "- N/A -   "
0.18, 5.897373, 0.000424843, NaN, NaN, NaN, 0.0335714, "- N/A -   "
0.19, 6.01532, 0.000441504, NaN, NaN, NaN, 0.0335714, "- N/A -   "
0.2, 6.251216, 4.609408E-4, NaN, NaN, NaN, 0.0323506, "- N/A -   "
0.21, 6.487111, 4.776013E-4, NaN, NaN, NaN, 0.0323506, "- N/A -   "
0.22, 6.723006, 4.970386E-4, NaN, NaN, NaN, 0.0323506, "- N/A -   "
0.23, 6.9589, 5.136991E-4, NaN, NaN, NaN, 0.03112983, "- N/A -   "
0.24, 7.1948, 0.00053036, NaN, NaN, NaN, 0.03112983, "- N/A -   "
0.25, 7.312743, 5.470201E-4, NaN, NaN, NaN, 0.03112983, "- N/A -   "
0.26, 7.548638, 5.636806E-4, NaN, NaN, NaN, 0.03112983, "- N/A -   "
0.27, 7.90248, 0.000577564, NaN, NaN, NaN, 0.0323506, "- N/A -   "
0.28, 7.90248, 5.942249E-4, NaN, NaN, NaN, 0.0323506, "- N/A -   "
0.29, 8.138375, 0.000608109, NaN, NaN, NaN, 0.0335714, "- N/A -   "
0.3, 8.256323, 6.219924E-4, NaN, NaN, NaN, 0.0347922, "- N/A -   "
0.31, 8.37427, 0.000638653, NaN, NaN, NaN, 0.0347922, "- N/A -   "
0.32, 8.728113, 6.525367E-4, NaN, NaN, NaN, 0.03601294, "- N/A -   "
0.33, 8.964007, 0.00066642, NaN, NaN, NaN, 0.0372337, "- N/A -   "
0.34, 9.081955, 6.803042E-4, NaN, NaN, NaN, 0.0384545, "- N/A -   "
0.35, 9.199903, 6.969647E-4, NaN, NaN, NaN, 0.0384545, "- N/A -   "
0.36, 9.435798, 7.108485E-4, NaN, NaN, NaN, 0.0396753, "- N/A -   "
0.37, 9.78964, 0.000724732, NaN, NaN, NaN, 0.04089605, "- N/A -   "
0.38, 9.78964, 7.38616E-4, NaN, NaN, NaN, 0.04211683, "- N/A -   "
0.39, 10.1435, 0.0007525, NaN, NaN, NaN, 0.0433376, "- N/A -   "
0.4, 10.26143, 7.663835E-4, NaN, NaN, NaN, 0.0445584, "- N/A -   "
0.41, 10.4973, 0.000783044, NaN, NaN, NaN, 0.0445584, "- N/A -   "
0.42, 10.6153, 7.997045E-4, NaN, NaN, NaN, 0.04577916, "- N/A -   "
0.43, 10.9691, 0.000813588, NaN, NaN, NaN, 0.04577916, "- N/A -   "
0.44, 11.205, 0.000833026, NaN, NaN, NaN, 0.04577916, "- N/A -   "
0.45, 11.4409, 0.000849686, NaN, NaN, NaN, 0.0445584, "- N/A -   "
0.46, 11.6768, 8.663466E-4, NaN, NaN, NaN, 0.0445584, "- N/A -   "
0.47, 11.9127, 8.830071E-4, NaN, NaN, NaN, 0.0445584, "- N/A -   "
0.48, 12.14859, 0.000899668, NaN, NaN, NaN, 0.0445584, "- N/A -   "
0.49, 12.3845, 9.163281E-4, NaN, NaN, NaN, 0.0445584, "- N/A -   "
0.5, 12.6204, 9.329886E-4, NaN, NaN, NaN, 0.0445584, "- N/A -   "
0.51, 12.8563, 0.000949649, NaN, NaN, NaN, 0.0445584, "- N/A -   "
0.52, 13.09217, 9.663096E-4, NaN, NaN, NaN, 0.0445584, "- N/A -   "
0.53, 13.3281, 9.829701E-4, NaN, NaN, NaN, 0.0445584, "- N/A -   "
0.54, 13.446, 9.996307E-4, NaN, NaN, NaN, 0.0445584, "- N/A -   "
0.55, 13.7999, 0.00101629, NaN, NaN, NaN, 0.0445584, "- N/A -   "
0.56, 13.9178, 0.00103017, NaN, NaN, NaN, 0.04577916, "- N/A -   "
0.57, 14.1537, 0.00104684, NaN, NaN, NaN, 0.04699994, "- N/A -   "
0.58, 14.5075, 0.001063496, NaN, NaN, NaN, 0.04577916, "- N/A -   "
0.59, 14.6255, 0.00108016, NaN, NaN, NaN, 0.04577916, "- N/A -   "
0.6, 14.9793, 0.001096817, NaN, NaN, NaN, 0.04577916, "- N/A -   "
0.61, 15.3332, 0.00111625, NaN, NaN, NaN, 0.0445584, "- N/A -   "
0.62, 15.5691, 0.00113569, NaN, NaN, NaN, 0.0433376, "- N/A -   "
0.63, 15.805, 0.00115513, NaN, NaN, NaN, 0.0433376, "- N/A -   "
0.64, 16.0409, 0.00117179, NaN, NaN, NaN, 0.04211683, "- N/A -   "
0.65, 16.27675, 0.00118845, NaN, NaN, NaN, 0.04211683, "- N/A -   "
0.66, 16.6306, 0.00121066, NaN, NaN, NaN, 0.0396753, "- N/A -   "
0.67, 16.86649, 0.0012301, NaN, NaN, NaN, 0.0384545, "- N/A -   "
0.68, 17.2203, 0.00125232, NaN, NaN, NaN, 0.03601294, "- N/A -   "
0.69, 17.5742, 0.00127175, NaN, NaN, NaN, 0.0347922, "- N/A -   "
0.7, 17.8101, 0.00129397, NaN, NaN, NaN, 0.0335714, "- N/A -   "
0.71, 18.16391, 0.0013134, NaN, NaN, NaN, 0.03112983, "- N/A -   "
0.72, 18.3998, 0.00133006, NaN, NaN, NaN, 0.03112983, "- N/A -   "
0.73, 18.7536, 0.0013495, NaN, NaN, NaN, 0.0299091, "- N/A -   "
0.74, 18.9895, 0.00136616, NaN, NaN, NaN, 0.0299091, "- N/A -   "
0.75, 19.1075, 0.0013856, NaN, NaN, NaN, 0.0286883, "- N/A -   "
0.76, 19.4613, 0.00140226, NaN, NaN, NaN, 0.0286883, "- N/A -   "
0.77, 19.57928, 0.00141892, NaN, NaN, NaN, 0.0299091, "- N/A -   "
0.78, 19.9331, 0.00143558, NaN, NaN, NaN, 0.0286883, "- N/A -   "
0.79, 20.169, 0.00145224, NaN, NaN, NaN, 0.0299091, "- N/A -   "
0.8, 20.52286, 0.0014689, NaN, NaN, NaN, 0.0286883, "- N/A -   "
0.81, 20.6408, 0.00148556, NaN, NaN, NaN, 0.0299091, "- N/A -   "
0.82, 20.8767, 0.00150222, NaN, NaN, NaN, 0.0299091, "- N/A -   "
0.83, 21.1126, 0.00151611, NaN, NaN, NaN, 0.0299091, "- N/A -   "
0.84, 21.3485, 0.00152999, NaN, NaN, NaN, 0.03112983, "- N/A -   "
0.85, 21.46644, 0.00154665, NaN, NaN, NaN, 0.03112983, "- N/A -   "
0.86, 21.8203, 0.00156331, NaN, NaN, NaN, 0.03112983, "- N/A -   "
0.87, 22.0562, 0.001577195, NaN, NaN, NaN, 0.0323506, "- N/A -   "
0.88, 22.29207, 0.00159108, NaN, NaN, NaN, 0.0335714, "- N/A -   "
0.89, 22.528, 0.00160774, NaN, NaN, NaN, 0.0347922, "- N/A -   "
0.9, 22.7639, 0.001621623, NaN, NaN, NaN, 0.0347922, "- N/A -   "
0.91, 22.9998, 0.00163828, NaN, NaN, NaN, 0.0347922, "- N/A -   "
0.92, 23.2357, 0.001654944, NaN, NaN, NaN, 0.0347922, "- N/A -   "
0.93, 23.4715, 0.00166883, NaN, NaN, NaN, 0.03601294, "- N/A -   "
0.94, 23.82539, 0.00168549, NaN, NaN, NaN, 0.03601294, "- N/A -   "
0.95, 24.0613, 0.00170215, NaN, NaN, NaN, 0.03601294, "- N/A -   "
0.96, 24.29718, 0.00171881, NaN, NaN, NaN, 0.03601294, "- N/A -   "
0.97, 24.5331, 0.00173547, NaN, NaN, NaN, 0.03601294, "- N/A -   "
0.98, 24.769, 0.00175491, NaN, NaN, NaN, 0.0347922, "- N/A -   "
0.99, 25.1228, 0.00177434, NaN, NaN, NaN, 0.0335714, "- N/A -   "
1, 25.3587, 0.001791, NaN, NaN, NaN, 0.0335714, "- N/A -   "
1.01, 25.5946, 0.00180767, NaN, NaN, NaN, 0.0335714, "- N/A -   "
1.02, 25.9484, 0.00182433, NaN, NaN, NaN, 0.0335714, "- N/A -   "
1.03, 26.18434, 0.00184099, NaN, NaN, NaN, 0.0335714, "- N/A -   "
1.04, 26.3023, 0.00185209, NaN, NaN, NaN, 0.03601294, "- N/A -   "
1.05, 26.5382, 0.00186598, NaN, NaN, NaN, 0.0372337, "- N/A -   "
1.06, 26.6561, 0.00188264, NaN, NaN, NaN, 0.0372337, "- N/A -   "
1.07, 27.01, 0.00189374, NaN, NaN, NaN, 0.0396753, "- N/A -   "
1.08, 27.1279, 0.00191041, NaN, NaN, NaN, 0.04089605, "- N/A -   "
1.09, 27.3638, 0.00192151, NaN, NaN, NaN, 0.04211683, "- N/A -   "
1.1, 27.5997, 0.001935396, NaN, NaN, NaN, 0.0433376, "- N/A -   "
1.11, 27.7177, 0.00194928, NaN, NaN, NaN, 0.0445584, "- N/A -   "
1.12, 27.95355, 0.00196316, NaN, NaN, NaN, 0.04577916, "- N/A -   "
1.13, 28.1894, 0.00197982, NaN, NaN, NaN, 0.04577916, "- N/A -   "
1.14, 28.54329, 0.00199648, NaN, NaN, NaN, 0.04577916, "- N/A -   "
1.15, 28.7792, 0.00201592, NaN, NaN, NaN, 0.04577916, "- N/A -   "
1.16, 29.0151, 0.00202981, NaN, NaN, NaN, 0.04577916, "- N/A -   "
1.17, 29.251, 0.002046466, NaN, NaN, NaN, 0.04577916, "- N/A -   "
1.18, 29.6048, 0.00206313, NaN, NaN, NaN, 0.04577916, "- N/A -   "
1.19, 29.7228, 0.00207701, NaN, NaN, NaN, 0.04699994, "- N/A -   "
1.2, 30.0766, 0.002093671, NaN, NaN, NaN, 0.04699994, "- N/A -   "
1.21, 30.3125, 0.00211033, NaN, NaN, NaN, 0.04699994, "- N/A -   "
1.22, 30.5484, 0.00212977, NaN, NaN, NaN, 0.04577916, "- N/A -   "
1.23, 30.78429, 0.002149206, NaN, NaN, NaN, 0.0445584, "- N/A -   "
1.24, 31.1381, 0.00216587, NaN, NaN, NaN, 0.0445584, "- N/A -   "
1.25, 31.492, 0.0021853, NaN, NaN, NaN, 0.0433376, "- N/A -   "
1.26, 31.72787, 0.00220752, NaN, NaN, NaN, 0.04089605, "- N/A -   "
1.27, 32.08171, 0.00222973, NaN, NaN, NaN, 0.0384545, "- N/A -   "
1.28, 32.4356, 0.002251946, NaN, NaN, NaN, 0.0372337, "- N/A -   "
1.29, 32.7894, 0.00226861, NaN, NaN, NaN, 0.03601294, "- N/A -   "
1.3, 33.1432, 0.00228804, NaN, NaN, NaN, 0.0347922, "- N/A -   "
1.31, 33.3791, 0.002307481, NaN, NaN, NaN, 0.0335714, "- N/A -   "
1.32, 33.61503, 0.00232414, NaN, NaN, NaN, 0.0335714, "- N/A -   "
1.33, 33.9689, 0.00234358, NaN, NaN, NaN, 0.0323506, "- N/A -   "
1.34, 34.2048, 0.002363016, NaN, NaN, NaN, 0.03112983, "- N/A -   "
1.35, 34.55861, 0.002382453, NaN, NaN, NaN, 0.03112983, "- N/A -   "
1.36, 34.9125, 0.00240189, NaN, NaN, NaN, 0.0299091, "- N/A -   "
1.37, 35.1483, 0.002418551, NaN, NaN, NaN, 0.0286883, "- N/A -   "
1.38, 35.3842, 0.00243521, NaN, NaN, NaN, 0.0286883, "- N/A -   "
1.39, 35.6201, 0.002451872, NaN, NaN, NaN, 0.0286883, "- N/A -   "
1.4, 35.85603, 0.00246853, NaN, NaN, NaN, 0.0286883, "- N/A -   "
1.41, 36.0919, 0.002482416, NaN, NaN, NaN, 0.0299091, "- N/A -   "
1.42, 36.32782, 0.00249908, NaN, NaN, NaN, 0.0299091, "- N/A -   "
1.43, 36.44577, 0.00251296, NaN, NaN, NaN, 0.03112983, "- N/A -   "
1.44, 36.6817, 0.00252684, NaN, NaN, NaN, 0.0323506, "- N/A -   "
1.45, 37.0355, 0.0025435, NaN, NaN, NaN, 0.0323506, "- N/A -   "
1.46, 37.15345, 0.00255739, NaN, NaN, NaN, 0.0335714, "- N/A -   "
1.47, 37.3893, 0.00257127, NaN, NaN, NaN, 0.0347922, "- N/A -   "
1.48, 37.74319, 0.00258516, NaN, NaN, NaN, 0.03601294, "- N/A -   "
1.49, 37.9791, 0.00260182, NaN, NaN, NaN, 0.03601294, "- N/A -   "
1.5, 38.215, 0.00261848, NaN, NaN, NaN, 0.03601294, "- N/A -   "
1.51, 38.4509, 0.00263236, NaN, NaN, NaN, 0.0372337, "- N/A -   "
1.52, 38.8047, 0.00264902, NaN, NaN, NaN, 0.0372337, "- N/A -   "
1.53, 39.04061, 0.00266846, NaN, NaN, NaN, 0.03601294, "- N/A -   "
1.54, 39.3945, 0.00268512, NaN, NaN, NaN, 0.03601294, "- N/A -   "
1.55, 39.6304, 0.00270178, NaN, NaN, NaN, 0.03601294, "- N/A -   "
1.56, 39.8662, 0.00271844, NaN, NaN, NaN, 0.03601294, "- N/A -   "
1.57, 40.22009, 0.00273788, NaN, NaN, NaN, 0.03601294, "- N/A -   "
1.58, 40.456, 0.00275454, NaN, NaN, NaN, 0.0347922, "- N/A -   "
1.59, 40.8098, 0.00277398, NaN, NaN, NaN, 0.0347922, "- N/A -   "
1.6, 41.04572, 0.00279064, NaN, NaN, NaN, 0.0335714, "- N/A -   "
1.61, 41.39956, 0.002807296, NaN, NaN, NaN, 0.0335714, "- N/A -   "
1.62, 41.6355, 0.00282673, NaN, NaN, NaN, 0.0335714, "- N/A -   "
1.63, 41.8714, 0.002843394, NaN, NaN, NaN, 0.0323506, "- N/A -   "
1.64, 42.1072, 0.00286005, NaN, NaN, NaN, 0.0323506, "- N/A -   "
1.65, 42.4611, 0.00287394, NaN, NaN, NaN, 0.0335714, "- N/A -   "
1.66, 42.697, 0.0028906, NaN, NaN, NaN, 0.0347922, "- N/A -   "
1.67, 42.93288, 0.00290448, NaN, NaN, NaN, 0.0347922, "- N/A -   "
1.68, 43.1688, 0.00292114, NaN, NaN, NaN, 0.0347922, "- N/A -   "
1.69, 43.2867, 0.00293503, NaN, NaN, NaN, 0.03601294, "- N/A -   "
1.7, 43.5226, 0.00294891, NaN, NaN, NaN, 0.0372337, "- N/A -   "
1.71, 43.87646, 0.002965571, NaN, NaN, NaN, 0.0372337, "- N/A -   "
1.72, 44.1124, 0.00298223, NaN, NaN, NaN, 0.0372337, "- N/A -   "
1.73, 44.34825, 0.00299612, NaN, NaN, NaN, 0.0384545, "- N/A -   "
1.74, 44.58414, 0.003012776, NaN, NaN, NaN, 0.0384545, "- N/A -   "
1.75, 44.70209, 0.00302666, NaN, NaN, NaN, 0.0396753, "- N/A -   "
1.76, 44.93799, 0.00304332, NaN, NaN, NaN, 0.0396753, "- N/A -   "
1.77, 45.29183, 0.003057204, NaN, NaN, NaN, 0.04089605, "- N/A -   "
1.78, 45.5277, 0.00307386, NaN, NaN, NaN, 0.04211683, "- N/A -   "
1.79, 45.76362, 0.003087748, NaN, NaN, NaN, 0.04211683, "- N/A -   "
1.8, 46.11746, 0.00310441, NaN, NaN, NaN, 0.04211683, "- N/A -   "
1.81, 46.3534, 0.003121069, NaN, NaN, NaN, 0.04211683, "- N/A -   "
1.82, 46.7072, 0.00314051, NaN, NaN, NaN, 0.04089605, "- N/A -   "
1.83, 46.9431, 0.003157167, NaN, NaN, NaN, 0.04089605, "- N/A -   "
1.84, 47.179, 0.00317383, NaN, NaN, NaN, 0.04089605, "- N/A -   "
1.85, 47.4149, 0.003190488, NaN, NaN, NaN, 0.04089605, "- N/A -   "
1.86, 47.7687, 0.00320715, NaN, NaN, NaN, 0.04089605, "- N/A -   "
1.87, 48.00462, 0.003223809, NaN, NaN, NaN, 0.04089605, "- N/A -   "
1.88, 48.2405, 0.00324047, NaN, NaN, NaN, 0.04089605, "- N/A -   "
1.89, 48.59436, 0.00325713, NaN, NaN, NaN, 0.04089605, "- N/A -   "
1.9, 48.83025, 0.00327379, NaN, NaN, NaN, 0.04089605, "- N/A -   "
1.91, 49.1841, 0.00329045, NaN, NaN, NaN, 0.04089605, "- N/A -   "
1.92, 49.30204, 0.00330711, NaN, NaN, NaN, 0.04089605, "- N/A -   "
1.93, 49.6559, 0.003323772, NaN, NaN, NaN, 0.04089605, "- N/A -   "
1.94, 50.0097, 0.00334321, NaN, NaN, NaN, 0.04089605, "- N/A -   "
1.95, 50.2456, 0.00335987, NaN, NaN, NaN, 0.0396753, "- N/A -   "
1.96, 50.5995, 0.00337653, NaN, NaN, NaN, 0.0396753, "- N/A -   "
1.97, 50.83536, 0.00339597, NaN, NaN, NaN, 0.0384545, "- N/A -   "
1.98, 51.1892, 0.0034154, NaN, NaN, NaN, 0.0384545, "- N/A -   "
1.99, 51.4251, 0.00342929, NaN, NaN, NaN, 0.0384545, "- N/A -   "
2, 51.7789, 0.00344873, NaN, NaN, NaN, 0.0372337, "- N/A -   "
2.01, 52.1328, 0.00346539, NaN, NaN, NaN, 0.0372337, "- N/A -   "
2.02, 52.36868, 0.00348205, NaN, NaN, NaN, 0.0372337, "- N/A -   "
2.03, 52.6046, 0.00349871, NaN, NaN, NaN, 0.0372337, "- N/A -   "
2.04, 52.9584, 0.00351537, NaN, NaN, NaN, 0.0372337, "- N/A -   "
2.05, 53.19431, 0.00353481, NaN, NaN, NaN, 0.03601294, "- N/A -   "
2.06, 53.4302, 0.00355147, NaN, NaN, NaN, 0.03601294, "- N/A -   "
2.07, 53.6661, 0.00356813, NaN, NaN, NaN, 0.03601294, "- N/A -   "
2.08, 54.0199, 0.00358479, NaN, NaN, NaN, 0.03601294, "- N/A -   "
2.09, 54.2558, 0.003604224, NaN, NaN, NaN, 0.0347922, "- N/A -   "
2.1, 54.6097, 0.00362088, NaN, NaN, NaN, 0.0347922, "- N/A -   "
2.11, 54.8456, 0.00363754, NaN, NaN, NaN, 0.0347922, "- N/A -   "
2.12, 55.1994, 0.00365698, NaN, NaN, NaN, 0.0335714, "- N/A -   "
2.13, 55.55326, 0.00367642, NaN, NaN, NaN, 0.0335714, "- N/A -   "
2.14, 55.7892, 0.00369586, NaN, NaN, NaN, 0.0323506, "- N/A -   "
2.15, 56.2609, 0.00371252, NaN, NaN, NaN, 0.03112983, "- N/A -   "
2.16, 56.4968, 0.00373195, NaN, NaN, NaN, 0.0299091, "- N/A -   "
2.17, 56.85068, 0.003748615, NaN, NaN, NaN, 0.0299091, "- N/A -   "
2.18, 57.08658, 0.00376528, NaN, NaN, NaN, 0.0299091, "- N/A -   "
2.19, 57.20452, 0.00377916, NaN, NaN, NaN, 0.03112983, "- N/A -   "
2.2, 57.44042, 0.003793043, NaN, NaN, NaN, 0.0323506, "- N/A -   "
2.21, 57.79426, 0.0038097, NaN, NaN, NaN, 0.0323506, "- N/A -   "
2.22, 58.1481, 0.003826364, NaN, NaN, NaN, 0.0323506, "- N/A -   "
2.23, 58.26605, 0.00384302, NaN, NaN, NaN, 0.0335714, "- N/A -   "
2.24, 58.6199, 0.00385691, NaN, NaN, NaN, 0.0335714, "- N/A -   "
2.25, 58.8558, 0.003873569, NaN, NaN, NaN, 0.0335714, "- N/A -   "
2.26, 59.0917, 0.00389023, NaN, NaN, NaN, 0.0335714, "- N/A -   "
2.27, 59.3276, 0.003904113, NaN, NaN, NaN, 0.0347922, "- N/A -   "
2.28, 59.68142, 0.00392077, NaN, NaN, NaN, 0.0347922, "- N/A -   "
2.29, 59.9173, 0.003937434, NaN, NaN, NaN, 0.0347922, "- N/A -   "
2.3, 60.15321, 0.00395409, NaN, NaN, NaN, 0.03601294, "- N/A -   "
2.31, 60.27116, 0.00396798, NaN, NaN, NaN, 0.03601294, "- N/A -   "
2.32, 60.7429, 0.003984639, NaN, NaN, NaN, 0.03601294, "- N/A -   "
2.33, 61.09679, 0.004004076, NaN, NaN, NaN, 0.0347922, "- N/A -   "
2.34, 61.45063, 0.00402074, NaN, NaN, NaN, 0.0347922, "- N/A -   "
2.35, 61.56858, 0.004037397, NaN, NaN, NaN, 0.0347922, "- N/A -   "
2.36, 61.9224, 0.00405683, NaN, NaN, NaN, 0.0335714, "- N/A -   "
2.37, 62.1583, 0.004076272, NaN, NaN, NaN, 0.0335714, "- N/A -   "
2.38, 62.5122, 0.004092932, NaN, NaN, NaN, 0.0323506, "- N/A -   "
2.39, 62.7481, 0.00410959, NaN, NaN, NaN, 0.0323506, "- N/A -   "
2.4, 63.1019, 0.004126253, NaN, NaN, NaN, 0.0323506, "- N/A -   "
2.41, 63.45574, 0.00414291, NaN, NaN, NaN, 0.0323506, "- N/A -   "
2.42, 63.5737, 0.00415957, NaN, NaN, NaN, 0.0335714, "- N/A -   "
2.43, 63.92753, 0.004173458, NaN, NaN, NaN, 0.0335714, "- N/A -   "
2.44, 64.16342, 0.004187342, NaN, NaN, NaN, 0.03601294, "- N/A -   "
2.45, 64.3993, 0.00420123, NaN, NaN, NaN, 0.0372337, "- N/A -   "
2.46, 64.6352, 0.004215109, NaN, NaN, NaN, 0.0372337, "- N/A -   "
2.47, 64.75317, 0.00422899, NaN, NaN, NaN, 0.0384545, "- N/A -   "
2.48, 65.107, 0.00424288, NaN, NaN, NaN, 0.0396753, "- N/A -   "
2.49, 65.4608, 0.00425954, NaN, NaN, NaN, 0.0396753, "- N/A -   "
2.5, 65.69674, 0.004276198, NaN, NaN, NaN, 0.0396753, "- N/A -   "
2.51, 65.93263, 0.00429286, NaN, NaN, NaN, 0.0396753, "- N/A -   "
2.52, 66.16853, 0.004306742, NaN, NaN, NaN, 0.04089605, "- N/A -   "
2.53, 66.52237, 0.004323403, NaN, NaN, NaN, 0.04089605, "- N/A -   "
2.54, 66.75827, 0.00434006, NaN, NaN, NaN, 0.04089605, "- N/A -   "
2.55, 67.1121, 0.00435672, NaN, NaN, NaN, 0.04089605, "- N/A -   "
2.56, 67.34801, 0.004373384, NaN, NaN, NaN, 0.04089605, "- N/A -   "
2.57, 67.70185, 0.00439004, NaN, NaN, NaN, 0.04089605, "- N/A -   "
2.58, 67.9377, 0.00440393, NaN, NaN, NaN, 0.04211683, "- N/A -   "
2.59, 68.17364, 0.00441781, NaN, NaN, NaN, 0.0433376, "- N/A -   "
2.6, 68.40953, 0.0044317, NaN, NaN, NaN, 0.0445584, "- N/A -   "
2.61, 68.6454, 0.00445113, NaN, NaN, NaN, 0.0433376, "- N/A -   "
2.62, 68.9993, 0.00447057, NaN, NaN, NaN, 0.04211683, "- N/A -   "
2.63, 69.47106, 0.00449001, NaN, NaN, NaN, 0.04211683, "- N/A -   "
2.64, 69.707, 0.00450667, NaN, NaN, NaN, 0.04089605, "- N/A -   "
2.65, 70.0608, 0.00452611, NaN, NaN, NaN, 0.04089605, "- N/A -   "
2.66, 70.41464, 0.004542766, NaN, NaN, NaN, 0.0396753, "- N/A -   "
2.67, 70.7685, 0.0045622, NaN, NaN, NaN, 0.0384545, "- N/A -   "
2.68, 71.12233, 0.00457886, NaN, NaN, NaN, 0.0384545, "- N/A -   "
2.69, 71.4762, 0.004601078, NaN, NaN, NaN, 0.03601294, "- N/A -   "
2.7, 71.83001, 0.004617738, NaN, NaN, NaN, 0.03601294, "- N/A -   "
2.71, 72.06591, 0.004639952, NaN, NaN, NaN, 0.0347922, "- N/A -   "
2.72, 72.5377, 0.00465939, NaN, NaN, NaN, 0.0323506, "- N/A -   "
2.73, 72.89154, 0.00467605, NaN, NaN, NaN, 0.0323506, "- N/A -   "
2.74, 73.12743, 0.004692711, NaN, NaN, NaN, 0.0323506, "- N/A -   "
2.75, 73.36333, 0.004709371, NaN, NaN, NaN, 0.0323506, "- N/A -   "
2.76, 73.59922, 0.004726032, NaN, NaN, NaN, 0.0323506, "- N/A -   "
2.77, 73.83511, 0.004742692, NaN, NaN, NaN, 0.0323506, "- N/A -   "
2.78, 74.189, 0.00476213, NaN, NaN, NaN, 0.0323506, "- N/A -   "
2.79, 74.42485, 0.004776013, NaN, NaN, NaN, 0.0323506, "- N/A -   "
2.8, 74.7787, 0.00479545, NaN, NaN, NaN, 0.0323506, "- N/A -   "
2.81, 75.0146, 0.004812111, NaN, NaN, NaN, 0.0323506, "- N/A -   "
2.82, 75.36844, 0.004828771, NaN, NaN, NaN, 0.0323506, "- N/A -   "
2.83, 75.6043, 0.00484266, NaN, NaN, NaN, 0.0323506, "- N/A -   "
2.84, 75.8402, 0.004856539, NaN, NaN, NaN, 0.0335714, "- N/A -   "
2.85, 76.07612, 0.0048732, NaN, NaN, NaN, 0.0347922, "- N/A -   "
2.86, 76.31202, 0.004887083, NaN, NaN, NaN, 0.0347922, "- N/A -   "
2.87, 76.6659, 0.004903744, NaN, NaN, NaN, 0.0347922, "- N/A -   "
2.88, 77.0197, 0.004923181, NaN, NaN, NaN, 0.0347922, "- N/A -   "
2.89, 77.25559, 0.004939841, NaN, NaN, NaN, 0.0347922, "- N/A -   "
2.9, 77.6094, 0.004956502, NaN, NaN, NaN, 0.0335714, "- N/A -   "
2.91, 77.96328, 0.004975939, NaN, NaN, NaN, 0.0323506, "- N/A -   "
2.92, 78.31712, 0.00499538, NaN, NaN, NaN, 0.03112983, "- N/A -   "
2.93, 78.55301, 0.005012037, NaN, NaN, NaN, 0.03112983, "- N/A -   "
2.94, 78.90686, 0.005028697, NaN, NaN, NaN, 0.03112983, "- N/A -   "
2.95, 79.2607, 0.00504814, NaN, NaN, NaN, 0.0299091, "- N/A -   "
2.96, 79.4966, 0.0050648, NaN, NaN, NaN, 0.0299091, "- N/A -   "
2.97, 79.85043, 0.005081456, NaN, NaN, NaN, 0.0299091, "- N/A -   "
2.98, 80.20428, 0.005098116, NaN, NaN, NaN, 0.0299091, "- N/A -   "
2.99, 80.44018, 0.005114777, NaN, NaN, NaN, 0.0299091, "- N/A -   "
3, 80.67606, 0.00513144, NaN, NaN, NaN, 0.0299091, "- N/A -   "
3.01, 81.0299, 0.0051481, NaN, NaN, NaN, 0.0299091, "- N/A -   "
3.02, 81.26581, 0.00516476, NaN, NaN, NaN, 0.0299091, "- N/A -   "
3.03, 81.61965, 0.005181419, NaN, NaN, NaN, 0.0299091, "- N/A -   "
3.04, 81.8555, 0.0051953, NaN, NaN, NaN, 0.03112983, "- N/A -   "
3.05, 82.20939, 0.00521196, NaN, NaN, NaN, 0.03112983, "- N/A -   "
3.06, 82.32734, 0.005225847, NaN, NaN, NaN, 0.0323506, "- N/A -   "
3.07, 82.68118, 0.00523973, NaN, NaN, NaN, 0.0335714, "- N/A -   "
3.08, 82.91707, 0.005256391, NaN, NaN, NaN, 0.0347922, "- N/A -   "
3.09, 83.15297, 0.00527028, NaN, NaN, NaN, 0.0347922, "- N/A -   "
3.1, 83.50681, 0.00528694, NaN, NaN, NaN, 0.03601294, "- N/A -   "
3.11, 83.74271, 0.00529804, NaN, NaN, NaN, 0.0372337, "- N/A -   "
3.12, 83.9786, 0.005314703, NaN, NaN, NaN, 0.0372337, "- N/A -   "
3.13, 84.21449, 0.005328587, NaN, NaN, NaN, 0.0384545, "- N/A -   "
3.14, 84.45039, 0.00533969, NaN, NaN, NaN, 0.04089605, "- N/A -   "
3.15, 84.68629, 0.005356354, NaN, NaN, NaN, 0.04089605, "- N/A -   "
3.16, 84.92217, 0.00537024, NaN, NaN, NaN, 0.04211683, "- N/A -   "
3.17, 85.15807, 0.0053869, NaN, NaN, NaN, 0.0433376, "- N/A -   "
3.18, 85.39397, 0.00540078, NaN, NaN, NaN, 0.0433376, "- N/A -   "
3.19, 85.74781, 0.00541744, NaN, NaN, NaN, 0.0433376, "- N/A -   "
3.2, 86.1017, 0.00543133, NaN, NaN, NaN, 0.0445584, "- N/A -   "
3.21, 86.33755, 0.00544799, NaN, NaN, NaN, 0.0445584, "- N/A -   "
3.22, 86.57345, 0.00546465, NaN, NaN, NaN, 0.0445584, "- N/A -   "
3.23, 86.92729, 0.00548131, NaN, NaN, NaN, 0.0445584, "- N/A -   "
3.24, 87.16318, 0.00549797, NaN, NaN, NaN, 0.0445584, "- N/A -   "
3.25, 87.51702, 0.00551185, NaN, NaN, NaN, 0.04577916, "- N/A -   "
3.26, 87.8709, 0.00553129, NaN, NaN, NaN, 0.0445584, "- N/A -   "
3.27, 88.22471, 0.00554517, NaN, NaN, NaN, 0.04577916, "- N/A -   "
3.28, 88.4606, 0.00556461, NaN, NaN, NaN, 0.04577916, "- N/A -   "
3.29, 88.6965, 0.00558127, NaN, NaN, NaN, 0.04577916, "- N/A -   "
3.3, 89.05035, 0.005597932, NaN, NaN, NaN, 0.0445584, "- N/A -   "
3.31, 89.40418, 0.005617369, NaN, NaN, NaN, 0.0433376, "- N/A -   "
3.32, 89.87598, 0.00563681, NaN, NaN, NaN, 0.04211683, "- N/A -   "
3.33, 90.22981, 0.005656244, NaN, NaN, NaN, 0.04089605, "- N/A -   "
3.34, 90.58366, 0.0056729, NaN, NaN, NaN, 0.04089605, "- N/A -   "
3.35, 90.9375, 0.00569234, NaN, NaN, NaN, 0.0396753, "- N/A -   "
3.36, 91.1734, 0.00571178, NaN, NaN, NaN, 0.0396753, "- N/A -   "
3.37, 91.52724, 0.00573122, NaN, NaN, NaN, 0.0372337, "- N/A -   "
3.38, 91.88108, 0.00574788, NaN, NaN, NaN, 0.0372337, "- N/A -   "
3.39, 92.23492, 0.00576731, NaN, NaN, NaN, 0.03601294, "- N/A -   "
3.4, 92.47082, 0.00578397, NaN, NaN, NaN, 0.03601294, "- N/A -   "
3.41, 92.82466, 0.00580341, NaN, NaN, NaN, 0.0347922, "- N/A -   "
3.42, 93.2965, 0.00582285, NaN, NaN, NaN, 0.0347922, "- N/A -   "
3.43, 93.53234, 0.005839509, NaN, NaN, NaN, 0.0335714, "- N/A -   "
3.44, 93.8862, 0.00585617, NaN, NaN, NaN, 0.0335714, "- N/A -   "
3.45, 94.1221, 0.005875607, NaN, NaN, NaN, 0.0323506, "- N/A -   "
3.46, 94.35797, 0.00589227, NaN, NaN, NaN, 0.0335714, "- N/A -   "
3.47, 94.8298, 0.005908928, NaN, NaN, NaN, 0.0323506, "- N/A -   "
3.48, 95.06567, 0.005925589, NaN, NaN, NaN, 0.0323506, "- N/A -   "
3.49, 95.41951, 0.00594225, NaN, NaN, NaN, 0.0335714, "- N/A -   "
3.5, 95.7733, 0.005961686, NaN, NaN, NaN, 0.0323506, "- N/A -   "
3.51, 96.00924, 0.005978347, NaN, NaN, NaN, 0.0323506, "- N/A -   "
3.52, 96.36309, 0.005997784, NaN, NaN, NaN, 0.03112983, "- N/A -   "
3.53, 96.71693, 0.006017221, NaN, NaN, NaN, 0.0299091, "- N/A -   "
3.54, 96.95282, 0.006033882, NaN, NaN, NaN, 0.0299091, "- N/A -   "
3.55, 97.4246, 0.00605332, NaN, NaN, NaN, 0.0286883, "- N/A -   "
3.56, 97.6605, 0.00606998, NaN, NaN, NaN, 0.0286883, "- N/A -   "
3.57, 98.01435, 0.00608664, NaN, NaN, NaN, 0.0299091, "- N/A -   "
3.58, 98.2502, 0.006103301, NaN, NaN, NaN, 0.0286883, "- N/A -   "
3.59, 98.60408, 0.006119961, NaN, NaN, NaN, 0.0286883, "- N/A -   "
3.6, 98.9579, 0.006136622, NaN, NaN, NaN, 0.0286883, "- N/A -   "
3.61, 99.3118, 0.00615328, NaN, NaN, NaN, 0.0286883, "- N/A -   "
3.62, 99.42972, 0.00616994, NaN, NaN, NaN, 0.0286883, "- N/A -   "
3.63, 99.7836, 0.006186603, NaN, NaN, NaN, 0.0286883, "- N/A -   "
3.64, 100.019, 0.006203264, NaN, NaN, NaN, 0.0286883, "- N/A -   "
3.65, 100.3733, 0.006217147, NaN, NaN, NaN, 0.0299091, "- N/A -   "
3.66, 100.6092, 0.006231031, NaN, NaN, NaN, 0.03112983, "- N/A -   "
3.67, 100.845, 0.006244915, NaN, NaN, NaN, 0.0323506, "- N/A -   "
3.68, 101.081, 0.0062588, NaN, NaN, NaN, 0.0335714, "- N/A -   "
3.69, 101.317, 0.006272682, NaN, NaN, NaN, 0.0347922, "- N/A -   "
3.7, 101.671, 0.006289343, NaN, NaN, NaN, 0.0347922, "- N/A -   "
3.71, 101.907, 0.006303227, NaN, NaN, NaN, 0.03601294, "- N/A -   "
3.72, 102.143, 0.00631711, NaN, NaN, NaN, 0.0372337, "- N/A -   "
3.73, 102.496, 0.006333771, NaN, NaN, NaN, 0.0372337, "- N/A -   "
3.74, 102.85, 0.006350431, NaN, NaN, NaN, 0.0372337, "- N/A -   "
3.75, 102.968, 0.00636432, NaN, NaN, NaN, 0.0384545, "- N/A -   "
3.76, 103.204, 0.006380976, NaN, NaN, NaN, 0.0384545, "- N/A -   "
3.77, 103.558, 0.006397636, NaN, NaN, NaN, 0.0384545, "- N/A -   "
3.78, 103.912, 0.00641152, NaN, NaN, NaN, 0.0396753, "- N/A -   "
3.79, 104.148, 0.00642818, NaN, NaN, NaN, 0.0396753, "- N/A -   "
3.8, 104.384, 0.00644206, NaN, NaN, NaN, 0.04089605, "- N/A -   "
3.81, 104.737, 0.006458725, NaN, NaN, NaN, 0.04089605, "- N/A -   "
3.82, 104.973, 0.006478162, NaN, NaN, NaN, 0.0396753, "- N/A -   "
3.83, 105.327, 0.006492046, NaN, NaN, NaN, 0.04211683, "- N/A -   "
3.84, 105.563, 0.00650593, NaN, NaN, NaN, 0.0433376, "- N/A -   "
3.85, 105.799, 0.006519813, NaN, NaN, NaN, 0.0433376, "- N/A -   "
3.86, 106.035, 0.006536474, NaN, NaN, NaN, 0.0433376, "- N/A -   "
3.87, 106.271, 0.006550358, NaN, NaN, NaN, 0.0445584, "- N/A -   "
3.88, 106.742, 0.006567018, NaN, NaN, NaN, 0.0445584, "- N/A -   "
3.89, 106.978, 0.006583679, NaN, NaN, NaN, 0.0445584, "- N/A -   "
3.9, 107.3322, 0.006600339, NaN, NaN, NaN, 0.0445584, "- N/A -   "
3.91, 107.45, 0.006617, NaN, NaN, NaN, 0.0445584, "- N/A -   "
3.92, 107.804, 0.00663366, NaN, NaN, NaN, 0.0445584, "- N/A -   "
3.93, 108.04, 0.006650321, NaN, NaN, NaN, 0.0445584, "- N/A -   "
3.94, 108.394, 0.006666981, NaN, NaN, NaN, 0.0445584, "- N/A -   "
3.95, 108.748, 0.006683642, NaN, NaN, NaN, 0.0445584, "- N/A -   "
3.96, 109.101, 0.006703079, NaN, NaN, NaN, 0.0433376, "- N/A -   "
3.97, 109.3373, 0.006719739, NaN, NaN, NaN, 0.0433376, "- N/A -   "
3.98, 109.691, 0.00673362, NaN, NaN, NaN, 0.0445584, "- N/A -   "
3.99, 109.927, 0.00675306, NaN, NaN, NaN, 0.0445584, "- N/A -   "
4, 110.399, 0.00676972, NaN, NaN, NaN, 0.0433376, "- N/A -   "
4.01, 110.635, 0.006789158, NaN, NaN, NaN, 0.04211683, "- N/A -   "
4.02, 111.107, 0.006805819, NaN, NaN, NaN, 0.04211683, "- N/A -   "
4.03, 111.342, 0.00682248, NaN, NaN, NaN, 0.04211683, "- N/A -   "
4.04, 111.578, 0.00684192, NaN, NaN, NaN, 0.04089605, "- N/A -   "
4.05, 112.0501, 0.00685858, NaN, NaN, NaN, 0.04089605, "- N/A -   "
4.06, 112.286, 0.00687524, NaN, NaN, NaN, 0.04089605, "- N/A -   "
4.07, 112.64, 0.006894675, NaN, NaN, NaN, 0.0396753, "- N/A -   "
4.08, 112.876, 0.00691411, NaN, NaN, NaN, 0.0384545, "- N/A -   "
4.09, 113.348, 0.00693355, NaN, NaN, NaN, 0.0372337, "- N/A -   "
4.1, 113.819, 0.00695576, NaN, NaN, NaN, 0.0347922, "- N/A -   "
4.11, 114.055, 0.0069752, NaN, NaN, NaN, 0.0335714, "- N/A -   "
4.12, 114.527, 0.006994638, NaN, NaN, NaN, 0.0323506, "- N/A -   "
4.13, 114.881, 0.00701408, NaN, NaN, NaN, 0.03112983, "- N/A -   "
4.14, 115.117, 0.00703074, NaN, NaN, NaN, 0.03112983, "- N/A -   "
4.15, 115.471, 0.00705017, NaN, NaN, NaN, 0.0299091, "- N/A -   "
4.16, 115.706, 0.00706683, NaN, NaN, NaN, 0.0299091, "- N/A -   "
4.17, 116.06, 0.007083494, NaN, NaN, NaN, 0.0299091, "- N/A -   "
4.18, 116.296, 0.00710015, NaN, NaN, NaN, 0.0299091, "- N/A -   "
4.19, 116.65, 0.00711404, NaN, NaN, NaN, 0.03112983, "- N/A -   "
4.2, 116.886, 0.0071307, NaN, NaN, NaN, 0.03112983, "- N/A -   "
4.21, 117.24, 0.00715014, NaN, NaN, NaN, 0.0299091, "- N/A -   "
4.22, 117.594, 0.0071668, NaN, NaN, NaN, 0.0299091, "- N/A -   "
4.23, 117.83, 0.00718068, NaN, NaN, NaN, 0.03112983, "- N/A -   "
4.24, 118.065, 0.00719734, NaN, NaN, NaN, 0.03112983, "- N/A -   "
4.25, 118.183, 0.007214, NaN, NaN, NaN, 0.03112983, "- N/A -   "
4.26, 118.655, 0.00722789, NaN, NaN, NaN, 0.0323506, "- N/A -   "
4.27, 118.891, 0.00724455, NaN, NaN, NaN, 0.0323506, "- N/A -   "
4.28, 119.009, 0.00726121, NaN, NaN, NaN, 0.0323506, "- N/A -   "
4.29, 119.363, 0.00727509, NaN, NaN, NaN, 0.0335714, "- N/A -   "
4.3, 119.717, 0.00729175, NaN, NaN, NaN, 0.0335714, "- N/A -   "
4.31, 120.071, 0.007308411, NaN, NaN, NaN, 0.0335714, "- N/A -   "
4.32, 120.306, 0.00732507, NaN, NaN, NaN, 0.0335714, "- N/A -   "
4.33, 120.424, 0.007341732, NaN, NaN, NaN, 0.0335714, "- N/A -   "
4.34, 120.778, 0.00735839, NaN, NaN, NaN, 0.0335714, "- N/A -   "
4.35, 121.014, 0.00737505, NaN, NaN, NaN, 0.0335714, "- N/A -   "
4.36, 121.368, 0.007388937, NaN, NaN, NaN, 0.0347922, "- N/A -   "
4.37, 121.604, 0.0074056, NaN, NaN, NaN, 0.0347922, "- N/A -   "
4.38, 121.84, 0.007419481, NaN, NaN, NaN, 0.03601294, "- N/A -   "
4.39, 122.194, 0.007436142, NaN, NaN, NaN, 0.03601294, "- N/A -   "
4.4, 122.429, 0.007452802, NaN, NaN, NaN, 0.03601294, "- N/A -   "
4.41, 122.783, 0.00746946, NaN, NaN, NaN, 0.03601294, "- N/A -   "
4.42, 123.019, 0.00748612, NaN, NaN, NaN, 0.03601294, "- N/A -   "
4.43, 123.373, 0.00750278, NaN, NaN, NaN, 0.03601294, "- N/A -   "
4.44, 123.7269, 0.007519444, NaN, NaN, NaN, 0.03601294, "- N/A -   "
4.45, 123.963, 0.007536105, NaN, NaN, NaN, 0.03601294, "- N/A -   "
4.46, 124.199, 0.007552765, NaN, NaN, NaN, 0.0372337, "- N/A -   "
4.47, 124.553, 0.007566649, NaN, NaN, NaN, 0.0372337, "- N/A -   "
4.48, 124.67, 0.00758053, NaN, NaN, NaN, 0.0384545, "- N/A -   "
4.49, 125.024, 0.007594417, NaN, NaN, NaN, 0.0396753, "- N/A -   "
4.5, 125.142, 0.007611077, NaN, NaN, NaN, 0.0396753, "- N/A -   "
4.51, 125.496, 0.007624961, NaN, NaN, NaN, 0.04211683, "- N/A -   "
4.52, 125.732, 0.00763884, NaN, NaN, NaN, 0.04211683, "- N/A -   "
4.53, 125.9679, 0.007655505, NaN, NaN, NaN, 0.04211683, "- N/A -   "
4.54, 126.322, 0.00767217, NaN, NaN, NaN, 0.04211683, "- N/A -   "
4.55, 126.676, 0.007686049, NaN, NaN, NaN, 0.0433376, "- N/A -   "
4.56, 126.794, 0.00770271, NaN, NaN, NaN, 0.0433376, "- N/A -   "
4.57, 127.147, 0.00771937, NaN, NaN, NaN, 0.0433376, "- N/A -   "
4.58, 127.265, 0.00773325, NaN, NaN, NaN, 0.0445584, "- N/A -   "
4.59, 127.737, 0.00774991, NaN, NaN, NaN, 0.0445584, "- N/A -   "
4.6, 127.973, 0.007766575, NaN, NaN, NaN, 0.04577916, "- N/A -   "
4.61, 128.209, 0.007783236, NaN, NaN, NaN, 0.04577916, "- N/A -   "
4.62, 128.563, 0.007797119, NaN, NaN, NaN, 0.04577916, "- N/A -   "
4.63, 128.917, 0.007816557, NaN, NaN, NaN, 0.0445584, "- N/A -   "
4.64, 129.27, 0.007833217, NaN, NaN, NaN, 0.0445584, "- N/A -   "
4.65, 129.506, 0.007852654, NaN, NaN, NaN, 0.0433376, "- N/A -   "
4.66, 129.86, 0.007869315, NaN, NaN, NaN, 0.0433376, "- N/A -   "
4.67, 130.214, 0.007888752, NaN, NaN, NaN, 0.04211683, "- N/A -   "
4.68, 130.568, 0.007908189, NaN, NaN, NaN, 0.04089605, "- N/A -   "
4.69, 130.922, 0.007930404, NaN, NaN, NaN, 0.0396753, "- N/A -   "
4.7, 131.393, 0.007947064, NaN, NaN, NaN, 0.0384545, "- N/A -   "
4.71, 131.629, 0.007966501, NaN, NaN, NaN, 0.0384545, "- N/A -   "
4.72, 131.983, 0.007983162, NaN, NaN, NaN, 0.0372337, "- N/A -   "
4.73, 132.219, 0.008002599, NaN, NaN, NaN, 0.0372337, "- N/A -   "
4.74, 132.573, 0.008019259, NaN, NaN, NaN, 0.03601294, "- N/A -   "
4.75, 132.9268, 0.008038697, NaN, NaN, NaN, 0.0347922, "- N/A -   "
4.76, 133.281, 0.008055357, NaN, NaN, NaN, 0.0347922, "- N/A -   "
4.77, 133.634, 0.008074794, NaN, NaN, NaN, 0.0335714, "- N/A -   "
4.78, 133.87, 0.008091455, NaN, NaN, NaN, 0.0335714, "- N/A -   "
4.79, 134.106, 0.008110892, NaN, NaN, NaN, 0.0335714, "- N/A -   "
4.8, 134.578, 0.008127553, NaN, NaN, NaN, 0.0323506, "- N/A -   "
4.81, 134.814, 0.00814699, NaN, NaN, NaN, 0.03112983, "- N/A -   "
4.82, 135.05, 0.00816365, NaN, NaN, NaN, 0.03112983, "- N/A -   "
4.83, 135.4037, 0.008177535, NaN, NaN, NaN, 0.0323506, "- N/A -   "
4.84, 135.64, 0.008194195, NaN, NaN, NaN, 0.0323506, "- N/A -   "
4.85, 135.993, 0.008210856, NaN, NaN, NaN, 0.0323506, "- N/A -   "
4.86, 136.111, 0.008224739, NaN, NaN, NaN, 0.0335714, "- N/A -   "
4.87, 136.465, 0.008241399, NaN, NaN, NaN, 0.0335714, "- N/A -   "
4.88, 136.819, 0.008258061, NaN, NaN, NaN, 0.0335714, "- N/A -   "
4.89, 137.055, 0.00827472, NaN, NaN, NaN, 0.0335714, "- N/A -   "
4.9, 137.291, 0.008291381, NaN, NaN, NaN, 0.0335714, "- N/A -   "
4.91, 137.527, 0.008305265, NaN, NaN, NaN, 0.0347922, "- N/A -   "
4.92, 137.8806, 0.008324702, NaN, NaN, NaN, 0.0335714, "- N/A -   "
4.93, 138.116, 0.008341363, NaN, NaN, NaN, 0.0335714, "- N/A -   "
4.94, 138.47, 0.0083608, NaN, NaN, NaN, 0.0335714, "- N/A -   "
4.95, 138.706, 0.008377461, NaN, NaN, NaN, 0.0335714, "- N/A -   "
4.96, 139.06, 0.008391344, NaN, NaN, NaN, 0.0335714, "- N/A -   "
4.97, 139.414, 0.008410782, NaN, NaN, NaN, 0.0323506, "- N/A -   "
4.98, 139.768, 0.008427442, NaN, NaN, NaN, 0.0323506, "- N/A -   "
4.99, 140.004, 0.0084441, NaN, NaN, NaN, 0.0323506, "- N/A -   "
5, 140.24, 0.008460763, NaN, NaN, NaN, 0.0323506, "- N/A -   "
5.01, 140.475, 0.008477423, NaN, NaN, NaN, 0.0323506, "- N/A -   "
5.02, 140.829, 0.008494084, NaN, NaN, NaN, 0.0323506, "- N/A -   "
5.03, 141.183, 0.008510744, NaN, NaN, NaN, 0.0323506, "- N/A -   "
5.04, 141.537, 0.008527406, NaN, NaN, NaN, 0.0323506, "- N/A -   "
5.05, 141.6549, 0.008541289, NaN, NaN, NaN, 0.0335714, "- N/A -   "
5.06, 141.891, 0.008557949, NaN, NaN, NaN, 0.0335714, "- N/A -   "
5.07, 142.245, 0.008571833, NaN, NaN, NaN, 0.0347922, "- N/A -   "
5.08, 142.481, 0.008585717, NaN, NaN, NaN, 0.03601294, "- N/A -   "
5.09, 142.5985, 0.008602377, NaN, NaN, NaN, 0.03601294, "- N/A -   "
5.1, 142.952, 0.008619037, NaN, NaN, NaN, 0.03601294, "- N/A -   "
5.11, 143.306, 0.008635699, NaN, NaN, NaN, 0.03601294, "- N/A -   "
5.12, 143.542, 0.008649582, NaN, NaN, NaN, 0.0372337, "- N/A -   "
5.13, 143.778, 0.00866624, NaN, NaN, NaN, 0.0372337, "- N/A -   "
5.14, 143.896, 0.008680127, NaN, NaN, NaN, 0.0384545, "- N/A -   "
5.15, 144.25, 0.008696787, NaN, NaN, NaN, 0.0384545, "- N/A -   "
5.16, 144.486, 0.00871067, NaN, NaN, NaN, 0.0396753, "- N/A -   "
5.17, 144.8395, 0.008727332, NaN, NaN, NaN, 0.0396753, "- N/A -   "
5.18, 145.0754, 0.008743991, NaN, NaN, NaN, 0.0396753, "- N/A -   "
5.19, 145.311, 0.00876065, NaN, NaN, NaN, 0.04089605, "- N/A -   "
5.2, 145.665, 0.008774536, NaN, NaN, NaN, 0.04089605, "- N/A -   "
5.21, 145.901, 0.008791196, NaN, NaN, NaN, 0.04089605, "- N/A -   "
5.22, 146.137, 0.008807857, NaN, NaN, NaN, 0.04089605, "- N/A -   "
5.23, 146.3728, 0.008824518, NaN, NaN, NaN, 0.04211683, "- N/A -   "
5.24, 146.727, 0.008841177, NaN, NaN, NaN, 0.04089605, "- N/A -   "
5.25, 147.0805, 0.008857839, NaN, NaN, NaN, 0.04089605, "- N/A -   "
5.26, 147.316, 0.008871722, NaN, NaN, NaN, 0.04211683, "- N/A -   "
5.27, 147.67, 0.00889116, NaN, NaN, NaN, 0.04211683, "- N/A -   "
5.28, 147.788, 0.00890782, NaN, NaN, NaN, 0.04211683, "- N/A -   "
5.29, 148.142, 0.008921703, NaN, NaN, NaN, 0.04211683, "- N/A -   "
5.3, 148.378, 0.00893559, NaN, NaN, NaN, 0.0433376, "- N/A -   "
5.31, 148.732, 0.008955025, NaN, NaN, NaN, 0.04211683, "- N/A -   "
5.32, 148.968, 0.008974462, NaN, NaN, NaN, 0.04211683, "- N/A -   "
5.33, 149.3215, 0.008991122, NaN, NaN, NaN, 0.04089605, "- N/A -   "
5.34, 149.675, 0.009007783, NaN, NaN, NaN, 0.04089605, "- N/A -   "
5.35, 150.029, 0.00902722, NaN, NaN, NaN, 0.0396753, "- N/A -   "
5.36, 150.265, 0.009043881, NaN, NaN, NaN, 0.0396753, "- N/A -   "
5.37, 150.619, 0.009060541, NaN, NaN, NaN, 0.0396753, "- N/A -   "
5.38, 150.855, 0.009079979, NaN, NaN, NaN, 0.0384545, "- N/A -   "
5.39, 151.091, 0.00909942, NaN, NaN, NaN, 0.0384545, "- N/A -   "
5.4, 151.445, 0.009116077, NaN, NaN, NaN, 0.0372337, "- N/A -   "
5.41, 151.798, 0.009132737, NaN, NaN, NaN, 0.0372337, "- N/A -   "
5.42, 152.034, 0.009152174, NaN, NaN, NaN, 0.03601294, "- N/A -   "
5.43, 152.506, 0.009171612, NaN, NaN, NaN, 0.0347922, "- N/A -   "
5.44, 152.742, 0.009188272, NaN, NaN, NaN, 0.0347922, "- N/A -   "
5.45, 152.978, 0.009207709, NaN, NaN, NaN, 0.0335714, "- N/A -   "
5.46, 153.214, 0.00922437, NaN, NaN, NaN, 0.0335714, "- N/A -   "
5.47, 153.45, 0.00924103, NaN, NaN, NaN, 0.0335714, "- N/A -   "
5.48, 153.686, 0.009257691, NaN, NaN, NaN, 0.0347922, "- N/A -   "
5.49, 154.0394, 0.009271575, NaN, NaN, NaN, 0.0347922, "- N/A -   "
5.5, 154.393, 0.009288235, NaN, NaN, NaN, 0.0347922, "- N/A -   "
5.51, 154.511, 0.009304896, NaN, NaN, NaN, 0.03601294, "- N/A -   "
5.52, 154.865, 0.009318779, NaN, NaN, NaN, 0.03601294, "- N/A -   "
5.53, 154.983, 0.00933544, NaN, NaN, NaN, 0.03601294, "- N/A -   "
5.54, 155.337, 0.0093521, NaN, NaN, NaN, 0.03601294, "- N/A -   "
5.55, 155.691, 0.00936876, NaN, NaN, NaN, 0.03601294, "- N/A -   "
5.56, 155.927, 0.009390975, NaN, NaN, NaN, 0.0347922, "- N/A -   "
5.57, 156.2804, 0.009407635, NaN, NaN, NaN, 0.0335714, "- N/A -   "
5.58, 156.5163, 0.009424295, NaN, NaN, NaN, 0.0335714, "- N/A -   "
5.59, 156.752, 0.009443733, NaN, NaN, NaN, 0.0323506, "- N/A -   "
5.6, 157.106, 0.009460393, NaN, NaN, NaN, 0.0323506, "- N/A -   "
5.61, 157.342, 0.009477055, NaN, NaN, NaN, 0.0323506, "- N/A -   "
5.62, 157.696, 0.009493715, NaN, NaN, NaN, 0.0323506, "- N/A -   "
5.63, 157.932, 0.009510376, NaN, NaN, NaN, 0.0323506, "- N/A -   "
5.64, 158.168, 0.009524259, NaN, NaN, NaN, 0.0335714, "- N/A -   "
5.65, 158.521, 0.009543696, NaN, NaN, NaN, 0.0323506, "- N/A -   "
5.66, 158.875, 0.009560357, NaN, NaN, NaN, 0.0323506, "- N/A -   "
5.67, 159.111, 0.009579794, NaN, NaN, NaN, 0.03112983, "- N/A -   "
5.68, 159.465, 0.009596455, NaN, NaN, NaN, 0.03112983, "- N/A -   "
5.69, 159.701, 0.009613114, NaN, NaN, NaN, 0.03112983, "- N/A -   "
5.7, 159.937, 0.009629775, NaN, NaN, NaN, 0.03112983, "- N/A -   "
5.71, 160.055, 0.00964366, NaN, NaN, NaN, 0.0323506, "- N/A -   "
5.72, 160.409, 0.00966032, NaN, NaN, NaN, 0.0323506, "- N/A -   "
5.73, 160.644, 0.00967698, NaN, NaN, NaN, 0.0323506, "- N/A -   "
5.74, 160.88, 0.009690863, NaN, NaN, NaN, 0.0335714, "- N/A -   "
5.75, 161.116, 0.009707525, NaN, NaN, NaN, 0.0335714, "- N/A -   "
5.76, 161.4701, 0.009724186, NaN, NaN, NaN, 0.0335714, "- N/A -   "
5.77, 161.706, 0.009738068, NaN, NaN, NaN, 0.0347922, "- N/A -   "
5.78, 161.942, 0.009757506, NaN, NaN, NaN, 0.0347922, "- N/A -   "
5.79, 162.178, 0.009774166, NaN, NaN, NaN, 0.0335714, "- N/A -   "
5.8, 162.532, 0.009790827, NaN, NaN, NaN, 0.0335714, "- N/A -   "
5.81, 162.768, 0.009810264, NaN, NaN, NaN, 0.0335714, "- N/A -   "
5.82, 163.0034, 0.009826925, NaN, NaN, NaN, 0.0323506, "- N/A -   "
5.83, 163.357, 0.009843585, NaN, NaN, NaN, 0.0323506, "- N/A -   "
5.84, 163.593, 0.009860245, NaN, NaN, NaN, 0.0323506, "- N/A -   "
5.85, 163.829, 0.00987413, NaN, NaN, NaN, 0.0335714, "- N/A -   "
5.86, 164.065, 0.009888013, NaN, NaN, NaN, 0.0347922, "- N/A -   "
5.87, 164.183, 0.009901898, NaN, NaN, NaN, 0.03601294, "- N/A -   "
5.88, 164.419, 0.00991578, NaN, NaN, NaN, 0.0372337, "- N/A -   "
5.89, 164.655, 0.009929665, NaN, NaN, NaN, 0.0384545, "- N/A -   "
5.9, 164.891, 0.009946326, NaN, NaN, NaN, 0.0384545, "- N/A -   "
5.91, 165.126, 0.009962986, NaN, NaN, NaN, 0.0384545, "- N/A -   "
5.92, 165.362, 0.00997687, NaN, NaN, NaN, 0.0396753, "- N/A -   "
5.93, 165.598, 0.009993529, NaN, NaN, NaN, 0.0396753, "- N/A -   "
5.94, 165.952, 0.0100102, NaN, NaN, NaN, 0.0396753, "- N/A -   "
5.95, 166.188, 0.0100241, NaN, NaN, NaN, 0.04089605, "- N/A -   "
[...]
25.04, 876.6222, 0.04183177, NaN, NaN, NaN, 0.0445584, "- N/A -   "
25.06, 877.5685, 0.0418623, NaN, NaN, NaN, 0.04577916, "- N/A -   "
25.08, 878.278, 0.0418956, NaN, NaN, NaN, 0.04577916, "- N/A -   "
25.1, 879.224, 0.041929, NaN, NaN, NaN, 0.04577916, "- N/A -   "
25.12, 880.289, 0.0419623, NaN, NaN, NaN, 0.04577916, "- N/A -   "
25.14, 881.235, 0.04200115, NaN, NaN, NaN, 0.0433376, "- N/A -   "
25.16, 882.2996, 0.04204, NaN, NaN, NaN, 0.04089605, "- N/A -   "
25.18, 883.2459, 0.0420817, NaN, NaN, NaN, 0.0384545, "- N/A -   "
25.2, 884.3104, 0.0421178, NaN, NaN, NaN, 0.03601294, "- N/A -   "
25.22, 885.4933, 0.0421566, NaN, NaN, NaN, 0.0335714, "- N/A -   "
25.24, 886.3212, 0.0421927, NaN, NaN, NaN, 0.0323506, "- N/A -   "
25.26, 887.386, 0.0422288, NaN, NaN, NaN, 0.03112983, "- N/A -   "
25.28, 888.214, 0.0422649, NaN, NaN, NaN, 0.0299091, "- N/A -   "
25.3, 888.9234, 0.04229549, NaN, NaN, NaN, 0.03112983, "- N/A -   "
25.32, 889.751, 0.04232603, NaN, NaN, NaN, 0.0323506, "- N/A -   "
25.34, 890.579, 0.0423566, NaN, NaN, NaN, 0.0347922, "- N/A -   "
25.36, 891.4073, 0.0423843, NaN, NaN, NaN, 0.03601294, "- N/A -   "
25.38, 892.117, 0.0424177, NaN, NaN, NaN, 0.03601294, "- N/A -   "
25.4, 893.063, 0.042451, NaN, NaN, NaN, 0.03601294, "- N/A -   "
25.42, 893.8912, 0.0424843, NaN, NaN, NaN, 0.03601294, "- N/A -   "
25.44, 894.7191, 0.0425176, NaN, NaN, NaN, 0.03601294, "- N/A -   "
25.46, 895.6654, 0.0425537, NaN, NaN, NaN, 0.03601294, "- N/A -   "
25.48, 896.612, 0.04258982, NaN, NaN, NaN, 0.0335714, "- N/A -   "
25.5, 897.676, 0.0426287, NaN, NaN, NaN, 0.0323506, "- N/A -   "
25.52, 898.504, 0.042662, NaN, NaN, NaN, 0.03112983, "- N/A -   "
25.54, 899.4504, 0.04269256, NaN, NaN, NaN, 0.0323506, "- N/A -   "
25.56, 900.16, 0.04272033, NaN, NaN, NaN, 0.0347922, "- N/A -   "
25.58, 900.8698, 0.0427509, NaN, NaN, NaN, 0.03601294, "- N/A -   "
25.6, 901.579, 0.0427814, NaN, NaN, NaN, 0.0372337, "- N/A -   "
25.62, 902.4074, 0.04280919, NaN, NaN, NaN, 0.0396753, "- N/A -   "
25.64, 903.117, 0.0428425, NaN, NaN, NaN, 0.0396753, "- N/A -   "
25.66, 904.063, 0.04287305, NaN, NaN, NaN, 0.04089605, "- N/A -   "
25.68, 904.8913, 0.04290637, NaN, NaN, NaN, 0.04089605, "- N/A -   "
25.7, 905.8375, 0.0429425, NaN, NaN, NaN, 0.0396753, "- N/A -   "
25.72, 906.7838, 0.04297579, NaN, NaN, NaN, 0.0396753, "- N/A -   "
25.74, 907.73, 0.0430119, NaN, NaN, NaN, 0.0384545, "- N/A -   "
25.76, 908.4397, 0.0430424, NaN, NaN, NaN, 0.0396753, "- N/A -   "
25.78, 909.386, 0.0430785, NaN, NaN, NaN, 0.0384545, "- N/A -   "
25.8, 910.3322, 0.0431119, NaN, NaN, NaN, 0.0384545, "- N/A -   "
25.82, 911.16, 0.0431452, NaN, NaN, NaN, 0.0384545, "- N/A -   "
25.84, 912.225, 0.04318127, NaN, NaN, NaN, 0.0372337, "- N/A -   "
25.86, 913.0527, 0.04321737, NaN, NaN, NaN, 0.03601294, "- N/A -   "
25.88, 913.999, 0.0432535, NaN, NaN, NaN, 0.0347922, "- N/A -   "
25.9, 914.9452, 0.0432896, NaN, NaN, NaN, 0.0335714, "- N/A -   "
25.92, 915.8914, 0.04332011, NaN, NaN, NaN, 0.0347922, "- N/A -   "
25.94, 916.601, 0.04335065, NaN, NaN, NaN, 0.03601294, "- N/A -   "
25.96, 917.3108, 0.04338397, NaN, NaN, NaN, 0.03601294, "- N/A -   "
25.98, 918.257, 0.0434173, NaN, NaN, NaN, 0.03601294, "- N/A -   "
26, 919.2033, 0.04345339, NaN, NaN, NaN, 0.0347922, "- N/A -   "
26.02, 920.15, 0.0434895, NaN, NaN, NaN, 0.0335714, "- N/A -   "
26.04, 921.214, 0.0435284, NaN, NaN, NaN, 0.03112983, "- N/A -   "
26.06, 922.2786, 0.04356446, NaN, NaN, NaN, 0.0299091, "- N/A -   "
26.08, 922.9883, 0.04359778, NaN, NaN, NaN, 0.0299091, "- N/A -   "
26.1, 923.9345, 0.0436311, NaN, NaN, NaN, 0.0299091, "- N/A -   "
26.12, 924.6442, 0.0436644, NaN, NaN, NaN, 0.0323506, "- N/A -   "
26.14, 925.472, 0.04369497, NaN, NaN, NaN, 0.0323506, "- N/A -   "
26.16, 926.4184, 0.0437283, NaN, NaN, NaN, 0.0323506, "- N/A -   "
26.18, 927.2464, 0.0437588, NaN, NaN, NaN, 0.0335714, "- N/A -   "
26.2, 928.074, 0.0437922, NaN, NaN, NaN, 0.0335714, "- N/A -   "
26.22, 928.9023, 0.0438255, NaN, NaN, NaN, 0.0347922, "- N/A -   "
26.24, 929.7303, 0.0438588, NaN, NaN, NaN, 0.0335714, "- N/A -   "
26.26, 930.7948, 0.0438949, NaN, NaN, NaN, 0.0323506, "- N/A -   "
26.28, 931.504, 0.0439282, NaN, NaN, NaN, 0.0323506, "- N/A -   "
26.3, 932.569, 0.04396154, NaN, NaN, NaN, 0.0323506, "- N/A -   "
26.32, 933.2787, 0.0439893, NaN, NaN, NaN, 0.0347922, "- N/A -   "
26.34, 933.9884, 0.0440171, NaN, NaN, NaN, 0.0372337, "- N/A -   "
26.36, 934.9347, 0.0440504, NaN, NaN, NaN, 0.0372337, "- N/A -   "
26.38, 935.526, 0.04407816, NaN, NaN, NaN, 0.0396753, "- N/A -   "
26.4, 936.2357, 0.0441087, NaN, NaN, NaN, 0.04089605, "- N/A -   "
26.42, 936.9454, 0.0441365, NaN, NaN, NaN, 0.0433376, "- N/A -   "
26.44, 937.892, 0.044167, NaN, NaN, NaN, 0.0445584, "- N/A -   "
26.46, 938.6014, 0.0441976, NaN, NaN, NaN, 0.04577916, "- N/A -   "
26.48, 939.311, 0.0442281, NaN, NaN, NaN, 0.04699994, "- N/A -   "
26.5, 940.3756, 0.0442614, NaN, NaN, NaN, 0.04699994, "- N/A -   "
26.52, 941.204, 0.0442975, NaN, NaN, NaN, 0.04699994, "- N/A -   "
26.54, 942.268, 0.0443308, NaN, NaN, NaN, 0.04577916, "- N/A -   "
26.56, 943.096, 0.04436972, NaN, NaN, NaN, 0.0433376, "- N/A -   "
26.58, 944.2788, 0.0444058, NaN, NaN, NaN, 0.04211683, "- N/A -   "
26.6, 945.2251, 0.0444475, NaN, NaN, NaN, 0.0396753, "- N/A -   "
26.62, 946.2896, 0.0444836, NaN, NaN, NaN, 0.0372337, "- N/A -   "
26.64, 947.3541, 0.0445197, NaN, NaN, NaN, 0.03601294, "- N/A -   "
26.66, 948.1821, 0.04455576, NaN, NaN, NaN, 0.0347922, "- N/A -   "
26.68, 949.128, 0.0445891, NaN, NaN, NaN, 0.0347922, "- N/A -   "
26.7, 949.9563, 0.0446252, NaN, NaN, NaN, 0.0347922, "- N/A -   "
26.72, 951.0209, 0.0446585, NaN, NaN, NaN, 0.0335714, "- N/A -   "
26.74, 951.7305, 0.044689, NaN, NaN, NaN, 0.0347922, "- N/A -   "
26.76, 952.5585, 0.0447224, NaN, NaN, NaN, 0.0347922, "- N/A -   "
26.78, 953.3865, 0.0447557, NaN, NaN, NaN, 0.0347922, "- N/A -   "
26.8, 954.2144, 0.0447918, NaN, NaN, NaN, 0.0347922, "- N/A -   "
26.82, 955.3972, 0.0448279, NaN, NaN, NaN, 0.0323506, "- N/A -   "
26.84, 956.3435, 0.04486676, NaN, NaN, NaN, 0.0299091, "- N/A -   "
26.86, 957.408, 0.0449029, NaN, NaN, NaN, 0.0286883, "- N/A -   "
26.88, 958.236, 0.0449362, NaN, NaN, NaN, 0.0286883, "- N/A -   "
26.9, 959.064, 0.0449695, NaN, NaN, NaN, 0.0286883, "- N/A -   "
26.92, 960.0102, 0.04500004, NaN, NaN, NaN, 0.0299091, "- N/A -   "
26.94, 960.72, 0.0450306, NaN, NaN, NaN, 0.03112983, "- N/A -   "
26.96, 961.43, 0.04506113, NaN, NaN, NaN, 0.0323506, "- N/A -   "
26.98, 962.1392, 0.0450889, NaN, NaN, NaN, 0.03601294, "- N/A -   "
27, 962.731, 0.0451139, NaN, NaN, NaN, 0.0384545, "- N/A -   "
27.02, 963.559, 0.0451417, NaN, NaN, NaN, 0.04089605, "- N/A -   "
27.04, 964.15, 0.0451694, NaN, NaN, NaN, 0.0433376, "- N/A -   "
27.06, 964.8597, 0.04519719, NaN, NaN, NaN, 0.04577916, "- N/A -   "
27.08, 965.8059, 0.0452277, NaN, NaN, NaN, 0.04699994, "- N/A -   "
27.1, 966.5156, 0.04525828, NaN, NaN, NaN, 0.0482207, "- N/A -   "
27.12, 967.462, 0.0452916, NaN, NaN, NaN, 0.0482207, "- N/A -   "
27.14, 968.2898, 0.0453221, NaN, NaN, NaN, 0.0494415, "- N/A -   "
27.16, 969.2361, 0.04535824, NaN, NaN, NaN, 0.0482207, "- N/A -   "
27.18, 970.1823, 0.0453916, NaN, NaN, NaN, 0.0482207, "- N/A -   "
27.2, 971.129, 0.0454304, NaN, NaN, NaN, 0.04577916, "- N/A -   "
27.22, 972.3114, 0.0454721, NaN, NaN, NaN, 0.04211683, "- N/A -   "
27.24, 973.3759, 0.045511, NaN, NaN, NaN, 0.0396753, "- N/A -   "
27.26, 974.3222, 0.0455498, NaN, NaN, NaN, 0.0384545, "- N/A -   "
27.28, 975.505, 0.0455887, NaN, NaN, NaN, 0.03601294, "- N/A -   "
27.3, 976.451, 0.045622, NaN, NaN, NaN, 0.0347922, "- N/A -   "
27.32, 977.2792, 0.04565813, NaN, NaN, NaN, 0.0335714, "- N/A -   "
27.34, 978.1071, 0.0456887, NaN, NaN, NaN, 0.0347922, "- N/A -   "
27.36, 979.0534, 0.0457248, NaN, NaN, NaN, 0.0347922, "- N/A -   "
27.38, 980, 0.0457609, NaN, NaN, NaN, 0.0323506, "- N/A -   "
27.4, 981.064, 0.04579697, NaN, NaN, NaN, 0.03112983, "- N/A -   "
27.42, 982.01, 0.04583584, NaN, NaN, NaN, 0.0286883, "- N/A -   "
27.44, 983.075, 0.04587472, NaN, NaN, NaN, 0.0262467, "- N/A -   "
27.46, 984.139, 0.0459108, NaN, NaN, NaN, 0.0250259, "- N/A -   "
27.48, 984.8492, 0.04594136, NaN, NaN, NaN, 0.0262467, "- N/A -   "
27.5, 985.6771, 0.0459747, NaN, NaN, NaN, 0.0262467, "- N/A -   "
27.52, 986.3868, 0.0460052, NaN, NaN, NaN, 0.0274675, "- N/A -   "
27.54, 987.2148, 0.04603577, NaN, NaN, NaN, 0.0286883, "- N/A -   "
27.56, 987.924, 0.0460663, NaN, NaN, NaN, 0.03112983, "- N/A -   "
27.58, 988.634, 0.0460941, NaN, NaN, NaN, 0.0323506, "- N/A -   "
27.6, 989.462, 0.04612185, NaN, NaN, NaN, 0.0347922, "- N/A -   "
27.62, 990.2901, 0.0461524, NaN, NaN, NaN, 0.03601294, "- N/A -   "
27.64, 991, 0.0461829, NaN, NaN, NaN, 0.0384545, "- N/A -   "
27.66, 991.7094, 0.0462107, NaN, NaN, NaN, 0.0396753, "- N/A -   "
27.68, 992.5374, 0.0462413, NaN, NaN, NaN, 0.04089605, "- N/A -   "
27.7, 993.365, 0.0462718, NaN, NaN, NaN, 0.0433376, "- N/A -   "
27.72, 994.0751, 0.0463023, NaN, NaN, NaN, 0.0433376, "- N/A -   "
27.74, 995.021, 0.04633566, NaN, NaN, NaN, 0.0433376, "- N/A -   "
27.76, 995.9675, 0.0463718, NaN, NaN, NaN, 0.04211683, "- N/A -   "
27.78, 997.032, 0.0464051, NaN, NaN, NaN, 0.04211683, "- N/A -   "
27.8, 997.7418, 0.0464356, NaN, NaN, NaN, 0.0433376, "- N/A -   "
27.82, 998.4515, 0.0464662, NaN, NaN, NaN, 0.0445584, "- N/A -   "
27.84, 999.3977, 0.0464995, NaN, NaN, NaN, 0.0445584, "- N/A -   "
27.86, 1000.23, 0.04653281, NaN, NaN, NaN, 0.0445584, "- N/A -   "
27.88, 1001.17, 0.04656613, NaN, NaN, NaN, 0.0445584, "- N/A -   "
27.9, 1002.12, 0.04659945, NaN, NaN, NaN, 0.0445584, "- N/A -   "
27.92, 1003.06, 0.0466383, NaN, NaN, NaN, 0.0433376, "- N/A -   "
27.94, 1004.01, 0.0466744, NaN, NaN, NaN, 0.04211683, "- N/A -   "
27.96, 1005.19, 0.0467133, NaN, NaN, NaN, 0.0384545, "- N/A -   "
27.98, 1006.258, 0.046755, NaN, NaN, NaN, 0.03601294, "- N/A -   "
28, 1007.2, 0.04679105, NaN, NaN, NaN, 0.0335714, "- N/A -   "
28.02, 1008.27, 0.04682715, NaN, NaN, NaN, 0.0323506, "- N/A -   "
28.04, 1009.1, 0.0468605, NaN, NaN, NaN, 0.0323506, "- N/A -   "
28.06, 1009.92, 0.0468938, NaN, NaN, NaN, 0.0323506, "- N/A -   "
28.08, 1010.871, 0.04692711, NaN, NaN, NaN, 0.0323506, "- N/A -   "
28.1, 1011.82, 0.0469632, NaN, NaN, NaN, 0.03112983, "- N/A -   "
28.12, 1012.76, 0.0469965, NaN, NaN, NaN, 0.03112983, "- N/A -   "
28.14, 1013.6, 0.0470326, NaN, NaN, NaN, 0.0299091, "- N/A -   "
28.16, 1014.431, 0.04706317, NaN, NaN, NaN, 0.03112983, "- N/A -   "
28.18, 1015.385, 0.0470937, NaN, NaN, NaN, 0.0323506, "- N/A -   "
28.2, 1016.22, 0.04712426, NaN, NaN, NaN, 0.0335714, "- N/A -   "
28.22, 1016.94, 0.0471548, NaN, NaN, NaN, 0.0347922, "- N/A -   "
28.24, 1017.77, 0.0471853, NaN, NaN, NaN, 0.03601294, "- N/A -   "
28.26, 1018.72, 0.04721867, NaN, NaN, NaN, 0.03601294, "- N/A -   "
28.28, 1019.56, 0.04725199, NaN, NaN, NaN, 0.03601294, "- N/A -   "
28.3, 1020.51, 0.04728253, NaN, NaN, NaN, 0.0372337, "- N/A -   "
28.32, 1021.35, 0.0473159, NaN, NaN, NaN, 0.0372337, "- N/A -   "
28.34, 1022.06, 0.0473464, NaN, NaN, NaN, 0.0384545, "- N/A -   "
28.36, 1022.9, 0.0473769, NaN, NaN, NaN, 0.0396753, "- N/A -   "
28.38, 1023.61, 0.04740471, NaN, NaN, NaN, 0.04211683, "- N/A -   "
28.4, 1024.45, 0.04743248, NaN, NaN, NaN, 0.0445584, "- N/A -   "
28.42, 1025.283, 0.0474658, NaN, NaN, NaN, 0.0445584, "- N/A -   "
28.44, 1026.12, 0.04749634, NaN, NaN, NaN, 0.04577916, "- N/A -   "
28.46, 1026.95, 0.0475297, NaN, NaN, NaN, 0.04577916, "- N/A -   "
28.48, 1027.91, 0.0475602, NaN, NaN, NaN, 0.04699994, "- N/A -   "
28.5, 1028.74, 0.0475963, NaN, NaN, NaN, 0.04577916, "- N/A -   "
28.52, 1029.81, 0.0476324, NaN, NaN, NaN, 0.0445584, "- N/A -   "
28.54, 1030.89, 0.0476713, NaN, NaN, NaN, 0.04211683, "- N/A -   "
28.56, 1031.84, 0.0477102, NaN, NaN, NaN, 0.0396753, "- N/A -   "
28.58, 1033.03, 0.047749, NaN, NaN, NaN, 0.0372337, "- N/A -   "
28.6, 1034.11, 0.0477907, NaN, NaN, NaN, 0.0335714, "- N/A -   "
28.62, 1035.06, 0.0478296, NaN, NaN, NaN, 0.0323506, "- N/A -   "
28.64, 1036.13, 0.04786565, NaN, NaN, NaN, 0.0299091, "- N/A -   "
28.66, 1037.09, 0.0479017, NaN, NaN, NaN, 0.0286883, "- N/A -   "
28.68, 1038.04, 0.04793507, NaN, NaN, NaN, 0.0286883, "- N/A -   "
28.7, 1038.88, 0.0479656, NaN, NaN, NaN, 0.0299091, "- N/A -   "
28.72, 1039.47, 0.04799338, NaN, NaN, NaN, 0.0323506, "- N/A -   "
28.74, 1040.31, 0.0480239, NaN, NaN, NaN, 0.0335714, "- N/A -   "
28.76, 1041.02, 0.0480517, NaN, NaN, NaN, 0.03601294, "- N/A -   "
28.78, 1041.859, 0.048085, NaN, NaN, NaN, 0.03601294, "- N/A -   "
28.8, 1042.813, 0.0481183, NaN, NaN, NaN, 0.03601294, "- N/A -   "
28.82, 1043.767, 0.0481544, NaN, NaN, NaN, 0.0347922, "- N/A -   "
28.84, 1044.84, 0.04819331, NaN, NaN, NaN, 0.0323506, "- N/A -   "
28.86, 1045.91, 0.04823496, NaN, NaN, NaN, 0.0286883, "- N/A -   "
28.88, 1046.99, 0.04827383, NaN, NaN, NaN, 0.0262467, "- N/A -   "
28.9, 1048.06, 0.0483072, NaN, NaN, NaN, 0.0262467, "- N/A -   "
28.92, 1048.78, 0.0483377, NaN, NaN, NaN, 0.0274675, "- N/A -   "
28.94, 1049.49, 0.0483655, NaN, NaN, NaN, 0.0299091, "- N/A -   "
28.96, 1050.21, 0.04839046, NaN, NaN, NaN, 0.0335714, "- N/A -   "
28.98, 1051.04, 0.048421, NaN, NaN, NaN, 0.0347922, "- N/A -   "
29, 1051.76, 0.0484488, NaN, NaN, NaN, 0.0372337, "- N/A -   "
29.02, 1052.47, 0.0484793, NaN, NaN, NaN, 0.0384545, "- N/A -   "
29.04, 1053.19, 0.04850986, NaN, NaN, NaN, 0.0396753, "- N/A -   "
29.06, 1054.02, 0.0485376, NaN, NaN, NaN, 0.04211683, "- N/A -   "
29.08, 1054.98, 0.0485709, NaN, NaN, NaN, 0.04211683, "- N/A -   "
29.1, 1055.81, 0.04860149, NaN, NaN, NaN, 0.0433376, "- N/A -   "
29.12, 1056.77, 0.0486376, NaN, NaN, NaN, 0.04211683, "- N/A -   "
29.14, 1057.6, 0.04867091, NaN, NaN, NaN, 0.04211683, "- N/A -   "
29.16, 1058.43, 0.04870423, NaN, NaN, NaN, 0.04211683, "- N/A -   "
29.18, 1059.27, 0.04873755, NaN, NaN, NaN, 0.0433376, "- N/A -   "
29.2, 1060.1, 0.04876532, NaN, NaN, NaN, 0.0445584, "- N/A -   "
29.22, 1060.82, 0.04879864, NaN, NaN, NaN, 0.0445584, "- N/A -   "
29.24, 1061.774, 0.048832, NaN, NaN, NaN, 0.0445584, "- N/A -   "
29.26, 1062.85, 0.04886806, NaN, NaN, NaN, 0.0433376, "- N/A -   "
29.28, 1063.8, 0.0489069, NaN, NaN, NaN, 0.04211683, "- N/A -   "
29.3, 1064.87, 0.0489403, NaN, NaN, NaN, 0.04089605, "- N/A -   "
29.32, 1065.83, 0.0489764, NaN, NaN, NaN, 0.0396753, "- N/A -   "
29.34, 1066.78, 0.0490125, NaN, NaN, NaN, 0.0384545, "- N/A -   "
29.36, 1067.74, 0.0490485, NaN, NaN, NaN, 0.0372337, "- N/A -   "
29.38, 1068.57, 0.0490846, NaN, NaN, NaN, 0.0372337, "- N/A -   "
29.4, 1069.53, 0.049118, NaN, NaN, NaN, 0.03601294, "- N/A -   "
29.42, 1070.6, 0.0491513, NaN, NaN, NaN, 0.03601294, "- N/A -   "
29.44, 1071.43, 0.0491874, NaN, NaN, NaN, 0.0347922, "- N/A -   "
29.46, 1072.39, 0.0492207, NaN, NaN, NaN, 0.0347922, "- N/A -   "
29.48, 1073.34, 0.0492568, NaN, NaN, NaN, 0.0335714, "- N/A -   "
29.5, 1074.18, 0.0492901, NaN, NaN, NaN, 0.0335714, "- N/A -   "
29.52, 1075.13, 0.0493234, NaN, NaN, NaN, 0.0335714, "- N/A -   "
29.54, 1075.97, 0.0493568, NaN, NaN, NaN, 0.0335714, "- N/A -   "
29.56, 1076.8, 0.0493901, NaN, NaN, NaN, 0.0335714, "- N/A -   "
29.58, 1077.75, 0.04942341, NaN, NaN, NaN, 0.0335714, "- N/A -   "
29.6, 1078.71, 0.0494595, NaN, NaN, NaN, 0.0323506, "- N/A -   "
29.62, 1079.54, 0.04949283, NaN, NaN, NaN, 0.0323506, "- N/A -   "
29.64, 1080.38, 0.0495261, NaN, NaN, NaN, 0.0323506, "- N/A -   "
29.66, 1081.33, 0.04955947, NaN, NaN, NaN, 0.0323506, "- N/A -   "
29.68, 1082.29, 0.04959557, NaN, NaN, NaN, 0.03112983, "- N/A -   "
29.7, 1083.12, 0.0496261, NaN, NaN, NaN, 0.0323506, "- N/A -   "
29.72, 1083.955, 0.04965943, NaN, NaN, NaN, 0.0323506, "- N/A -   "
29.74, 1084.67, 0.0496844, NaN, NaN, NaN, 0.03601294, "- N/A -   "
29.76, 1085.27, 0.04971219, NaN, NaN, NaN, 0.0384545, "- N/A -   "
29.78, 1086.1, 0.04973996, NaN, NaN, NaN, 0.04089605, "- N/A -   "
29.8, 1086.94, 0.04977328, NaN, NaN, NaN, 0.04089605, "- N/A -   "
29.82, 1087.771, 0.0498066, NaN, NaN, NaN, 0.04089605, "- N/A -   "
29.84, 1088.61, 0.0498371, NaN, NaN, NaN, 0.04211683, "- N/A -   "
29.86, 1089.56, 0.04987324, NaN, NaN, NaN, 0.04211683, "- N/A -   "
29.88, 1090.39, 0.0499038, NaN, NaN, NaN, 0.0433376, "- N/A -   "
29.9, 1091.23, 0.04993433, NaN, NaN, NaN, 0.0433376, "- N/A -   "
29.92, 1092.18, 0.04996765, NaN, NaN, NaN, 0.0433376, "- N/A -   "
29.94, 1093.14, 0.05000375, NaN, NaN, NaN, 0.04211683, "- N/A -   "
29.96, 1094.21, 0.0500426, NaN, NaN, NaN, 0.04089605, "- N/A -   "
29.98, 1095.16, 0.0500787, NaN, NaN, NaN, 0.0384545, "- N/A -   "
30, 1096.36, 0.0501176, NaN, NaN, NaN, 0.03601294, "- N/A -   "
30.02, 1097.31, 0.05015647, NaN, NaN, NaN, 0.0335714, "- N/A -   "
30.04, 1098.38, 0.0501953, NaN, NaN, NaN, 0.03112983, "- N/A -   "
30.06, 1099.22, 0.05023144, NaN, NaN, NaN, 0.0299091, "- N/A -   "
30.08, 1100.17, 0.050262, NaN, NaN, NaN, 0.03112983, "- N/A -   "
30.1, 1101.01, 0.0502953, NaN, NaN, NaN, 0.03112983, "- N/A -   "
30.12, 1101.72, 0.0503259, NaN, NaN, NaN, 0.0323506, "- N/A -   "
30.14, 1102.56, 0.0503592, NaN, NaN, NaN, 0.0323506, "- N/A -   "
30.16, 1103.393, 0.05038972, NaN, NaN, NaN, 0.0335714, "- N/A -   "
30.18, 1104.47, 0.0504258, NaN, NaN, NaN, 0.0323506, "- N/A -   "
30.2, 1105.18, 0.05045636, NaN, NaN, NaN, 0.0335714, "- N/A -   "
30.22, 1106.02, 0.0504925, NaN, NaN, NaN, 0.0323506, "- N/A -   "
30.24, 1107.09, 0.0505286, NaN, NaN, NaN, 0.03112983, "- N/A -   "
30.26, 1108.04, 0.05056465, NaN, NaN, NaN, 0.0299091, "- N/A -   "
30.28, 1109, 0.050598, NaN, NaN, NaN, 0.0299091, "- N/A -   "
30.3, 1109.83, 0.0506313, NaN, NaN, NaN, 0.0299091, "- N/A -   "
30.32, 1110.67, 0.0506591, NaN, NaN, NaN, 0.0323506, "- N/A -   "
30.34, 1111.38, 0.0506924, NaN, NaN, NaN, 0.0335714, "- N/A -   "
30.36, 1112.34, 0.0507257, NaN, NaN, NaN, 0.0323506, "- N/A -   "
30.38, 1113.17, 0.05075625, NaN, NaN, NaN, 0.0335714, "- N/A -   "
30.4, 1113.89, 0.0507868, NaN, NaN, NaN, 0.0347922, "- N/A -   "
30.42, 1114.6, 0.0508118, NaN, NaN, NaN, 0.0384545, "- N/A -   "
30.44, 1115.32, 0.05083955, NaN, NaN, NaN, 0.04089605, "- N/A -   "
30.46, 1116.03, 0.05086732, NaN, NaN, NaN, 0.0433376, "- N/A -   "
30.48, 1116.87, 0.0508979, NaN, NaN, NaN, 0.0445584, "- N/A -   "
30.5, 1117.7, 0.0509312, NaN, NaN, NaN, 0.0445584, "- N/A -   "
30.52, 1118.42, 0.05096451, NaN, NaN, NaN, 0.04577916, "- N/A -   "
30.54, 1119.37, 0.050995, NaN, NaN, NaN, 0.04699994, "- N/A -   "
30.56, 1120.21, 0.05102837, NaN, NaN, NaN, 0.04577916, "- N/A -   "
30.58, 1121.28, 0.05106447, NaN, NaN, NaN, 0.0445584, "- N/A -   "
30.6, 1122.12, 0.0511006, NaN, NaN, NaN, 0.0433376, "- N/A -   "
30.62, 1123.31, 0.05113944, NaN, NaN, NaN, 0.04089605, "- N/A -   "
30.64, 1124.26, 0.05117554, NaN, NaN, NaN, 0.04089605, "- N/A -   "
30.66, 1125.22, 0.0512144, NaN, NaN, NaN, 0.0384545, "- N/A -   "
30.68, 1126.29, 0.0512505, NaN, NaN, NaN, 0.0372337, "- N/A -   "
30.7, 1127.12, 0.0512838, NaN, NaN, NaN, 0.0372337, "- N/A -   "
30.72, 1128.08, 0.05131993, NaN, NaN, NaN, 0.03601294, "- N/A -   "
30.74, 1129.03, 0.05135603, NaN, NaN, NaN, 0.03601294, "- N/A -   "
30.76, 1129.99, 0.0513893, NaN, NaN, NaN, 0.0347922, "- N/A -   "
30.78, 1130.7, 0.05142267, NaN, NaN, NaN, 0.0347922, "- N/A -   "
30.8, 1131.66, 0.05145599, NaN, NaN, NaN, 0.0347922, "- N/A -   "
30.82, 1132.61, 0.0514921, NaN, NaN, NaN, 0.0335714, "- N/A -   "
30.84, 1133.683, 0.0515282, NaN, NaN, NaN, 0.0323506, "- N/A -   "
30.86, 1134.52, 0.0515643, NaN, NaN, NaN, 0.03112983, "- N/A -   "
30.88, 1135.47, 0.0515976, NaN, NaN, NaN, 0.03112983, "- N/A -   "
30.9, 1136.31, 0.0516337, NaN, NaN, NaN, 0.0299091, "- N/A -   "
30.92, 1137.26, 0.051667, NaN, NaN, NaN, 0.0299091, "- N/A -   "
30.94, 1138.1, 0.0517003, NaN, NaN, NaN, 0.03112983, "- N/A -   "
30.96, 1138.93, 0.05173089, NaN, NaN, NaN, 0.03112983, "- N/A -   "
30.98, 1139.88, 0.0517642, NaN, NaN, NaN, 0.03112983, "- N/A -   "
31, 1140.72, 0.05179753, NaN, NaN, NaN, 0.03112983, "- N/A -   "
31.008, 1140.96, 0.0518086, NaN, NaN, NaN, 0.0323506, "- N/A -   "