File: 2_Tensile_Data/Hamel_ForceTest_Bolt5_Test3.csv
Time, Load (lb), Position (in), AxialStrain (in), TransverseStrain (in), Auxiliary (), Control Out (V), Stress (psi)
0.0, 1.06153, 0.0, NaN, NaN, NaN, 0.108039, "- N/A -   "
0.01, 1.41537, 3.3321e-05, NaN, NaN, NaN, 0.103156, "- N/A -   "
0.02, 1.65126, 6.6642e-05, NaN, NaN, NaN, 0.095831, "- N/A -   "
0.03, 1.88716, 9.718631E-5, NaN, NaN, NaN, 0.0897272, "- N/A -   "
0.04, 2.12305, 0.000124954, NaN, NaN, NaN, 0.084844, "- N/A -   "
0.05, 2.35895, 0.000152721, NaN, NaN, NaN, 0.07874016, "- N/A -   "
0.06, 2.59484, 0.000180489, NaN, NaN, NaN, 0.0750778, "- N/A -   "
0.07, 2.83074, 0.00020548, NaN, NaN, NaN, 0.0701947, "- N/A -   "
0.08, 2.94869, 2.304704E-4, NaN, NaN, NaN, 0.06775316, "- N/A -   "
0.09, 3.18458, 0.000255461, NaN, NaN, NaN, 0.06287005, "- N/A -   "
0.1, 3.30253, 0.000280452, NaN, NaN, NaN, 0.0604285, "- N/A -   "
0.11, 3.53842, 0.000302666, NaN, NaN, NaN, 0.0579869, "- N/A -   "
0.12, 3.65637, 3.221032E-4, NaN, NaN, NaN, 0.0555454, "- N/A -   "
0.13, 3.89227, 0.000344317, NaN, NaN, NaN, 0.0543246, "- N/A -   "
0.14, 4.010214, 0.000366531, NaN, NaN, NaN, 0.05188305, "- N/A -   "
0.15, 4.12816, 0.000388745, NaN, NaN, NaN, 0.0494415, "- N/A -   "
0.16, 4.36406, 0.000410959, NaN, NaN, NaN, 0.04577916, "- N/A -   "
0.17, 4.482, 4.331733E-4, NaN, NaN, NaN, 0.0433376, "- N/A -   "
0.18, 4.717899, 4.553873E-4, NaN, NaN, NaN, 0.04089605, "- N/A -   "
0.19, 4.83585, 4.776013E-4, NaN, NaN, NaN, 0.0384545, "- N/A -   "
0.2, 4.953794, 0.000499815, NaN, NaN, NaN, 0.03601294, "- N/A -   "
0.21, 5.18969, 5.192526E-4, NaN, NaN, NaN, 0.0347922, "- N/A -   "
0.22, 5.307636, 0.00053869, NaN, NaN, NaN, 0.0335714, "- N/A -   "
0.23, 5.307636, 5.553504E-4, NaN, NaN, NaN, 0.0335714, "- N/A -   "
0.24, 5.54353, 5.720109E-4, NaN, NaN, NaN, 0.0335714, "- N/A -   "
0.25, 5.66148, 0.000591448, NaN, NaN, NaN, 0.0323506, "- N/A -   "
0.26, 5.897373, 6.108854E-4, NaN, NaN, NaN, 0.0323506, "- N/A -   "
0.27, 5.897373, 0.000627546, NaN, NaN, NaN, 0.03112983, "- N/A -   "
0.28, 6.13327, 6.442064E-4, NaN, NaN, NaN, 0.03112983, "- N/A -   "
0.29, 6.13327, 6.608669E-4, NaN, NaN, NaN, 0.03112983, "- N/A -   "
0.3, 6.251216, 0.000677527, NaN, NaN, NaN, 0.03112983, "- N/A -   "
0.31, 6.487111, 0.000694188, NaN, NaN, NaN, 0.03112983, "- N/A -   "
0.32, 6.487111, 7.108485E-4, NaN, NaN, NaN, 0.03112983, "- N/A -   "
0.33, 6.723006, 0.000724732, NaN, NaN, NaN, 0.0323506, "- N/A -   "
0.34, 6.723006, 7.38616E-4, NaN, NaN, NaN, 0.0335714, "- N/A -   "
0.35, 6.84095, 0.0007525, NaN, NaN, NaN, 0.0347922, "- N/A -   "
0.36, 7.07685, 7.663835E-4, NaN, NaN, NaN, 0.03601294, "- N/A -   "
0.37, 7.07685, 0.000783044, NaN, NaN, NaN, 0.0372337, "- N/A -   "
0.38, 7.312743, 7.969278E-4, NaN, NaN, NaN, 0.0384545, "- N/A -   "
0.39, 7.430691, 8.108115E-4, NaN, NaN, NaN, 0.0384545, "- N/A -   "
0.4, 7.548638, 8.246953E-4, NaN, NaN, NaN, 0.0396753, "- N/A -   "
0.41, 7.666586, 8.38579E-4, NaN, NaN, NaN, 0.04089605, "- N/A -   "
0.42, 7.784533, 8.552396E-4, NaN, NaN, NaN, 0.04211683, "- N/A -   "
0.43, 7.784533, 8.691233E-4, NaN, NaN, NaN, 0.04211683, "- N/A -   "
0.44, 7.90248, 8.857838E-4, NaN, NaN, NaN, 0.04211683, "- N/A -   "
0.45, 8.138375, 0.000899668, NaN, NaN, NaN, 0.0433376, "- N/A -   "
0.46, 8.138375, 0.000913551, NaN, NaN, NaN, 0.0445584, "- N/A -   "
0.47, 8.256323, 0.000930212, NaN, NaN, NaN, 0.0445584, "- N/A -   "
0.48, 8.492218, 9.440956E-4, NaN, NaN, NaN, 0.04577916, "- N/A -   "
0.49, 8.610166, 0.000960756, NaN, NaN, NaN, 0.04577916, "- N/A -   "
0.5, 8.728113, 9.801934E-4, NaN, NaN, NaN, 0.0445584, "- N/A -   "
0.51, 8.964007, 9.968539E-4, NaN, NaN, NaN, 0.0445584, "- N/A -   "
0.52, 9.081955, 0.00101351, NaN, NaN, NaN, 0.0445584, "- N/A -   "
0.53, 9.31785, 0.00103295, NaN, NaN, NaN, 0.0433376, "- N/A -   "
0.54, 9.435798, 0.00104961, NaN, NaN, NaN, 0.0433376, "- N/A -   "
0.55, 9.553744, 0.00106627, NaN, NaN, NaN, 0.0445584, "- N/A -   "
0.56, 9.907588, 0.00108016, NaN, NaN, NaN, 0.0445584, "- N/A -   "
0.57, 10.0255, 0.001096817, NaN, NaN, NaN, 0.0445584, "- N/A -   "
0.58, 10.26143, 0.00111348, NaN, NaN, NaN, 0.04577916, "- N/A -   "
0.59, 10.4973, 0.001130138, NaN, NaN, NaN, 0.04577916, "- N/A -   "
0.6, 10.73322, 0.0011468, NaN, NaN, NaN, 0.0445584, "- N/A -   "
0.61, 10.8512, 0.001163459, NaN, NaN, NaN, 0.0445584, "- N/A -   "
0.62, 11.0871, 0.00118012, NaN, NaN, NaN, 0.0445584, "- N/A -   "
0.63, 11.323, 0.00119678, NaN, NaN, NaN, 0.0445584, "- N/A -   "
0.64, 11.4409, 0.00121344, NaN, NaN, NaN, 0.0445584, "- N/A -   "
0.65, 11.6768, 0.00123288, NaN, NaN, NaN, 0.0433376, "- N/A -   "
0.66, 11.9127, 0.00125232, NaN, NaN, NaN, 0.0433376, "- N/A -   "
0.67, 12.14859, 0.00126898, NaN, NaN, NaN, 0.04211683, "- N/A -   "
0.68, 12.3845, 0.00128841, NaN, NaN, NaN, 0.04211683, "- N/A -   "
0.69, 12.6204, 0.00130507, NaN, NaN, NaN, 0.04089605, "- N/A -   "
0.7, 12.9742, 0.00132451, NaN, NaN, NaN, 0.0396753, "- N/A -   "
0.71, 13.2101, 0.00134672, NaN, NaN, NaN, 0.0372337, "- N/A -   "
0.72, 13.564, 0.00136894, NaN, NaN, NaN, 0.03601294, "- N/A -   "
0.73, 13.7999, 0.00138838, NaN, NaN, NaN, 0.0335714, "- N/A -   "
0.74, 14.1537, 0.00141059, NaN, NaN, NaN, 0.03112983, "- N/A -   "
0.75, 14.3896, 0.00143003, NaN, NaN, NaN, 0.03112983, "- N/A -   "
0.76, 14.7434, 0.00144946, NaN, NaN, NaN, 0.0286883, "- N/A -   "
0.77, 14.9793, 0.0014689, NaN, NaN, NaN, 0.0286883, "- N/A -   "
0.78, 15.2152, 0.00148556, NaN, NaN, NaN, 0.0286883, "- N/A -   "
0.79, 15.4511, 0.00150222, NaN, NaN, NaN, 0.0274675, "- N/A -   "
0.8, 15.687, 0.00151888, NaN, NaN, NaN, 0.0274675, "- N/A -   "
0.81, 15.9229, 0.00153832, NaN, NaN, NaN, 0.0274675, "- N/A -   "
0.82, 16.1588, 0.0015522, NaN, NaN, NaN, 0.0274675, "- N/A -   "
0.83, 16.3947, 0.00156886, NaN, NaN, NaN, 0.0274675, "- N/A -   "
0.84, 16.6306, 0.00158553, NaN, NaN, NaN, 0.0274675, "- N/A -   "
0.85, 16.9844, 0.00160219, NaN, NaN, NaN, 0.0286883, "- N/A -   "
0.86, 17.1024, 0.00161607, NaN, NaN, NaN, 0.0286883, "- N/A -   "
0.87, 17.2203, 0.00162995, NaN, NaN, NaN, 0.03112983, "- N/A -   "
0.88, 17.4562, 0.00164106, NaN, NaN, NaN, 0.0323506, "- N/A -   "
0.89, 17.6921, 0.001654944, NaN, NaN, NaN, 0.0335714, "- N/A -   "
0.9, 17.928, 0.0016716, NaN, NaN, NaN, 0.0347922, "- N/A -   "
0.91, 18.16391, 0.00168549, NaN, NaN, NaN, 0.0347922, "- N/A -   "
0.92, 18.2819, 0.00169937, NaN, NaN, NaN, 0.03601294, "- N/A -   "
0.93, 18.6357, 0.00171603, NaN, NaN, NaN, 0.0372337, "- N/A -   "
0.94, 18.8716, 0.00172992, NaN, NaN, NaN, 0.0372337, "- N/A -   "
0.95, 19.1075, 0.00174658, NaN, NaN, NaN, 0.0384545, "- N/A -   "
0.96, 19.3434, 0.00176324, NaN, NaN, NaN, 0.0384545, "- N/A -   "
0.97, 19.57928, 0.001779898, NaN, NaN, NaN, 0.0372337, "- N/A -   "
0.98, 19.9331, 0.00179378, NaN, NaN, NaN, 0.0384545, "- N/A -   "
0.99, 20.05107, 0.00181044, NaN, NaN, NaN, 0.0384545, "- N/A -   "
1, 20.287, 0.0018271, NaN, NaN, NaN, 0.0384545, "- N/A -   "
1.01, 20.7588, 0.00184376, NaN, NaN, NaN, 0.0384545, "- N/A -   "
1.03, 21.2305, 0.001879861, NaN, NaN, NaN, 0.0384545, "- N/A -   "
1.05, 21.7023, 0.001913182, NaN, NaN, NaN, 0.0372337, "- N/A -   "
1.07, 22.29207, 0.00194928, NaN, NaN, NaN, 0.0372337, "- N/A -   "
1.09, 22.7639, 0.00197982, NaN, NaN, NaN, 0.0384545, "- N/A -   "
1.11, 23.2357, 0.00201037, NaN, NaN, NaN, 0.0384545, "- N/A -   "
1.13, 23.82539, 0.00204091, NaN, NaN, NaN, 0.0396753, "- N/A -   "
1.15, 24.1792, 0.00207146, NaN, NaN, NaN, 0.04211683, "- N/A -   "
1.17, 24.769, 0.002102001, NaN, NaN, NaN, 0.0433376, "- N/A -   "
1.19, 25.2408, 0.00213532, NaN, NaN, NaN, 0.04211683, "- N/A -   "
1.21, 25.8305, 0.00217142, NaN, NaN, NaN, 0.04211683, "- N/A -   "
1.23, 26.3023, 0.00220196, NaN, NaN, NaN, 0.0433376, "- N/A -   "
1.25, 26.892, 0.00223251, NaN, NaN, NaN, 0.0433376, "- N/A -   "
1.27, 27.3638, 0.00226861, NaN, NaN, NaN, 0.04211683, "- N/A -   "
1.29, 28.0715, 0.00230748, NaN, NaN, NaN, 0.04089605, "- N/A -   "
1.31, 28.6612, 0.00234358, NaN, NaN, NaN, 0.0384545, "- N/A -   "
1.33, 29.251, 0.00238245, NaN, NaN, NaN, 0.03601294, "- N/A -   "
1.35, 29.84071, 0.00241855, NaN, NaN, NaN, 0.0347922, "- N/A -   "
1.37, 30.5484, 0.00245465, NaN, NaN, NaN, 0.0335714, "- N/A -   "
1.39, 31.0202, 0.00249075, NaN, NaN, NaN, 0.0323506, "- N/A -   "
1.41, 31.6099, 0.00252684, NaN, NaN, NaN, 0.03112983, "- N/A -   "
1.43, 32.1997, 0.00256294, NaN, NaN, NaN, 0.03112983, "- N/A -   "
1.45, 32.67145, 0.00259349, NaN, NaN, NaN, 0.03112983, "- N/A -   "
1.47, 33.1432, 0.00262403, NaN, NaN, NaN, 0.0323506, "- N/A -   "
1.49, 33.8509, 0.00265457, NaN, NaN, NaN, 0.0335714, "- N/A -   "
1.51, 34.2048, 0.002685119, NaN, NaN, NaN, 0.03601294, "- N/A -   "
1.53, 34.7945, 0.00271566, NaN, NaN, NaN, 0.0372337, "- N/A -   "
1.55, 35.2663, 0.00274621, NaN, NaN, NaN, 0.0372337, "- N/A -   "
1.57, 35.7381, 0.00277675, NaN, NaN, NaN, 0.0384545, "- N/A -   "
1.59, 36.44577, 0.00281285, NaN, NaN, NaN, 0.0372337, "- N/A -   "
1.61, 37.0355, 0.00284895, NaN, NaN, NaN, 0.03601294, "- N/A -   "
1.63, 37.6252, 0.002887822, NaN, NaN, NaN, 0.0347922, "- N/A -   "
1.65, 38.215, 0.00292114, NaN, NaN, NaN, 0.0335714, "- N/A -   "
1.67, 38.8047, 0.002954464, NaN, NaN, NaN, 0.0335714, "- N/A -   "
1.69, 39.3945, 0.00299056, NaN, NaN, NaN, 0.0335714, "- N/A -   "
1.71, 39.7483, 0.00301833, NaN, NaN, NaN, 0.0347922, "- N/A -   "
1.73, 40.33803, 0.00304887, NaN, NaN, NaN, 0.03601294, "- N/A -   "
1.75, 40.9278, 0.00308219, NaN, NaN, NaN, 0.03601294, "- N/A -   "
1.77, 41.39956, 0.003109962, NaN, NaN, NaN, 0.0384545, "- N/A -   "
1.79, 41.8714, 0.003143283, NaN, NaN, NaN, 0.0396753, "- N/A -   "
1.81, 42.3431, 0.003171051, NaN, NaN, NaN, 0.04089605, "- N/A -   "
1.83, 42.93288, 0.00320437, NaN, NaN, NaN, 0.04089605, "- N/A -   "
1.85, 43.5226, 0.00323769, NaN, NaN, NaN, 0.04089605, "- N/A -   "
1.87, 43.9944, 0.003271014, NaN, NaN, NaN, 0.04089605, "- N/A -   "
1.89, 44.70209, 0.00330711, NaN, NaN, NaN, 0.0396753, "- N/A -   "
1.91, 45.29183, 0.00334321, NaN, NaN, NaN, 0.0396753, "- N/A -   "
1.93, 45.6457, 0.003370977, NaN, NaN, NaN, 0.04089605, "- N/A -   "
1.95, 46.3534, 0.003404298, NaN, NaN, NaN, 0.04089605, "- N/A -   "
1.97, 46.9431, 0.00344317, NaN, NaN, NaN, 0.0396753, "- N/A -   "
1.99, 47.4149, 0.00347649, NaN, NaN, NaN, 0.0384545, "- N/A -   "
2.01, 48.12257, 0.00350981, NaN, NaN, NaN, 0.0384545, "- N/A -   "
2.03, 48.7123, 0.00354591, NaN, NaN, NaN, 0.0372337, "- N/A -   "
2.05, 49.41999, 0.00358201, NaN, NaN, NaN, 0.03601294, "- N/A -   "
2.07, 49.8918, 0.00361811, NaN, NaN, NaN, 0.03601294, "- N/A -   "
2.09, 50.3636, 0.00364865, NaN, NaN, NaN, 0.03601294, "- N/A -   "
2.11, 50.9533, 0.003681973, NaN, NaN, NaN, 0.03601294, "- N/A -   "
2.13, 51.543, 0.00371529, NaN, NaN, NaN, 0.03601294, "- N/A -   "
2.15, 52.1328, 0.00375139, NaN, NaN, NaN, 0.0347922, "- N/A -   "
2.17, 52.84047, 0.00379027, NaN, NaN, NaN, 0.0335714, "- N/A -   "
2.19, 53.3123, 0.00382359, NaN, NaN, NaN, 0.0323506, "- N/A -   "
2.21, 54.0199, 0.00385969, NaN, NaN, NaN, 0.03112983, "- N/A -   "
2.23, 54.4917, 0.00389578, NaN, NaN, NaN, 0.0299091, "- N/A -   "
2.25, 55.0815, 0.0039291, NaN, NaN, NaN, 0.0299091, "- N/A -   "
2.27, 55.55326, 0.00395965, NaN, NaN, NaN, 0.03112983, "- N/A -   "
2.29, 56.02505, 0.00399019, NaN, NaN, NaN, 0.0323506, "- N/A -   "
2.31, 56.6148, 0.00401796, NaN, NaN, NaN, 0.03601294, "- N/A -   "
2.33, 56.9686, 0.0040485, NaN, NaN, NaN, 0.03601294, "- N/A -   "
2.35, 57.44042, 0.00407905, NaN, NaN, NaN, 0.0372337, "- N/A -   "
2.37, 58.0302, 0.00411237, NaN, NaN, NaN, 0.0372337, "- N/A -   "
2.39, 58.5019, 0.00414847, NaN, NaN, NaN, 0.03601294, "- N/A -   "
2.41, 58.9737, 0.004184565, NaN, NaN, NaN, 0.0347922, "- N/A -   "
2.43, 59.68142, 0.00422344, NaN, NaN, NaN, 0.0323506, "- N/A -   "
2.45, 60.15321, 0.00425954, NaN, NaN, NaN, 0.03112983, "- N/A -   "
2.47, 60.625, 0.00429008, NaN, NaN, NaN, 0.0323506, "- N/A -   "
2.49, 60.97884, 0.004317849, NaN, NaN, NaN, 0.0347922, "- N/A -   "
2.51, 61.45063, 0.00434839, NaN, NaN, NaN, 0.03601294, "- N/A -   "
2.53, 61.8045, 0.004376161, NaN, NaN, NaN, 0.0384545, "- N/A -   "
2.55, 62.2763, 0.004406705, NaN, NaN, NaN, 0.0396753, "- N/A -   "
2.57, 62.7481, 0.004440026, NaN, NaN, NaN, 0.0396753, "- N/A -   "
2.59, 63.2198, 0.004473347, NaN, NaN, NaN, 0.04089605, "- N/A -   "
2.61, 63.5737, 0.004503892, NaN, NaN, NaN, 0.04089605, "- N/A -   "
2.63, 64.04548, 0.004534436, NaN, NaN, NaN, 0.04211683, "- N/A -   "
2.65, 64.3993, 0.00456498, NaN, NaN, NaN, 0.0433376, "- N/A -   "
2.67, 64.87111, 0.004601078, NaN, NaN, NaN, 0.0433376, "- N/A -   "
2.69, 65.3429, 0.00463718, NaN, NaN, NaN, 0.04089605, "- N/A -   "
2.71, 65.81469, 0.00467327, NaN, NaN, NaN, 0.0396753, "- N/A -   "
2.73, 66.2865, 0.004709371, NaN, NaN, NaN, 0.0384545, "- N/A -   "
2.75, 66.87622, 0.00474825, NaN, NaN, NaN, 0.03601294, "- N/A -   "
2.77, 67.46596, 0.00478712, NaN, NaN, NaN, 0.0335714, "- N/A -   "
2.79, 67.9377, 0.004823218, NaN, NaN, NaN, 0.0323506, "- N/A -   "
2.81, 68.29159, 0.004859315, NaN, NaN, NaN, 0.0323506, "- N/A -   "
2.83, 68.6454, 0.00488986, NaN, NaN, NaN, 0.0323506, "- N/A -   "
2.85, 69.11722, 0.004923181, NaN, NaN, NaN, 0.0323506, "- N/A -   "
2.87, 69.47106, 0.00495373, NaN, NaN, NaN, 0.0335714, "- N/A -   "
2.89, 69.8249, 0.00498427, NaN, NaN, NaN, 0.0347922, "- N/A -   "
2.91, 70.17874, 0.00501759, NaN, NaN, NaN, 0.0347922, "- N/A -   "
2.93, 70.7685, 0.00505091, NaN, NaN, NaN, 0.0347922, "- N/A -   "
2.95, 71.24027, 0.00508423, NaN, NaN, NaN, 0.0347922, "- N/A -   "
2.97, 71.71206, 0.00512033, NaN, NaN, NaN, 0.0347922, "- N/A -   "
2.99, 72.1838, 0.005156428, NaN, NaN, NaN, 0.0323506, "- N/A -   "
3.01, 72.77359, 0.0051953, NaN, NaN, NaN, 0.0299091, "- N/A -   "
3.03, 73.2454, 0.0052314, NaN, NaN, NaN, 0.0299091, "- N/A -   "
3.05, 73.71717, 0.00526194, NaN, NaN, NaN, 0.0299091, "- N/A -   "
3.07, 74.071, 0.00529249, NaN, NaN, NaN, 0.03112983, "- N/A -   "
3.09, 74.42485, 0.00532303, NaN, NaN, NaN, 0.0323506, "- N/A -   "
3.11, 75.0146, 0.005356354, NaN, NaN, NaN, 0.0323506, "- N/A -   "
3.13, 75.48638, 0.0053869, NaN, NaN, NaN, 0.0335714, "- N/A -   "
3.15, 75.8402, 0.00541744, NaN, NaN, NaN, 0.03601294, "- N/A -   "
3.17, 76.19407, 0.00544521, NaN, NaN, NaN, 0.0372337, "- N/A -   "
3.19, 76.5479, 0.00547575, NaN, NaN, NaN, 0.0396753, "- N/A -   "
3.21, 76.90175, 0.00550075, NaN, NaN, NaN, 0.04211683, "- N/A -   "
3.23, 77.37354, 0.00553129, NaN, NaN, NaN, 0.0433376, "- N/A -   "
3.25, 77.96328, 0.00556461, NaN, NaN, NaN, 0.0433376, "- N/A -   "
3.27, 78.4351, 0.005597932, NaN, NaN, NaN, 0.0445584, "- N/A -   "
3.29, 78.78891, 0.005628476, NaN, NaN, NaN, 0.0445584, "- N/A -   "
3.31, 79.37865, 0.00566457, NaN, NaN, NaN, 0.0433376, "- N/A -   "
3.33, 79.85043, 0.005697895, NaN, NaN, NaN, 0.0445584, "- N/A -   "
3.35, 80.44018, 0.005736769, NaN, NaN, NaN, 0.04211683, "- N/A -   "
3.37, 81.0299, 0.00577009, NaN, NaN, NaN, 0.04089605, "- N/A -   "
3.39, 81.5017, 0.005806188, NaN, NaN, NaN, 0.0396753, "- N/A -   "
3.41, 82.09144, 0.00584229, NaN, NaN, NaN, 0.0396753, "- N/A -   "
3.43, 82.68118, 0.005875607, NaN, NaN, NaN, 0.0384545, "- N/A -   "
3.45, 83.38886, 0.005914481, NaN, NaN, NaN, 0.03601294, "- N/A -   "
3.47, 83.74271, 0.005950579, NaN, NaN, NaN, 0.0347922, "- N/A -   "
3.49, 84.21449, 0.005986677, NaN, NaN, NaN, 0.0335714, "- N/A -   "
3.51, 84.68629, 0.006019998, NaN, NaN, NaN, 0.03601294, "- N/A -   "
3.53, 85.276, 0.00605332, NaN, NaN, NaN, 0.0347922, "- N/A -   "
3.55, 85.86576, 0.006092193, NaN, NaN, NaN, 0.0335714, "- N/A -   "
3.57, 86.4555, 0.006128291, NaN, NaN, NaN, 0.03112983, "- N/A -   "
3.59, 87.16318, 0.006167166, NaN, NaN, NaN, 0.0286883, "- N/A -   "
3.61, 87.51702, 0.006203263, NaN, NaN, NaN, 0.0274675, "- N/A -   "
3.63, 87.9888, 0.00623658, NaN, NaN, NaN, 0.0286883, "- N/A -   "
3.65, 88.57855, 0.006267129, NaN, NaN, NaN, 0.0286883, "- N/A -   "
3.67, 89.05035, 0.00630045, NaN, NaN, NaN, 0.0299091, "- N/A -   "
3.69, 89.40418, 0.006330994, NaN, NaN, NaN, 0.0299091, "- N/A -   "
3.71, 89.99392, 0.00635876, NaN, NaN, NaN, 0.0323506, "- N/A -   "
3.73, 90.22981, 0.006389306, NaN, NaN, NaN, 0.0347922, "- N/A -   "
3.75, 90.81956, 0.0064143, NaN, NaN, NaN, 0.0372337, "- N/A -   "
3.77, 91.1734, 0.006444841, NaN, NaN, NaN, 0.0384545, "- N/A -   "
3.79, 91.64519, 0.00647539, NaN, NaN, NaN, 0.0396753, "- N/A -   "
3.81, 92.23492, 0.00650593, NaN, NaN, NaN, 0.04089605, "- N/A -   "
3.83, 92.70671, 0.00654203, NaN, NaN, NaN, 0.0396753, "- N/A -   "
3.85, 93.0606, 0.006569795, NaN, NaN, NaN, 0.04211683, "- N/A -   "
3.87, 93.65029, 0.006600339, NaN, NaN, NaN, 0.0433376, "- N/A -   "
3.89, 94.1221, 0.00663088, NaN, NaN, NaN, 0.0445584, "- N/A -   "
3.91, 94.59387, 0.0066642, NaN, NaN, NaN, 0.04577916, "- N/A -   "
3.93, 95.06567, 0.00669753, NaN, NaN, NaN, 0.0445584, "- N/A -   "
3.95, 95.6554, 0.00673085, NaN, NaN, NaN, 0.0445584, "- N/A -   "
3.97, 96.12719, 0.00676417, NaN, NaN, NaN, 0.0445584, "- N/A -   "
3.99, 96.599, 0.00679749, NaN, NaN, NaN, 0.04577916, "- N/A -   "
4.01, 97.18872, 0.00682803, NaN, NaN, NaN, 0.04577916, "- N/A -   "
4.03, 97.77845, 0.00686691, NaN, NaN, NaN, 0.0445584, "- N/A -   "
4.05, 98.4861, 0.00690578, NaN, NaN, NaN, 0.04211683, "- N/A -   "
4.07, 99.0759, 0.00694188, NaN, NaN, NaN, 0.0396753, "- N/A -   "
4.09, 99.66561, 0.00698075, NaN, NaN, NaN, 0.0372337, "- N/A -   "
4.11, 100.3733, 0.007019629, NaN, NaN, NaN, 0.0347922, "- N/A -   "
4.13, 100.963, 0.0070585, NaN, NaN, NaN, 0.0323506, "- N/A -   "
4.15, 101.671, 0.00709738, NaN, NaN, NaN, 0.0299091, "- N/A -   "
4.17, 102.26, 0.00713348, NaN, NaN, NaN, 0.0286883, "- N/A -   "
4.19, 102.732, 0.00716402, NaN, NaN, NaN, 0.0299091, "- N/A -   "
4.21, 103.322, 0.00720012, NaN, NaN, NaN, 0.0286883, "- N/A -   "
4.23, 103.794, 0.00723344, NaN, NaN, NaN, 0.0286883, "- N/A -   "
4.25, 104.384, 0.00726398, NaN, NaN, NaN, 0.0299091, "- N/A -   "
4.27, 104.737, 0.0072973, NaN, NaN, NaN, 0.03112983, "- N/A -   "
4.29, 105.209, 0.00732507, NaN, NaN, NaN, 0.0323506, "- N/A -   "
4.31, 105.917, 0.00735839, NaN, NaN, NaN, 0.0323506, "- N/A -   "
4.33, 106.153, 0.007388937, NaN, NaN, NaN, 0.0335714, "- N/A -   "
4.35, 106.86, 0.00742226, NaN, NaN, NaN, 0.0347922, "- N/A -   "
4.37, 107.45, 0.00745558, NaN, NaN, NaN, 0.0347922, "- N/A -   "
4.39, 107.922, 0.00748612, NaN, NaN, NaN, 0.0347922, "- N/A -   "
4.41, 108.394, 0.007519444, NaN, NaN, NaN, 0.0347922, "- N/A -   "
4.43, 108.983, 0.007552765, NaN, NaN, NaN, 0.0347922, "- N/A -   "
4.45, 109.691, 0.007586086, NaN, NaN, NaN, 0.03601294, "- N/A -   "
4.47, 110.163, 0.007619407, NaN, NaN, NaN, 0.0347922, "- N/A -   "
4.49, 110.517, 0.007652728, NaN, NaN, NaN, 0.0347922, "- N/A -   "
4.51, 111.224, 0.007686049, NaN, NaN, NaN, 0.03601294, "- N/A -   "
4.53, 111.696, 0.00771104, NaN, NaN, NaN, 0.0384545, "- N/A -   "
4.55, 112.0501, 0.00773881, NaN, NaN, NaN, 0.04089605, "- N/A -   "
4.57, 112.522, 0.007766575, NaN, NaN, NaN, 0.0433376, "- N/A -   "
4.59, 113.112, 0.007799896, NaN, NaN, NaN, 0.0433376, "- N/A -   "
4.61, 113.701, 0.007833217, NaN, NaN, NaN, 0.0445584, "- N/A -   "
4.63, 114.173, 0.007863761, NaN, NaN, NaN, 0.0445584, "- N/A -   "
4.65, 114.645, 0.007891529, NaN, NaN, NaN, 0.04699994, "- N/A -   "
4.67, 115.235, 0.007927626, NaN, NaN, NaN, 0.04577916, "- N/A -   "
4.69, 115.824, 0.007963724, NaN, NaN, NaN, 0.0445584, "- N/A -   "
4.71, 116.5321, 0.008002599, NaN, NaN, NaN, 0.04211683, "- N/A -   "
4.73, 117.24, 0.008041473, NaN, NaN, NaN, 0.0396753, "- N/A -   "
4.75, 117.947, 0.008077571, NaN, NaN, NaN, 0.0384545, "- N/A -   "
4.77, 118.301, 0.008113669, NaN, NaN, NaN, 0.0372337, "- N/A -   "
4.79, 119.127, 0.008152544, NaN, NaN, NaN, 0.03601294, "- N/A -   "
4.81, 119.835, 0.008188642, NaN, NaN, NaN, 0.0347922, "- N/A -   "
4.83, 120.542, 0.008224739, NaN, NaN, NaN, 0.0323506, "- N/A -   "
4.85, 120.896, 0.008260837, NaN, NaN, NaN, 0.03112983, "- N/A -   "
4.87, 121.604, 0.008294158, NaN, NaN, NaN, 0.03112983, "- N/A -   "
4.89, 122.076, 0.008327479, NaN, NaN, NaN, 0.03112983, "- N/A -   "
4.91, 122.665, 0.008358023, NaN, NaN, NaN, 0.0323506, "- N/A -   "
4.93, 123.137, 0.008391344, NaN, NaN, NaN, 0.0335714, "- N/A -   "
4.95, 123.845, 0.008424665, NaN, NaN, NaN, 0.0323506, "- N/A -   "
4.97, 124.317, 0.008457987, NaN, NaN, NaN, 0.0323506, "- N/A -   "
4.99, 125.024, 0.00849131, NaN, NaN, NaN, 0.0323506, "- N/A -   "
5.01, 125.496, 0.008521851, NaN, NaN, NaN, 0.0335714, "- N/A -   "
5.03, 126.086, 0.008555172, NaN, NaN, NaN, 0.0335714, "- N/A -   "
5.05, 126.676, 0.00859127, NaN, NaN, NaN, 0.0335714, "- N/A -   "
5.07, 127.383, 0.008624592, NaN, NaN, NaN, 0.0323506, "- N/A -   "
5.09, 127.855, 0.008657913, NaN, NaN, NaN, 0.0335714, "- N/A -   "
5.11, 128.327, 0.00868568, NaN, NaN, NaN, 0.0347922, "- N/A -   "
5.13, 128.917, 0.008716224, NaN, NaN, NaN, 0.03601294, "- N/A -   "
5.15, 129.27, 0.008749545, NaN, NaN, NaN, 0.03601294, "- N/A -   "
5.17, 129.978, 0.008777313, NaN, NaN, NaN, 0.0384545, "- N/A -   "
5.19, 130.568, 0.008807857, NaN, NaN, NaN, 0.04089605, "- N/A -   "
5.21, 131.04, 0.008838401, NaN, NaN, NaN, 0.04089605, "- N/A -   "
5.23, 131.629, 0.008871722, NaN, NaN, NaN, 0.04211683, "- N/A -   "
5.25, 132.219, 0.008905043, NaN, NaN, NaN, 0.04089605, "- N/A -   "
5.27, 132.809, 0.008938364, NaN, NaN, NaN, 0.04089605, "- N/A -   "
5.29, 133.399, 0.008971685, NaN, NaN, NaN, 0.04089605, "- N/A -   "
5.31, 133.988, 0.009005006, NaN, NaN, NaN, 0.04211683, "- N/A -   "
5.33, 134.578, 0.009038327, NaN, NaN, NaN, 0.04211683, "- N/A -   "
5.35, 135.1678, 0.009071648, NaN, NaN, NaN, 0.04089605, "- N/A -   "
5.37, 135.875, 0.009104969, NaN, NaN, NaN, 0.04089605, "- N/A -   "
5.39, 136.465, 0.009141067, NaN, NaN, NaN, 0.0396753, "- N/A -   "
5.41, 137.055, 0.009174388, NaN, NaN, NaN, 0.0396753, "- N/A -   "
5.43, 137.8806, 0.009213263, NaN, NaN, NaN, 0.0372337, "- N/A -   "
5.45, 138.588, 0.00924936, NaN, NaN, NaN, 0.03601294, "- N/A -   "
5.47, 139.296, 0.009288235, NaN, NaN, NaN, 0.0347922, "- N/A -   "
5.49, 139.8857, 0.009321556, NaN, NaN, NaN, 0.0335714, "- N/A -   "
5.51, 140.475, 0.009354877, NaN, NaN, NaN, 0.0335714, "- N/A -   "
5.53, 140.947, 0.009388198, NaN, NaN, NaN, 0.0335714, "- N/A -   "
5.55, 141.537, 0.009421519, NaN, NaN, NaN, 0.0335714, "- N/A -   "
5.57, 142.245, 0.00945484, NaN, NaN, NaN, 0.0335714, "- N/A -   "
5.59, 142.8344, 0.009488161, NaN, NaN, NaN, 0.0335714, "- N/A -   "
5.61, 143.424, 0.00952148, NaN, NaN, NaN, 0.0335714, "- N/A -   "
5.63, 144.014, 0.009552026, NaN, NaN, NaN, 0.0347922, "- N/A -   "
5.65, 144.604, 0.009585348, NaN, NaN, NaN, 0.0347922, "- N/A -   "
5.67, 145.193, 0.009618668, NaN, NaN, NaN, 0.0347922, "- N/A -   "
5.69, 145.783, 0.009654766, NaN, NaN, NaN, 0.0335714, "- N/A -   "
5.71, 146.491, 0.009690864, NaN, NaN, NaN, 0.0323506, "- N/A -   "
5.73, 147.198, 0.009724185, NaN, NaN, NaN, 0.0323506, "- N/A -   "
5.75, 147.788, 0.009757506, NaN, NaN, NaN, 0.0323506, "- N/A -   "
5.77, 148.378, 0.009790827, NaN, NaN, NaN, 0.0323506, "- N/A -   "
5.79, 148.968, 0.009821371, NaN, NaN, NaN, 0.0335714, "- N/A -   "
5.81, 149.557, 0.009851916, NaN, NaN, NaN, 0.0347922, "- N/A -   "
5.83, 150.147, 0.009888013, NaN, NaN, NaN, 0.0335714, "- N/A -   "
5.85, 150.737, 0.009924111, NaN, NaN, NaN, 0.0335714, "- N/A -   "
5.87, 151.327, 0.009957432, NaN, NaN, NaN, 0.0335714, "- N/A -   "
5.89, 151.916, 0.0099852, NaN, NaN, NaN, 0.0347922, "- N/A -   "
5.91, 152.27, 0.010013, NaN, NaN, NaN, 0.0372337, "- N/A -   "
5.93, 152.86, 0.0100407, NaN, NaN, NaN, 0.0396753, "- N/A -   "
5.95, 153.45, 0.0100741, NaN, NaN, NaN, 0.04089605, "- N/A -   "
5.97, 154.0394, 0.0101074, NaN, NaN, NaN, 0.04089605, "- N/A -   "
5.99, 154.629, 0.01013792, NaN, NaN, NaN, 0.04211683, "- N/A -   "
6.01, 155.219, 0.0101685, NaN, NaN, NaN, 0.04211683, "- N/A -   "
6.03, 155.809, 0.010199, NaN, NaN, NaN, 0.0433376, "- N/A -   "
6.05, 156.398, 0.0102296, NaN, NaN, NaN, 0.0445584, "- N/A -   "
6.07, 156.988, 0.0102629, NaN, NaN, NaN, 0.0445584, "- N/A -   "
6.09, 157.578, 0.0102962, NaN, NaN, NaN, 0.0445584, "- N/A -   "
6.11, 158.2855, 0.0103323, NaN, NaN, NaN, 0.0433376, "- N/A -   "
6.13, 158.9932, 0.0103684, NaN, NaN, NaN, 0.04211683, "- N/A -   "
6.15, 159.819, 0.0104073, NaN, NaN, NaN, 0.04089605, "- N/A -   "
6.17, 160.644, 0.0104489, NaN, NaN, NaN, 0.0372337, "- N/A -   "
6.19, 161.234, 0.010485, NaN, NaN, NaN, 0.0347922, "- N/A -   "
6.21, 162.06, 0.0105239, NaN, NaN, NaN, 0.0323506, "- N/A -   "
6.23, 162.65, 0.01056, NaN, NaN, NaN, 0.03112983, "- N/A -   "
6.25, 163.2393, 0.0105933, NaN, NaN, NaN, 0.0323506, "- N/A -   "
6.27, 164.065, 0.0106239, NaN, NaN, NaN, 0.0323506, "- N/A -   "
6.29, 164.537, 0.0106572, NaN, NaN, NaN, 0.0323506, "- N/A -   "
6.31, 165.126, 0.0106905, NaN, NaN, NaN, 0.0335714, "- N/A -   "
6.33, 165.7162, 0.010721, NaN, NaN, NaN, 0.0335714, "- N/A -   "
6.35, 166.306, 0.0107544, NaN, NaN, NaN, 0.0335714, "- N/A -   "
6.37, 166.896, 0.0107905, NaN, NaN, NaN, 0.0335714, "- N/A -   "
6.39, 167.603, 0.0108238, NaN, NaN, NaN, 0.0323506, "- N/A -   "
6.41, 168.311, 0.0108599, NaN, NaN, NaN, 0.03112983, "- N/A -   "
6.43, 169.019, 0.0108988, NaN, NaN, NaN, 0.0299091, "- N/A -   "
6.45, 169.491, 0.0109293, NaN, NaN, NaN, 0.0299091, "- N/A -   "
6.47, 170.08, 0.0109598, NaN, NaN, NaN, 0.03112983, "- N/A -   "
6.49, 170.67, 0.0109904, NaN, NaN, NaN, 0.0323506, "- N/A -   "
6.51, 171.142, 0.0110182, NaN, NaN, NaN, 0.0347922, "- N/A -   "
6.53, 171.732, 0.0110515, NaN, NaN, NaN, 0.03601294, "- N/A -   "
6.55, 172.321, 0.0110848, NaN, NaN, NaN, 0.0347922, "- N/A -   "
6.57, 172.911, 0.0111126, NaN, NaN, NaN, 0.0372337, "- N/A -   "
6.59, 173.383, 0.0111403, NaN, NaN, NaN, 0.0396753, "- N/A -   "
6.61, 173.973, 0.0111709, NaN, NaN, NaN, 0.04089605, "- N/A -   "
6.63, 174.562, 0.0112014, NaN, NaN, NaN, 0.04211683, "- N/A -   "
6.65, 175.152, 0.0112292, NaN, NaN, NaN, 0.0445584, "- N/A -   "
6.67, 175.624, 0.0112597, NaN, NaN, NaN, 0.04699994, "- N/A -   "
6.69, 176.214, 0.0112903, NaN, NaN, NaN, 0.04699994, "- N/A -   "
6.71, 176.9212, 0.0113264, NaN, NaN, NaN, 0.04699994, "- N/A -   "
6.73, 177.511, 0.0113597, NaN, NaN, NaN, 0.04699994, "- N/A -   "
6.75, 178.1007, 0.01139579, NaN, NaN, NaN, 0.04577916, "- N/A -   "
6.77, 178.926, 0.0114319, NaN, NaN, NaN, 0.0433376, "- N/A -   "
6.79, 179.752, 0.0114735, NaN, NaN, NaN, 0.0396753, "- N/A -   "
6.81, 180.342, 0.0115096, NaN, NaN, NaN, 0.0384545, "- N/A -   "
6.83, 181.049, 0.0115485, NaN, NaN, NaN, 0.0372337, "- N/A -   "
6.85, 181.875, 0.0115846, NaN, NaN, NaN, 0.0347922, "- N/A -   "
6.87, 182.583, 0.0116235, NaN, NaN, NaN, 0.0335714, "- N/A -   "
6.89, 183.172, 0.0116596, NaN, NaN, NaN, 0.03112983, "- N/A -   "
6.91, 183.8801, 0.0116929, NaN, NaN, NaN, 0.03112983, "- N/A -   "
6.93, 184.47, 0.0117234, NaN, NaN, NaN, 0.0323506, "- N/A -   "
6.95, 185.06, 0.0117568, NaN, NaN, NaN, 0.0323506, "- N/A -   "
6.97, 185.649, 0.0117929, NaN, NaN, NaN, 0.03112983, "- N/A -   "
6.99, 186.357, 0.011829, NaN, NaN, NaN, 0.0299091, "- N/A -   "
7.01, 187.065, 0.0118678, NaN, NaN, NaN, 0.0286883, "- N/A -   "
7.03, 187.654, 0.0119012, NaN, NaN, NaN, 0.0274675, "- N/A -   "
7.05, 188.3621, 0.0119317, NaN, NaN, NaN, 0.0286883, "- N/A -   "
7.07, 188.834, 0.011965, NaN, NaN, NaN, 0.0286883, "- N/A -   "
7.09, 189.5416, 0.0120011, NaN, NaN, NaN, 0.0286883, "- N/A -   "
7.11, 190.131, 0.0120344, NaN, NaN, NaN, 0.0274675, "- N/A -   "
7.13, 190.839, 0.0120678, NaN, NaN, NaN, 0.0286883, "- N/A -   "
7.15, 191.311, 0.0120955, NaN, NaN, NaN, 0.0299091, "- N/A -   "
7.17, 191.901, 0.0121261, NaN, NaN, NaN, 0.0323506, "- N/A -   "
7.19, 192.372, 0.0121511, NaN, NaN, NaN, 0.0347922, "- N/A -   "
7.21, 192.844, 0.0121788, NaN, NaN, NaN, 0.0372337, "- N/A -   "
7.23, 193.198, 0.0122066, NaN, NaN, NaN, 0.0396753, "- N/A -   "
7.25, 193.7877, 0.0122371, NaN, NaN, NaN, 0.04089605, "- N/A -   "
7.27, 194.377, 0.01226769, NaN, NaN, NaN, 0.04211683, "- N/A -   "
7.29, 195.085, 0.01230101, NaN, NaN, NaN, 0.04211683, "- N/A -   "
7.31, 195.675, 0.0123316, NaN, NaN, NaN, 0.0433376, "- N/A -   "
7.33, 196.265, 0.0123649, NaN, NaN, NaN, 0.0433376, "- N/A -   "
7.35, 197.09, 0.012401, NaN, NaN, NaN, 0.04211683, "- N/A -   "
7.37, 197.562, 0.0124343, NaN, NaN, NaN, 0.04211683, "- N/A -   "
7.39, 198.152, 0.0124676, NaN, NaN, NaN, 0.04211683, "- N/A -   "
7.41, 198.859, 0.01249816, NaN, NaN, NaN, 0.0433376, "- N/A -   "
7.43, 199.449, 0.0125315, NaN, NaN, NaN, 0.0433376, "- N/A -   "
7.45, 200.157, 0.0125648, NaN, NaN, NaN, 0.0433376, "- N/A -   "
7.47, 200.7466, 0.0126009, NaN, NaN, NaN, 0.0433376, "- N/A -   "
7.49, 201.454, 0.012637, NaN, NaN, NaN, 0.04089605, "- N/A -   "
7.51, 202.162, 0.0126731, NaN, NaN, NaN, 0.0396753, "- N/A -   "
7.53, 202.9876, 0.0127147, NaN, NaN, NaN, 0.0372337, "- N/A -   "
7.55, 203.813, 0.0127536, NaN, NaN, NaN, 0.0335714, "- N/A -   "
7.57, 204.521, 0.0127925, NaN, NaN, NaN, 0.03112983, "- N/A -   "
7.59, 205.2286, 0.01283137, NaN, NaN, NaN, 0.0299091, "- N/A -   "
7.61, 205.936, 0.0128675, NaN, NaN, NaN, 0.0274675, "- N/A -   "
7.63, 206.644, 0.0129036, NaN, NaN, NaN, 0.0274675, "- N/A -   "
7.65, 207.2337, 0.0129369, NaN, NaN, NaN, 0.0274675, "- N/A -   "
7.67, 207.823, 0.0129702, NaN, NaN, NaN, 0.0274675, "- N/A -   "
7.69, 208.531, 0.0130008, NaN, NaN, NaN, 0.0274675, "- N/A -   "
7.71, 209.003, 0.0130341, NaN, NaN, NaN, 0.0274675, "- N/A -   "
7.73, 209.711, 0.01306184, NaN, NaN, NaN, 0.0299091, "- N/A -   "
7.75, 210.3, 0.0130924, NaN, NaN, NaN, 0.03112983, "- N/A -   "
7.77, 210.89, 0.0131257, NaN, NaN, NaN, 0.0323506, "- N/A -   "
7.79, 211.48, 0.01315625, NaN, NaN, NaN, 0.0323506, "- N/A -   "
7.81, 211.9516, 0.0131868, NaN, NaN, NaN, 0.0335714, "- N/A -   "
7.83, 212.541, 0.0132173, NaN, NaN, NaN, 0.0347922, "- N/A -   "
7.85, 213.131, 0.0132479, NaN, NaN, NaN, 0.03601294, "- N/A -   "
7.87, 213.721, 0.0132784, NaN, NaN, NaN, 0.0372337, "- N/A -   "
7.89, 214.1926, 0.013309, NaN, NaN, NaN, 0.0384545, "- N/A -   "
7.91, 214.782, 0.0133395, NaN, NaN, NaN, 0.0396753, "- N/A -   "
7.93, 215.49, 0.0133728, NaN, NaN, NaN, 0.04089605, "- N/A -   "
7.95, 216.08, 0.0134006, NaN, NaN, NaN, 0.04211683, "- N/A -   "
7.97, 216.67, 0.0134339, NaN, NaN, NaN, 0.04211683, "- N/A -   "
7.99, 217.259, 0.0134672, NaN, NaN, NaN, 0.04211683, "- N/A -   "
8.01, 217.967, 0.0135006, NaN, NaN, NaN, 0.04211683, "- N/A -   "
8.03, 218.6746, 0.0135339, NaN, NaN, NaN, 0.04211683, "- N/A -   "
8.05, 219.3823, 0.0135672, NaN, NaN, NaN, 0.0445584, "- N/A -   "
8.07, 219.8541, 0.0136005, NaN, NaN, NaN, 0.0433376, "- N/A -   "
8.09, 220.562, 0.0136339, NaN, NaN, NaN, 0.0433376, "- N/A -   "
8.11, 221.269, 0.0136727, NaN, NaN, NaN, 0.04089605, "- N/A -   "
8.13, 222.095, 0.0137116, NaN, NaN, NaN, 0.0384545, "- N/A -   "
8.15, 222.921, 0.0137505, NaN, NaN, NaN, 0.0372337, "- N/A -   "
8.17, 223.6284, 0.0137893, NaN, NaN, NaN, 0.0347922, "- N/A -   "
8.19, 224.336, 0.0138254, NaN, NaN, NaN, 0.0323506, "- N/A -   "
8.21, 225.044, 0.0138615, NaN, NaN, NaN, 0.0323506, "- N/A -   "
8.23, 225.6335, 0.0138949, NaN, NaN, NaN, 0.03112983, "- N/A -   "
8.25, 226.3412, 0.0139282, NaN, NaN, NaN, 0.03112983, "- N/A -   "
8.27, 226.931, 0.0139587, NaN, NaN, NaN, 0.0323506, "- N/A -   "
8.29, 227.521, 0.0139893, NaN, NaN, NaN, 0.0335714, "- N/A -   "
8.31, 228.11, 0.0140226, NaN, NaN, NaN, 0.0335714, "- N/A -   "
8.33, 228.7, 0.0140531, NaN, NaN, NaN, 0.0347922, "- N/A -   "
8.35, 229.408, 0.0140865, NaN, NaN, NaN, 0.0347922, "- N/A -   "
8.37, 229.998, 0.014117, NaN, NaN, NaN, 0.03601294, "- N/A -   "
8.39, 230.587, 0.0141476, NaN, NaN, NaN, 0.0372337, "- N/A -   "
8.41, 231.0591, 0.0141809, NaN, NaN, NaN, 0.0384545, "- N/A -   "
8.43, 231.767, 0.0142142, NaN, NaN, NaN, 0.0372337, "- N/A -   "
8.45, 232.357, 0.0142447, NaN, NaN, NaN, 0.0384545, "- N/A -   "
8.47, 233.0642, 0.0142781, NaN, NaN, NaN, 0.0384545, "- N/A -   "
8.49, 233.772, 0.0143114, NaN, NaN, NaN, 0.0384545, "- N/A -   "
8.51, 234.48, 0.0143475, NaN, NaN, NaN, 0.0372337, "- N/A -   "
8.53, 235.187, 0.0143836, NaN, NaN, NaN, 0.03601294, "- N/A -   "
8.55, 235.895, 0.0144169, NaN, NaN, NaN, 0.03601294, "- N/A -   "
8.57, 236.603, 0.0144502, NaN, NaN, NaN, 0.03601294, "- N/A -   "
8.59, 237.192, 0.0144835, NaN, NaN, NaN, 0.03601294, "- N/A -   "
8.61, 237.664, 0.0145113, NaN, NaN, NaN, 0.0384545, "- N/A -   "
8.62, 237.9, 0.014528, NaN, NaN, NaN, 0.0396753, "- N/A -   "
8.63, 238.372, 0.0145418, NaN, NaN, NaN, 0.0396753, "- N/A -   "
8.64, 238.608, 0.01455851, NaN, NaN, NaN, 0.0396753, "- N/A -   "
8.65, 238.962, 0.0145752, NaN, NaN, NaN, 0.0396753, "- N/A -   "
8.66, 239.315, 0.0145946, NaN, NaN, NaN, 0.0384545, "- N/A -   "
8.67, 239.669, 0.0146113, NaN, NaN, NaN, 0.0384545, "- N/A -   "
8.68, 240.0231, 0.0146279, NaN, NaN, NaN, 0.0384545, "- N/A -   "
8.69, 240.259, 0.0146446, NaN, NaN, NaN, 0.0384545, "- N/A -   "
8.7, 240.613, 0.01466125, NaN, NaN, NaN, 0.0384545, "- N/A -   "
8.71, 240.967, 0.01467791, NaN, NaN, NaN, 0.0384545, "- N/A -   "
8.72, 241.203, 0.0146946, NaN, NaN, NaN, 0.0384545, "- N/A -   "
8.73, 241.556, 0.0147112, NaN, NaN, NaN, 0.0396753, "- N/A -   "
8.74, 241.91, 0.0147279, NaN, NaN, NaN, 0.0396753, "- N/A -   "
8.75, 242.146, 0.0147446, NaN, NaN, NaN, 0.0396753, "- N/A -   "
8.76, 242.5, 0.0147584, NaN, NaN, NaN, 0.0396753, "- N/A -   "
8.77, 242.853, 0.0147751, NaN, NaN, NaN, 0.0396753, "- N/A -   "
8.78, 243.207, 0.0147918, NaN, NaN, NaN, 0.0396753, "- N/A -   "
8.79, 243.443, 0.0148084, NaN, NaN, NaN, 0.0396753, "- N/A -   "
8.8, 243.7961, 0.0148251, NaN, NaN, NaN, 0.0396753, "- N/A -   "
8.81, 244.15, 0.0148417, NaN, NaN, NaN, 0.0396753, "- N/A -   "
8.82, 244.621, 0.014864, NaN, NaN, NaN, 0.0384545, "- N/A -   "
8.83, 244.974, 0.0148806, NaN, NaN, NaN, 0.0384545, "- N/A -   "
8.84, 245.328, 0.0148973, NaN, NaN, NaN, 0.0372337, "- N/A -   "
8.85, 245.6813, 0.0149167, NaN, NaN, NaN, 0.0372337, "- N/A -   "
8.86, 246.035, 0.0149334, NaN, NaN, NaN, 0.03601294, "- N/A -   "
8.87, 246.388, 0.01495, NaN, NaN, NaN, 0.03601294, "- N/A -   "
8.88, 246.742, 0.0149667, NaN, NaN, NaN, 0.03601294, "- N/A -   "
8.89, 246.9774, 0.0149834, NaN, NaN, NaN, 0.0372337, "- N/A -   "
8.9, 247.331, 0.0149972, NaN, NaN, NaN, 0.0372337, "- N/A -   "
8.91, 247.567, 0.01501112, NaN, NaN, NaN, 0.0384545, "- N/A -   "
8.92, 247.92, 0.0150278, NaN, NaN, NaN, 0.0384545, "- N/A -   "
8.93, 248.156, 0.0150444, NaN, NaN, NaN, 0.0396753, "- N/A -   "
8.94, 248.509, 0.0150583, NaN, NaN, NaN, 0.0396753, "- N/A -   "
8.95, 248.863, 0.015075, NaN, NaN, NaN, 0.0396753, "- N/A -   "
8.96, 249.216, 0.0150944, NaN, NaN, NaN, 0.0396753, "- N/A -   "
8.97, 249.57, 0.0151111, NaN, NaN, NaN, 0.0384545, "- N/A -   "
8.98, 249.923, 0.0151277, NaN, NaN, NaN, 0.0384545, "- N/A -   "
8.99, 250.277, 0.0151472, NaN, NaN, NaN, 0.0372337, "- N/A -   "
9, 250.63, 0.0151666, NaN, NaN, NaN, 0.0372337, "- N/A -   "
9.01, 251.101, 0.0151861, NaN, NaN, NaN, 0.03601294, "- N/A -   "
9.02, 251.455, 0.0152055, NaN, NaN, NaN, 0.0347922, "- N/A -   "
9.03, 251.926, 0.01522493, NaN, NaN, NaN, 0.0335714, "- N/A -   "
9.04, 252.28, 0.0152444, NaN, NaN, NaN, 0.0323506, "- N/A -   "
9.05, 252.633, 0.0152583, NaN, NaN, NaN, 0.0323506, "- N/A -   "
9.06, 252.987, 0.0152749, NaN, NaN, NaN, 0.0323506, "- N/A -   "
9.07, 253.34, 0.0152916, NaN, NaN, NaN, 0.0323506, "- N/A -   "
9.08, 253.576, 0.0153082, NaN, NaN, NaN, 0.0323506, "- N/A -   "
9.09, 253.929, 0.0153249, NaN, NaN, NaN, 0.0323506, "- N/A -   "
9.1, 254.165, 0.0153416, NaN, NaN, NaN, 0.0323506, "- N/A -   "
9.11, 254.518, 0.0153582, NaN, NaN, NaN, 0.0323506, "- N/A -   "
9.12, 254.99, 0.0153749, NaN, NaN, NaN, 0.0323506, "- N/A -   "
9.13, 255.225, 0.0153915, NaN, NaN, NaN, 0.0335714, "- N/A -   "
9.14, 255.579, 0.0154054, NaN, NaN, NaN, 0.0335714, "- N/A -   "
9.15, 255.932, 0.0154249, NaN, NaN, NaN, 0.0323506, "- N/A -   "
9.16, 256.286, 0.0154415, NaN, NaN, NaN, 0.0323506, "- N/A -   "
9.17, 256.639, 0.0154582, NaN, NaN, NaN, 0.0323506, "- N/A -   "
9.18, 256.8748, 0.0154748, NaN, NaN, NaN, 0.0323506, "- N/A -   "
9.19, 257.228, 0.0154915, NaN, NaN, NaN, 0.0323506, "- N/A -   "
9.2, 257.582, 0.01550816, NaN, NaN, NaN, 0.0323506, "- N/A -   "
9.21, 257.9352, 0.0155248, NaN, NaN, NaN, 0.0323506, "- N/A -   "
9.22, 258.171, 0.01554148, NaN, NaN, NaN, 0.0323506, "- N/A -   "
9.23, 258.524, 0.01555814, NaN, NaN, NaN, 0.0335714, "- N/A -   "
9.24, 258.878, 0.015572, NaN, NaN, NaN, 0.0335714, "- N/A -   "
9.25, 259.231, 0.0155915, NaN, NaN, NaN, 0.0335714, "- N/A -   "
9.26, 259.467, 0.0156053, NaN, NaN, NaN, 0.0335714, "- N/A -   "
9.27, 259.82, 0.0156192, NaN, NaN, NaN, 0.0347922, "- N/A -   "
9.28, 260.174, 0.0156359, NaN, NaN, NaN, 0.03601294, "- N/A -   "
9.29, 260.41, 0.0156498, NaN, NaN, NaN, 0.03601294, "- N/A -   "
9.3, 260.6452, 0.0156637, NaN, NaN, NaN, 0.0372337, "- N/A -   "
9.31, 260.9987, 0.01567754, NaN, NaN, NaN, 0.0384545, "- N/A -   "
9.32, 261.234, 0.0156942, NaN, NaN, NaN, 0.0384545, "- N/A -   "
9.33, 261.588, 0.0157109, NaN, NaN, NaN, 0.0384545, "- N/A -   "
9.34, 261.8235, 0.0157275, NaN, NaN, NaN, 0.0384545, "- N/A -   "
9.35, 262.295, 0.0157442, NaN, NaN, NaN, 0.0384545, "- N/A -   "
9.36, 262.648, 0.0157608, NaN, NaN, NaN, 0.0384545, "- N/A -   "
9.37, 262.8839, 0.0157775, NaN, NaN, NaN, 0.0396753, "- N/A -   "
9.38, 263.2374, 0.0157942, NaN, NaN, NaN, 0.0384545, "- N/A -   "
9.39, 263.591, 0.015808, NaN, NaN, NaN, 0.0396753, "- N/A -   "
9.4, 263.944, 0.01582471, NaN, NaN, NaN, 0.04089605, "- N/A -   "
9.41, 264.18, 0.0158386, NaN, NaN, NaN, 0.04211683, "- N/A -   "
9.42, 264.416, 0.0158553, NaN, NaN, NaN, 0.04211683, "- N/A -   "
9.43, 264.887, 0.0158691, NaN, NaN, NaN, 0.04211683, "- N/A -   "
9.44, 265.123, 0.0158858, NaN, NaN, NaN, 0.04211683, "- N/A -   "
9.45, 265.476, 0.0159025, NaN, NaN, NaN, 0.04211683, "- N/A -   "
9.46, 265.712, 0.01591912, NaN, NaN, NaN, 0.04211683, "- N/A -   "
9.47, 266.065, 0.015933, NaN, NaN, NaN, 0.0433376, "- N/A -   "
9.48, 266.4187, 0.0159497, NaN, NaN, NaN, 0.0433376, "- N/A -   "
9.49, 266.7722, 0.0159635, NaN, NaN, NaN, 0.0445584, "- N/A -   "
9.5, 267.126, 0.0159802, NaN, NaN, NaN, 0.0445584, "- N/A -   "
9.51, 267.479, 0.0159996, NaN, NaN, NaN, 0.0445584, "- N/A -   "
9.52, 267.8326, 0.0160163, NaN, NaN, NaN, 0.0433376, "- N/A -   "
9.53, 268.1861, 0.0160357, NaN, NaN, NaN, 0.0433376, "- N/A -   "
9.54, 268.657, 0.0160524, NaN, NaN, NaN, 0.04211683, "- N/A -   "
9.55, 269.011, 0.0160691, NaN, NaN, NaN, 0.04211683, "- N/A -   "
9.56, 269.364, 0.0160885, NaN, NaN, NaN, 0.04089605, "- N/A -   "
9.57, 269.7178, 0.0161079, NaN, NaN, NaN, 0.0396753, "- N/A -   "
9.58, 270.189, 0.0161302, NaN, NaN, NaN, 0.0372337, "- N/A -   "
9.59, 270.66, 0.0161496, NaN, NaN, NaN, 0.0372337, "- N/A -   "
9.6, 271.014, 0.016169, NaN, NaN, NaN, 0.03601294, "- N/A -   "
9.61, 271.485, 0.0161857, NaN, NaN, NaN, 0.0347922, "- N/A -   "
9.62, 271.7209, 0.0162051, NaN, NaN, NaN, 0.0335714, "- N/A -   "
9.63, 272.074, 0.0162218, NaN, NaN, NaN, 0.0335714, "- N/A -   "
9.64, 272.428, 0.0162384, NaN, NaN, NaN, 0.0335714, "- N/A -   "
9.65, 272.663, 0.0162551, NaN, NaN, NaN, 0.0335714, "- N/A -   "
9.66, 273.1348, 0.0162718, NaN, NaN, NaN, 0.0335714, "- N/A -   "
9.67, 273.488, 0.0162884, NaN, NaN, NaN, 0.0335714, "- N/A -   "
9.68, 273.842, 0.0163051, NaN, NaN, NaN, 0.0335714, "- N/A -   "
9.69, 274.195, 0.0163217, NaN, NaN, NaN, 0.0335714, "- N/A -   "
9.7, 274.431, 0.0163384, NaN, NaN, NaN, 0.0335714, "- N/A -   "
9.71, 274.784, 0.0163578, NaN, NaN, NaN, 0.0335714, "- N/A -   "
9.72, 275.138, 0.0163717, NaN, NaN, NaN, 0.0335714, "- N/A -   "
9.73, 275.4913, 0.0163884, NaN, NaN, NaN, 0.0335714, "- N/A -   "
9.74, 275.727, 0.0164023, NaN, NaN, NaN, 0.0347922, "- N/A -   "
9.75, 276.08, 0.0164189, NaN, NaN, NaN, 0.0347922, "- N/A -   "
9.76, 276.434, 0.0164356, NaN, NaN, NaN, 0.0347922, "- N/A -   "
9.77, 276.67, 0.0164523, NaN, NaN, NaN, 0.0347922, "- N/A -   "
9.78, 277.141, 0.0164689, NaN, NaN, NaN, 0.0347922, "- N/A -   "
9.79, 277.494, 0.0164884, NaN, NaN, NaN, 0.0335714, "- N/A -   "
9.8, 277.8478, 0.01650779, NaN, NaN, NaN, 0.0323506, "- N/A -   "
9.81, 278.319, 0.0165272, NaN, NaN, NaN, 0.03112983, "- N/A -   "
[...]
22.09, 772.89, 0.0369863, NaN, NaN, NaN, 0.0347922, "- N/A -   "
22.11, 773.7179, 0.0370197, NaN, NaN, NaN, 0.0347922, "- N/A -   "
22.13, 774.546, 0.037053, NaN, NaN, NaN, 0.0347922, "- N/A -   "
22.15, 775.6103, 0.0370891, NaN, NaN, NaN, 0.0335714, "- N/A -   "
22.17, 776.438, 0.0371224, NaN, NaN, NaN, 0.0347922, "- N/A -   "
22.19, 777.2663, 0.0371557, NaN, NaN, NaN, 0.0335714, "- N/A -   "
22.21, 778.212, 0.037189, NaN, NaN, NaN, 0.0335714, "- N/A -   "
22.23, 778.804, 0.03722236, NaN, NaN, NaN, 0.0347922, "- N/A -   "
22.25, 779.7502, 0.0372501, NaN, NaN, NaN, 0.03601294, "- N/A -   "
22.27, 780.46, 0.03728067, NaN, NaN, NaN, 0.0384545, "- N/A -   "
22.29, 781.17, 0.03730844, NaN, NaN, NaN, 0.04089605, "- N/A -   "
22.31, 781.8792, 0.0373362, NaN, NaN, NaN, 0.04211683, "- N/A -   "
22.33, 782.5889, 0.0373695, NaN, NaN, NaN, 0.04211683, "- N/A -   "
22.35, 783.7717, 0.0374056, NaN, NaN, NaN, 0.04089605, "- N/A -   "
22.37, 784.5997, 0.0374417, NaN, NaN, NaN, 0.04089605, "- N/A -   "
22.39, 785.4276, 0.0374723, NaN, NaN, NaN, 0.04089605, "- N/A -   "
22.41, 786.2557, 0.0375084, NaN, NaN, NaN, 0.04089605, "- N/A -   "
22.43, 787.0836, 0.03753891, NaN, NaN, NaN, 0.04089605, "- N/A -   "
22.45, 788.03, 0.03757223, NaN, NaN, NaN, 0.04089605, "- N/A -   "
22.47, 789.094, 0.03760833, NaN, NaN, NaN, 0.0396753, "- N/A -   "
22.49, 790.0406, 0.0376444, NaN, NaN, NaN, 0.0384545, "- N/A -   "
22.51, 790.8685, 0.0376777, NaN, NaN, NaN, 0.0384545, "- N/A -   "
22.53, 791.6966, 0.0377111, NaN, NaN, NaN, 0.0384545, "- N/A -   "
22.55, 792.643, 0.0377472, NaN, NaN, NaN, 0.0372337, "- N/A -   "
22.57, 793.7073, 0.03778604, NaN, NaN, NaN, 0.0347922, "- N/A -   "
22.59, 794.654, 0.03782214, NaN, NaN, NaN, 0.0335714, "- N/A -   "
22.61, 795.4815, 0.0378527, NaN, NaN, NaN, 0.0347922, "- N/A -   "
22.63, 796.309, 0.037886, NaN, NaN, NaN, 0.0347922, "- N/A -   "
22.65, 797.256, 0.0379221, NaN, NaN, NaN, 0.0347922, "- N/A -   "
22.67, 798.0837, 0.0379526, NaN, NaN, NaN, 0.0347922, "- N/A -   "
22.69, 798.9116, 0.037986, NaN, NaN, NaN, 0.0347922, "- N/A -   "
22.71, 799.7397, 0.03801929, NaN, NaN, NaN, 0.0347922, "- N/A -   "
22.73, 800.5676, 0.0380526, NaN, NaN, NaN, 0.0347922, "- N/A -   "
22.75, 801.396, 0.03808315, NaN, NaN, NaN, 0.03601294, "- N/A -   "
22.77, 802.2236, 0.0381165, NaN, NaN, NaN, 0.03601294, "- N/A -   "
22.79, 803.0515, 0.0381498, NaN, NaN, NaN, 0.0372337, "- N/A -   "
22.81, 803.879, 0.0381803, NaN, NaN, NaN, 0.0372337, "- N/A -   "
22.83, 804.826, 0.03821366, NaN, NaN, NaN, 0.0384545, "- N/A -   "
22.85, 805.5354, 0.03824698, NaN, NaN, NaN, 0.0384545, "- N/A -   "
22.87, 806.363, 0.03827752, NaN, NaN, NaN, 0.0384545, "- N/A -   "
22.89, 807.31, 0.03831362, NaN, NaN, NaN, 0.0372337, "- N/A -   "
22.91, 808.374, 0.0383525, NaN, NaN, NaN, 0.0347922, "- N/A -   "
22.93, 809.2021, 0.0383858, NaN, NaN, NaN, 0.03601294, "- N/A -   "
22.95, 810.0301, 0.0384136, NaN, NaN, NaN, 0.0372337, "- N/A -   "
22.97, 810.858, 0.03844413, NaN, NaN, NaN, 0.0384545, "- N/A -   "
22.99, 811.5677, 0.03847467, NaN, NaN, NaN, 0.0396753, "- N/A -   "
23.01, 812.3957, 0.0385052, NaN, NaN, NaN, 0.04089605, "- N/A -   "
23.03, 813.224, 0.0385413, NaN, NaN, NaN, 0.0396753, "- N/A -   "
23.05, 814.17, 0.03857464, NaN, NaN, NaN, 0.0396753, "- N/A -   "
23.07, 815.116, 0.03860796, NaN, NaN, NaN, 0.0396753, "- N/A -   "
23.09, 815.826, 0.0386385, NaN, NaN, NaN, 0.04089605, "- N/A -   "
23.11, 816.6538, 0.03867182, NaN, NaN, NaN, 0.04089605, "- N/A -   "
23.13, 817.7183, 0.03870792, NaN, NaN, NaN, 0.0396753, "- N/A -   "
23.15, 818.5463, 0.0387412, NaN, NaN, NaN, 0.0396753, "- N/A -   "
23.17, 819.4925, 0.03877456, NaN, NaN, NaN, 0.0396753, "- N/A -   "
23.19, 820.321, 0.03881066, NaN, NaN, NaN, 0.0384545, "- N/A -   "
23.21, 821.2667, 0.038844, NaN, NaN, NaN, 0.0384545, "- N/A -   "
23.23, 822.213, 0.0388801, NaN, NaN, NaN, 0.0372337, "- N/A -   "
23.25, 823.159, 0.038919, NaN, NaN, NaN, 0.0347922, "- N/A -   "
23.27, 824.105, 0.03895505, NaN, NaN, NaN, 0.0347922, "- N/A -   "
23.29, 824.9334, 0.03898837, NaN, NaN, NaN, 0.0335714, "- N/A -   "
23.31, 825.8797, 0.03902447, NaN, NaN, NaN, 0.0323506, "- N/A -   "
23.33, 826.8259, 0.03905779, NaN, NaN, NaN, 0.0323506, "- N/A -   "
23.35, 827.7722, 0.03909111, NaN, NaN, NaN, 0.0323506, "- N/A -   "
23.37, 828.4819, 0.0391244, NaN, NaN, NaN, 0.0323506, "- N/A -   "
23.39, 829.3098, 0.03915498, NaN, NaN, NaN, 0.0335714, "- N/A -   "
23.41, 830.1378, 0.0391883, NaN, NaN, NaN, 0.0335714, "- N/A -   "
23.43, 831.0841, 0.03922162, NaN, NaN, NaN, 0.0335714, "- N/A -   "
23.45, 831.912, 0.0392605, NaN, NaN, NaN, 0.03112983, "- N/A -   "
23.47, 833.095, 0.03929937, NaN, NaN, NaN, 0.0286883, "- N/A -   "
23.49, 833.9228, 0.03933269, NaN, NaN, NaN, 0.0286883, "- N/A -   "
23.51, 834.751, 0.03936601, NaN, NaN, NaN, 0.0286883, "- N/A -   "
23.53, 835.5787, 0.0393966, NaN, NaN, NaN, 0.0299091, "- N/A -   "
23.55, 836.407, 0.0394299, NaN, NaN, NaN, 0.03112983, "- N/A -   "
23.57, 837.2347, 0.03946042, NaN, NaN, NaN, 0.03112983, "- N/A -   "
23.59, 838.0626, 0.039491, NaN, NaN, NaN, 0.0323506, "- N/A -   "
23.61, 839.0089, 0.0395243, NaN, NaN, NaN, 0.0323506, "- N/A -   "
23.63, 839.482, 0.03954928, NaN, NaN, NaN, 0.03601294, "- N/A -   "
23.65, 840.192, 0.0395743, NaN, NaN, NaN, 0.0396753, "- N/A -   "
23.67, 840.9014, 0.039602, NaN, NaN, NaN, 0.04211683, "- N/A -   "
23.69, 841.4928, 0.0396326, NaN, NaN, NaN, 0.0433376, "- N/A -   "
23.71, 842.321, 0.03966312, NaN, NaN, NaN, 0.04577916, "- N/A -   "
23.73, 843.1487, 0.0396909, NaN, NaN, NaN, 0.04699994, "- N/A -   "
23.75, 843.9767, 0.0397242, NaN, NaN, NaN, 0.04699994, "- N/A -   "
23.77, 844.8046, 0.0397548, NaN, NaN, NaN, 0.0482207, "- N/A -   "
23.79, 845.5143, 0.0397853, NaN, NaN, NaN, 0.0494415, "- N/A -   "
23.81, 846.579, 0.0398242, NaN, NaN, NaN, 0.0482207, "- N/A -   "
23.83, 847.5251, 0.0398658, NaN, NaN, NaN, 0.0445584, "- N/A -   "
23.85, 848.826, 0.0399047, NaN, NaN, NaN, 0.04089605, "- N/A -   "
23.87, 849.772, 0.03994635, NaN, NaN, NaN, 0.0372337, "- N/A -   "
23.89, 850.8369, 0.03998245, NaN, NaN, NaN, 0.03601294, "- N/A -   "
23.91, 851.7832, 0.0400185, NaN, NaN, NaN, 0.0347922, "- N/A -   "
23.93, 852.729, 0.0400546, NaN, NaN, NaN, 0.0347922, "- N/A -   "
23.95, 853.5574, 0.040088, NaN, NaN, NaN, 0.0335714, "- N/A -   "
23.97, 854.385, 0.04012129, NaN, NaN, NaN, 0.0335714, "- N/A -   "
23.99, 855.3316, 0.04015461, NaN, NaN, NaN, 0.0335714, "- N/A -   "
24.01, 856.16, 0.0401907, NaN, NaN, NaN, 0.0335714, "- N/A -   "
24.03, 857.2241, 0.0402268, NaN, NaN, NaN, 0.0323506, "- N/A -   "
24.05, 858.052, 0.0402601, NaN, NaN, NaN, 0.03112983, "- N/A -   "
24.07, 858.88, 0.0402962, NaN, NaN, NaN, 0.0299091, "- N/A -   "
24.09, 859.8263, 0.0403295, NaN, NaN, NaN, 0.0299091, "- N/A -   "
24.11, 860.7725, 0.0403629, NaN, NaN, NaN, 0.0299091, "- N/A -   "
24.13, 861.6, 0.0403962, NaN, NaN, NaN, 0.0299091, "- N/A -   "
24.15, 862.547, 0.0404323, NaN, NaN, NaN, 0.0299091, "- N/A -   "
24.17, 863.3747, 0.0404628, NaN, NaN, NaN, 0.0299091, "- N/A -   "
24.19, 864.0844, 0.04049615, NaN, NaN, NaN, 0.03112983, "- N/A -   "
24.21, 864.9124, 0.0405239, NaN, NaN, NaN, 0.0323506, "- N/A -   "
24.23, 865.5038, 0.04055168, NaN, NaN, NaN, 0.0347922, "- N/A -   "
24.25, 866.3317, 0.0405822, NaN, NaN, NaN, 0.03601294, "- N/A -   "
24.27, 867.041, 0.0406128, NaN, NaN, NaN, 0.0384545, "- N/A -   "
24.29, 867.8694, 0.04064054, NaN, NaN, NaN, 0.0396753, "- N/A -   "
24.31, 868.5791, 0.0406711, NaN, NaN, NaN, 0.04211683, "- N/A -   "
24.33, 869.289, 0.0406989, NaN, NaN, NaN, 0.0433376, "- N/A -   "
24.35, 869.9985, 0.0407294, NaN, NaN, NaN, 0.0445584, "- N/A -   "
24.37, 870.9447, 0.0407655, NaN, NaN, NaN, 0.0433376, "- N/A -   "
24.39, 871.8909, 0.0407988, NaN, NaN, NaN, 0.0433376, "- N/A -   "
24.41, 872.719, 0.04083214, NaN, NaN, NaN, 0.0433376, "- N/A -   "
24.43, 873.5469, 0.04086546, NaN, NaN, NaN, 0.0433376, "- N/A -   "
24.45, 874.4931, 0.0408988, NaN, NaN, NaN, 0.0433376, "- N/A -   "
24.47, 875.3211, 0.0409349, NaN, NaN, NaN, 0.04211683, "- N/A -   "
24.49, 876.3856, 0.040971, NaN, NaN, NaN, 0.04211683, "- N/A -   "
24.51, 877.3319, 0.04100985, NaN, NaN, NaN, 0.0396753, "- N/A -   "
24.53, 878.278, 0.0410459, NaN, NaN, NaN, 0.0372337, "- N/A -   "
24.55, 879.1061, 0.041082, NaN, NaN, NaN, 0.0372337, "- N/A -   "
24.57, 880.171, 0.04111814, NaN, NaN, NaN, 0.03601294, "- N/A -   "
24.59, 881.1169, 0.04115424, NaN, NaN, NaN, 0.0335714, "- N/A -   "
24.61, 882.181, 0.0411903, NaN, NaN, NaN, 0.0323506, "- N/A -   "
24.63, 883.1276, 0.04122643, NaN, NaN, NaN, 0.03112983, "- N/A -   "
24.65, 883.9556, 0.0412598, NaN, NaN, NaN, 0.03112983, "- N/A -   "
24.67, 885.0201, 0.0412986, NaN, NaN, NaN, 0.0299091, "- N/A -   "
24.69, 885.9664, 0.0413347, NaN, NaN, NaN, 0.0286883, "- N/A -   "
24.71, 886.7943, 0.0413708, NaN, NaN, NaN, 0.0274675, "- N/A -   "
24.73, 887.7406, 0.0414041, NaN, NaN, NaN, 0.0262467, "- N/A -   "
24.75, 888.6868, 0.0414375, NaN, NaN, NaN, 0.0262467, "- N/A -   "
24.77, 889.3965, 0.0414708, NaN, NaN, NaN, 0.0262467, "- N/A -   "
24.79, 890.1062, 0.0415013, NaN, NaN, NaN, 0.0274675, "- N/A -   "
24.81, 890.8159, 0.04152355, NaN, NaN, NaN, 0.0323506, "- N/A -   "
24.83, 891.644, 0.0415541, NaN, NaN, NaN, 0.0335714, "- N/A -   "
24.85, 892.3535, 0.0415846, NaN, NaN, NaN, 0.0347922, "- N/A -   "
24.87, 893.2998, 0.041618, NaN, NaN, NaN, 0.0347922, "- N/A -   "
24.89, 894.128, 0.0416513, NaN, NaN, NaN, 0.0347922, "- N/A -   "
24.91, 894.9557, 0.0416846, NaN, NaN, NaN, 0.0347922, "- N/A -   "
24.93, 895.7837, 0.0417151, NaN, NaN, NaN, 0.03601294, "- N/A -   "
24.95, 896.612, 0.0417512, NaN, NaN, NaN, 0.03601294, "- N/A -   "
24.97, 897.558, 0.0417846, NaN, NaN, NaN, 0.03601294, "- N/A -   "
24.99, 898.268, 0.0418151, NaN, NaN, NaN, 0.0372337, "- N/A -   "
25.01, 899.0956, 0.04184565, NaN, NaN, NaN, 0.0372337, "- N/A -   "
25.03, 899.9235, 0.0418734, NaN, NaN, NaN, 0.0396753, "- N/A -   "
25.05, 900.6332, 0.04190396, NaN, NaN, NaN, 0.04089605, "- N/A -   "
25.07, 901.3429, 0.04193173, NaN, NaN, NaN, 0.0433376, "- N/A -   "
25.09, 902.053, 0.0419595, NaN, NaN, NaN, 0.04577916, "- N/A -   "
25.11, 902.8805, 0.04199004, NaN, NaN, NaN, 0.04699994, "- N/A -   "
25.13, 903.7085, 0.04202336, NaN, NaN, NaN, 0.04699994, "- N/A -   "
25.15, 904.6547, 0.04205946, NaN, NaN, NaN, 0.04577916, "- N/A -   "
25.17, 905.719, 0.0420956, NaN, NaN, NaN, 0.0445584, "- N/A -   "
25.19, 906.7838, 0.04213443, NaN, NaN, NaN, 0.04211683, "- N/A -   "
25.21, 907.73, 0.0421733, NaN, NaN, NaN, 0.0396753, "- N/A -   "
25.23, 908.7946, 0.04221496, NaN, NaN, NaN, 0.03601294, "- N/A -   "
25.25, 909.859, 0.0422511, NaN, NaN, NaN, 0.0347922, "- N/A -   "
25.27, 910.9236, 0.0422899, NaN, NaN, NaN, 0.0335714, "- N/A -   "
25.29, 911.752, 0.0423233, NaN, NaN, NaN, 0.0323506, "- N/A -   "
25.31, 912.6978, 0.0423594, NaN, NaN, NaN, 0.03112983, "- N/A -   "
25.33, 913.644, 0.04239545, NaN, NaN, NaN, 0.0299091, "- N/A -   "
25.35, 914.472, 0.04242877, NaN, NaN, NaN, 0.03112983, "- N/A -   "
25.37, 915.182, 0.0424565, NaN, NaN, NaN, 0.0323506, "- N/A -   "
25.39, 915.773, 0.0424871, NaN, NaN, NaN, 0.0347922, "- N/A -   "
25.41, 916.601, 0.04251485, NaN, NaN, NaN, 0.03601294, "- N/A -   "
25.43, 917.4291, 0.0425454, NaN, NaN, NaN, 0.0384545, "- N/A -   "
25.45, 918.3753, 0.0425787, NaN, NaN, NaN, 0.0384545, "- N/A -   "
25.47, 919.2033, 0.04261203, NaN, NaN, NaN, 0.0372337, "- N/A -   "
25.49, 920.031, 0.04264813, NaN, NaN, NaN, 0.03601294, "- N/A -   "
25.51, 921.096, 0.042687, NaN, NaN, NaN, 0.0335714, "- N/A -   "
25.53, 922.16, 0.04272588, NaN, NaN, NaN, 0.0323506, "- N/A -   "
25.55, 922.9883, 0.0427592, NaN, NaN, NaN, 0.03112983, "- N/A -   "
25.57, 923.8162, 0.04279252, NaN, NaN, NaN, 0.03112983, "- N/A -   "
25.59, 924.6442, 0.0428231, NaN, NaN, NaN, 0.0323506, "- N/A -   "
25.61, 925.472, 0.0428536, NaN, NaN, NaN, 0.0335714, "- N/A -   "
25.63, 926.1818, 0.0428842, NaN, NaN, NaN, 0.0347922, "- N/A -   "
25.65, 927.0098, 0.04291192, NaN, NaN, NaN, 0.0372337, "- N/A -   "
25.67, 927.601, 0.0429425, NaN, NaN, NaN, 0.0396753, "- N/A -   "
25.69, 928.4292, 0.0429702, NaN, NaN, NaN, 0.04089605, "- N/A -   "
25.71, 929.139, 0.0430036, NaN, NaN, NaN, 0.04089605, "- N/A -   "
25.73, 930.085, 0.0430369, NaN, NaN, NaN, 0.04089605, "- N/A -   "
25.75, 931.0314, 0.0430702, NaN, NaN, NaN, 0.04089605, "- N/A -   "
25.77, 931.8593, 0.04310352, NaN, NaN, NaN, 0.04089605, "- N/A -   "
25.79, 932.8056, 0.0431396, NaN, NaN, NaN, 0.04089605, "- N/A -   "
25.81, 933.752, 0.04317294, NaN, NaN, NaN, 0.04089605, "- N/A -   "
25.83, 934.5798, 0.04320626, NaN, NaN, NaN, 0.0396753, "- N/A -   "
25.85, 935.526, 0.0432424, NaN, NaN, NaN, 0.0396753, "- N/A -   "
25.87, 936.5906, 0.0432785, NaN, NaN, NaN, 0.0384545, "- N/A -   "
25.89, 937.4186, 0.0433146, NaN, NaN, NaN, 0.0372337, "- N/A -   "
25.91, 938.6014, 0.0433534, NaN, NaN, NaN, 0.0347922, "- N/A -   "
25.93, 939.4293, 0.04338675, NaN, NaN, NaN, 0.0335714, "- N/A -   "
25.95, 940.3756, 0.0434228, NaN, NaN, NaN, 0.0335714, "- N/A -   "
25.97, 941.204, 0.04345339, NaN, NaN, NaN, 0.0335714, "- N/A -   "
25.99, 941.9132, 0.04348393, NaN, NaN, NaN, 0.0347922, "- N/A -   "
26.01, 942.6229, 0.04351448, NaN, NaN, NaN, 0.03601294, "- N/A -   "
26.03, 943.569, 0.0435478, NaN, NaN, NaN, 0.0372337, "- N/A -   "
26.05, 944.5154, 0.04358112, NaN, NaN, NaN, 0.03601294, "- N/A -   "
26.07, 945.3434, 0.04361722, NaN, NaN, NaN, 0.0347922, "- N/A -   "
26.09, 946.5262, 0.0436561, NaN, NaN, NaN, 0.0323506, "- N/A -   "
26.11, 947.3541, 0.0436922, NaN, NaN, NaN, 0.03112983, "- N/A -   "
26.13, 948.3004, 0.0437283, NaN, NaN, NaN, 0.03112983, "- N/A -   "
26.15, 949.0101, 0.0437588, NaN, NaN, NaN, 0.0323506, "- N/A -   "
26.17, 949.9563, 0.0437922, NaN, NaN, NaN, 0.0323506, "- N/A -   "
26.19, 950.7843, 0.0438227, NaN, NaN, NaN, 0.0335714, "- N/A -   "
26.21, 951.612, 0.043856, NaN, NaN, NaN, 0.0347922, "- N/A -   "
26.23, 952.5585, 0.0438893, NaN, NaN, NaN, 0.0335714, "- N/A -   "
26.25, 953.3865, 0.0439254, NaN, NaN, NaN, 0.0335714, "- N/A -   "
26.27, 954.3327, 0.04395876, NaN, NaN, NaN, 0.0323506, "- N/A -   "
26.29, 955.042, 0.0439893, NaN, NaN, NaN, 0.0335714, "- N/A -   "
26.31, 955.989, 0.0440254, NaN, NaN, NaN, 0.0335714, "- N/A -   "
26.33, 956.9349, 0.04405872, NaN, NaN, NaN, 0.0323506, "- N/A -   "
26.35, 957.7628, 0.044092, NaN, NaN, NaN, 0.0323506, "- N/A -   "
26.37, 958.473, 0.0441198, NaN, NaN, NaN, 0.0347922, "- N/A -   "
26.39, 959.182, 0.0441504, NaN, NaN, NaN, 0.0372337, "- N/A -   "
26.41, 960.1284, 0.04417812, NaN, NaN, NaN, 0.0384545, "- N/A -   "
26.43, 960.602, 0.0442059, NaN, NaN, NaN, 0.04089605, "- N/A -   "
26.45, 961.43, 0.0442364, NaN, NaN, NaN, 0.04211683, "- N/A -   "
26.47, 962.2575, 0.0442698, NaN, NaN, NaN, 0.0433376, "- N/A -   "
26.49, 962.967, 0.0442975, NaN, NaN, NaN, 0.0445584, "- N/A -   "
26.51, 963.795, 0.0443281, NaN, NaN, NaN, 0.04577916, "- N/A -   "
26.53, 964.6231, 0.04435861, NaN, NaN, NaN, 0.04699994, "- N/A -   "
26.55, 965.569, 0.04439471, NaN, NaN, NaN, 0.04577916, "- N/A -   "
26.57, 966.5156, 0.04442803, NaN, NaN, NaN, 0.04577916, "- N/A -   "
26.59, 967.462, 0.0444641, NaN, NaN, NaN, 0.04577916, "- N/A -   "
26.61, 968.4081, 0.0445002, NaN, NaN, NaN, 0.0433376, "- N/A -   "
26.63, 969.473, 0.0445391, NaN, NaN, NaN, 0.04089605, "- N/A -   "
26.65, 970.5372, 0.0445808, NaN, NaN, NaN, 0.0384545, "- N/A -   "
26.67, 971.72, 0.0446196, NaN, NaN, NaN, 0.0347922, "- N/A -   "
26.69, 972.4297, 0.04465295, NaN, NaN, NaN, 0.0347922, "- N/A -   "
26.71, 973.3759, 0.04468627, NaN, NaN, NaN, 0.0347922, "- N/A -   "
26.73, 974.2039, 0.0447196, NaN, NaN, NaN, 0.0347922, "- N/A -   "
26.75, 975.032, 0.04475291, NaN, NaN, NaN, 0.0347922, "- N/A -   "
26.77, 975.9781, 0.04478623, NaN, NaN, NaN, 0.0347922, "- N/A -   "
26.79, 976.6878, 0.0448196, NaN, NaN, NaN, 0.03601294, "- N/A -   "
26.81, 977.516, 0.0448501, NaN, NaN, NaN, 0.03601294, "- N/A -   "
26.83, 978.3437, 0.0448806, NaN, NaN, NaN, 0.0372337, "- N/A -   "
26.85, 979.29, 0.0449167, NaN, NaN, NaN, 0.03601294, "- N/A -   "
26.87, 980.4728, 0.0449584, NaN, NaN, NaN, 0.0323506, "- N/A -   "
26.89, 981.5373, 0.0449973, NaN, NaN, NaN, 0.0299091, "- N/A -   "
26.91, 982.4836, 0.04503336, NaN, NaN, NaN, 0.0286883, "- N/A -   "
26.93, 983.3115, 0.04506946, NaN, NaN, NaN, 0.0286883, "- N/A -   "
26.95, 984.2578, 0.0451, NaN, NaN, NaN, 0.0286883, "- N/A -   "
26.97, 984.967, 0.0451333, NaN, NaN, NaN, 0.0299091, "- N/A -   "
26.99, 985.7954, 0.04516387, NaN, NaN, NaN, 0.03112983, "- N/A -   "
27.01, 986.3868, 0.04518886, NaN, NaN, NaN, 0.0335714, "- N/A -   "
27.03, 986.9783, 0.0452166, NaN, NaN, NaN, 0.03601294, "- N/A -   "
27.05, 987.6879, 0.0452416, NaN, NaN, NaN, 0.0396753, "- N/A -   "
27.07, 988.3976, 0.0452694, NaN, NaN, NaN, 0.0433376, "- N/A -   "
27.09, 989.107, 0.0452972, NaN, NaN, NaN, 0.04577916, "- N/A -   "
27.11, 989.817, 0.04532492, NaN, NaN, NaN, 0.04699994, "- N/A -   "
27.13, 990.7632, 0.04536102, NaN, NaN, NaN, 0.04577916, "- N/A -   "
27.15, 991.7094, 0.04539434, NaN, NaN, NaN, 0.04577916, "- N/A -   "
27.17, 992.6557, 0.0454332, NaN, NaN, NaN, 0.0433376, "- N/A -   "
27.19, 993.7202, 0.0454721, NaN, NaN, NaN, 0.04089605, "- N/A -   "
27.21, 994.7848, 0.0455082, NaN, NaN, NaN, 0.0396753, "- N/A -   "
27.23, 995.8493, 0.04554428, NaN, NaN, NaN, 0.0384545, "- N/A -   "
27.25, 996.677, 0.04558038, NaN, NaN, NaN, 0.0372337, "- N/A -   "
27.27, 997.624, 0.0456137, NaN, NaN, NaN, 0.0372337, "- N/A -   "
27.29, 998.3332, 0.045647, NaN, NaN, NaN, 0.0372337, "- N/A -   "
27.31, 999.3977, 0.0456831, NaN, NaN, NaN, 0.03601294, "- N/A -   "
27.33, 1000.23, 0.04571922, NaN, NaN, NaN, 0.0347922, "- N/A -   "
27.35, 1001.29, 0.04575254, NaN, NaN, NaN, 0.0347922, "- N/A -   "
27.37, 1001.88, 0.0457859, NaN, NaN, NaN, 0.03601294, "- N/A -   "
27.39, 1002.83, 0.0458164, NaN, NaN, NaN, 0.03601294, "- N/A -   "
27.41, 1003.54, 0.0458497, NaN, NaN, NaN, 0.0372337, "- N/A -   "
27.43, 1004.48, 0.045883, NaN, NaN, NaN, 0.03601294, "- N/A -   "
27.45, 1005.55, 0.04592192, NaN, NaN, NaN, 0.0347922, "- N/A -   "
27.47, 1006.49, 0.04595802, NaN, NaN, NaN, 0.0335714, "- N/A -   "
27.49, 1007.44, 0.04599134, NaN, NaN, NaN, 0.0323506, "- N/A -   "
27.51, 1008.27, 0.0460274, NaN, NaN, NaN, 0.03112983, "- N/A -   "
27.53, 1009.33, 0.0460635, NaN, NaN, NaN, 0.0299091, "- N/A -   "
27.55, 1010.16, 0.0460969, NaN, NaN, NaN, 0.0299091, "- N/A -   "
27.57, 1011.11, 0.046133, NaN, NaN, NaN, 0.0299091, "- N/A -   "
27.59, 1011.94, 0.0461635, NaN, NaN, NaN, 0.0299091, "- N/A -   "
27.61, 1012.76, 0.0461968, NaN, NaN, NaN, 0.03112983, "- N/A -   "
27.63, 1013.6, 0.0462274, NaN, NaN, NaN, 0.03112983, "- N/A -   "
27.65, 1014.431, 0.04625791, NaN, NaN, NaN, 0.0323506, "- N/A -   "
27.67, 1015.03, 0.0462857, NaN, NaN, NaN, 0.0347922, "- N/A -   "
27.69, 1015.74, 0.0463134, NaN, NaN, NaN, 0.0372337, "- N/A -   "
27.71, 1016.46, 0.046344, NaN, NaN, NaN, 0.0384545, "- N/A -   "
27.73, 1017.05, 0.0463718, NaN, NaN, NaN, 0.04089605, "- N/A -   "
27.75, 1017.89, 0.0464023, NaN, NaN, NaN, 0.0433376, "- N/A -   "
27.77, 1018.84, 0.04643284, NaN, NaN, NaN, 0.0433376, "- N/A -   "
27.79, 1019.68, 0.0464662, NaN, NaN, NaN, 0.0433376, "- N/A -   "
27.81, 1020.51, 0.0464995, NaN, NaN, NaN, 0.0433376, "- N/A -   "
27.83, 1021.35, 0.04653281, NaN, NaN, NaN, 0.0433376, "- N/A -   "
27.85, 1022.3, 0.04656613, NaN, NaN, NaN, 0.0445584, "- N/A -   "
27.87, 1023.14, 0.0465967, NaN, NaN, NaN, 0.0445584, "- N/A -   "
27.89, 1024.09, 0.04662999, NaN, NaN, NaN, 0.0445584, "- N/A -   "
27.91, 1024.93, 0.0466633, NaN, NaN, NaN, 0.0445584, "- N/A -   "
27.93, 1025.88, 0.0466994, NaN, NaN, NaN, 0.0445584, "- N/A -   "
27.95, 1026.714, 0.0467327, NaN, NaN, NaN, 0.0433376, "- N/A -   "
27.97, 1027.668, 0.04676883, NaN, NaN, NaN, 0.04211683, "- N/A -   "
27.99, 1028.74, 0.0468077, NaN, NaN, NaN, 0.0396753, "- N/A -   "
28.01, 1029.81, 0.04684936, NaN, NaN, NaN, 0.03601294, "- N/A -   "
28.023, 1030.53, 0.04687435, NaN, NaN, NaN, 0.0347922, "- N/A -   "