File: 2_Tensile_Data/Hamel_ForceTest_Bolt5_Test5.csv
Time, Load (lb), Position (in), AxialStrain (in), TransverseStrain (in), Auxiliary (), Control Out (V), Stress (psi)
0.0, 1.41537, 0.0, NaN, NaN, NaN, 0.0982726, "- N/A -   "
0.01, 2.005107, 3.054427E-5, NaN, NaN, NaN, 0.104376, "- N/A -   "
0.02, 2.712792, 6.386529E-5, NaN, NaN, NaN, 0.100714, "- N/A -   "
0.03, 3.42048, 9.718631E-5, NaN, NaN, NaN, 0.09338949, "- N/A -   "
0.04, 4.010214, 0.000127731, NaN, NaN, NaN, 0.0872856, "- N/A -   "
0.05, 4.59995, 1.554981E-4, NaN, NaN, NaN, 0.08362327, "- N/A -   "
0.06, 5.071741, 0.000180489, NaN, NaN, NaN, 0.07874016, "- N/A -   "
0.07, 5.54353, 0.00020548, NaN, NaN, NaN, 0.0750778, "- N/A -   "
0.08, 5.897373, 0.000227694, NaN, NaN, NaN, 0.07263627, "- N/A -   "
0.09, 6.369163, 2.526844E-4, NaN, NaN, NaN, 0.0689739, "- N/A -   "
0.1, 6.84095, 2.776752E-4, NaN, NaN, NaN, 0.0653116, "- N/A -   "
0.11, 7.1948, 0.000302666, NaN, NaN, NaN, 0.06164927, "- N/A -   "
0.12, 7.784533, 0.00032488, NaN, NaN, NaN, 0.0592077, "- N/A -   "
0.13, 8.138375, 0.000349871, NaN, NaN, NaN, 0.05676616, "- N/A -   "
0.14, 8.492218, 3.748615E-4, NaN, NaN, NaN, 0.0531038, "- N/A -   "
0.15, 8.964007, 0.000397076, NaN, NaN, NaN, 0.05066227, "- N/A -   "
0.16, 9.31785, 4.192895E-4, NaN, NaN, NaN, 0.04699994, "- N/A -   "
0.17, 9.78964, 0.000441504, NaN, NaN, NaN, 0.0445584, "- N/A -   "
0.18, 10.1435, 0.000463718, NaN, NaN, NaN, 0.04211683, "- N/A -   "
0.19, 10.3794, 0.000485932, NaN, NaN, NaN, 0.0396753, "- N/A -   "
0.2, 10.8512, 0.000502592, NaN, NaN, NaN, 0.0396753, "- N/A -   "
0.21, 11.205, 5.192526E-4, NaN, NaN, NaN, 0.0396753, "- N/A -   "
0.22, 11.5589, 0.00053869, NaN, NaN, NaN, 0.0384545, "- N/A -   "
0.23, 11.7947, 5.553504E-4, NaN, NaN, NaN, 0.0384545, "- N/A -   "
0.24, 12.14859, 5.720109E-4, NaN, NaN, NaN, 0.0384545, "- N/A -   "
0.25, 12.5024, 0.000591448, NaN, NaN, NaN, 0.0372337, "- N/A -   "
0.26, 12.7383, 6.108854E-4, NaN, NaN, NaN, 0.03601294, "- N/A -   "
0.27, 13.09217, 0.000627546, NaN, NaN, NaN, 0.03601294, "- N/A -   "
0.28, 13.3281, 6.414297E-4, NaN, NaN, NaN, 0.0372337, "- N/A -   "
0.29, 13.6819, 0.00065809, NaN, NaN, NaN, 0.0372337, "- N/A -   "
0.3, 13.7999, 6.719739E-4, NaN, NaN, NaN, 0.0384545, "- N/A -   "
0.31, 14.1537, 0.000688634, NaN, NaN, NaN, 0.0396753, "- N/A -   "
0.32, 14.3896, 7.025182E-4, NaN, NaN, NaN, 0.0396753, "- N/A -   "
0.33, 14.5075, 7.191787E-4, NaN, NaN, NaN, 0.04089605, "- N/A -   "
0.34, 14.9793, 0.000733062, NaN, NaN, NaN, 0.04089605, "- N/A -   "
0.35, 15.2152, 7.49723E-4, NaN, NaN, NaN, 0.04089605, "- N/A -   "
0.36, 15.4511, 0.000763607, NaN, NaN, NaN, 0.04211683, "- N/A -   "
0.37, 15.805, 0.000780267, NaN, NaN, NaN, 0.04211683, "- N/A -   "
0.38, 16.0409, 0.000794151, NaN, NaN, NaN, 0.0433376, "- N/A -   "
0.39, 16.27675, 8.080348E-4, NaN, NaN, NaN, 0.0445584, "- N/A -   "
0.4, 16.5126, 8.246953E-4, NaN, NaN, NaN, 0.0445584, "- N/A -   "
0.409, 16.74854, 8.413558E-4, NaN, NaN, NaN, 0.04577916, "- N/A -   "
0.42, 17.2203, 8.552396E-4, NaN, NaN, NaN, 0.04577916, "- N/A -   "
0.43, 17.4562, 0.0008719, NaN, NaN, NaN, 0.04577916, "- N/A -   "
0.44, 17.8101, 8.885606E-4, NaN, NaN, NaN, 0.04577916, "- N/A -   "
0.45, 17.928, 9.052211E-4, NaN, NaN, NaN, 0.04577916, "- N/A -   "
0.46, 18.2819, 9.218816E-4, NaN, NaN, NaN, 0.04577916, "- N/A -   "
0.47, 18.6357, 9.385421E-4, NaN, NaN, NaN, 0.04577916, "- N/A -   "
0.48, 18.8716, 0.000957979, NaN, NaN, NaN, 0.0445584, "- N/A -   "
0.49, 19.1075, 9.746399E-4, NaN, NaN, NaN, 0.0445584, "- N/A -   "
0.5, 19.57928, 9.940772E-4, NaN, NaN, NaN, 0.0433376, "- N/A -   "
0.51, 19.9331, 0.00101351, NaN, NaN, NaN, 0.04211683, "- N/A -   "
0.52, 20.287, 0.00103295, NaN, NaN, NaN, 0.04089605, "- N/A -   "
0.53, 20.6408, 0.00105239, NaN, NaN, NaN, 0.0396753, "- N/A -   "
0.54, 20.8767, 0.00106905, NaN, NaN, NaN, 0.0396753, "- N/A -   "
0.55, 21.2305, 0.00108849, NaN, NaN, NaN, 0.0384545, "- N/A -   "
0.56, 21.5844, 0.00110515, NaN, NaN, NaN, 0.0384545, "- N/A -   "
0.57, 21.93823, 0.00112181, NaN, NaN, NaN, 0.0384545, "- N/A -   "
0.58, 22.29207, 0.00113847, NaN, NaN, NaN, 0.0384545, "- N/A -   "
0.59, 22.528, 0.00115791, NaN, NaN, NaN, 0.0372337, "- N/A -   "
0.6, 22.88181, 0.001174566, NaN, NaN, NaN, 0.0372337, "- N/A -   "
0.61, 23.1177, 0.001194, NaN, NaN, NaN, 0.0372337, "- N/A -   "
0.62, 23.4715, 0.00120789, NaN, NaN, NaN, 0.0372337, "- N/A -   "
0.63, 23.7074, 0.00122732, NaN, NaN, NaN, 0.0372337, "- N/A -   "
0.64, 24.0613, 0.00124398, NaN, NaN, NaN, 0.03601294, "- N/A -   "
0.65, 24.4151, 0.00126065, NaN, NaN, NaN, 0.03601294, "- N/A -   "
0.66, 24.5331, 0.001274529, NaN, NaN, NaN, 0.0372337, "- N/A -   "
0.67, 25.0049, 0.00129397, NaN, NaN, NaN, 0.03601294, "- N/A -   "
0.68, 25.2408, 0.00131063, NaN, NaN, NaN, 0.03601294, "- N/A -   "
0.69, 25.5946, 0.00132729, NaN, NaN, NaN, 0.03601294, "- N/A -   "
0.7, 25.9484, 0.0013495, NaN, NaN, NaN, 0.0335714, "- N/A -   "
0.71, 26.3023, 0.00136894, NaN, NaN, NaN, 0.0323506, "- N/A -   "
0.72, 26.6561, 0.00138838, NaN, NaN, NaN, 0.03112983, "- N/A -   "
0.73, 27.01, 0.00140781, NaN, NaN, NaN, 0.0299091, "- N/A -   "
0.74, 27.2459, 0.00142725, NaN, NaN, NaN, 0.0286883, "- N/A -   "
0.75, 27.5997, 0.001443911, NaN, NaN, NaN, 0.0286883, "- N/A -   "
0.76, 27.95355, 0.00146335, NaN, NaN, NaN, 0.0274675, "- N/A -   "
0.77, 28.3074, 0.00148001, NaN, NaN, NaN, 0.0274675, "- N/A -   "
0.78, 28.54329, 0.00149389, NaN, NaN, NaN, 0.0286883, "- N/A -   "
0.79, 28.89713, 0.001510553, NaN, NaN, NaN, 0.0286883, "- N/A -   "
0.8, 29.133, 0.00152999, NaN, NaN, NaN, 0.0286883, "- N/A -   "
0.81, 29.3689, 0.001543874, NaN, NaN, NaN, 0.0286883, "- N/A -   "
0.82, 29.7228, 0.00156053, NaN, NaN, NaN, 0.0299091, "- N/A -   "
0.83, 29.9587, 0.00157442, NaN, NaN, NaN, 0.0299091, "- N/A -   "
0.84, 30.3125, 0.00159108, NaN, NaN, NaN, 0.0299091, "- N/A -   "
0.85, 30.4304, 0.00160774, NaN, NaN, NaN, 0.0299091, "- N/A -   "
0.86, 30.78429, 0.001621623, NaN, NaN, NaN, 0.03112983, "- N/A -   "
0.87, 31.0202, 0.00163828, NaN, NaN, NaN, 0.03112983, "- N/A -   "
0.88, 31.374, 0.001654944, NaN, NaN, NaN, 0.03112983, "- N/A -   "
0.89, 31.8458, 0.0016716, NaN, NaN, NaN, 0.03112983, "- N/A -   "
0.9, 32.08171, 0.00168549, NaN, NaN, NaN, 0.0323506, "- N/A -   "
0.91, 32.1997, 0.00169937, NaN, NaN, NaN, 0.0335714, "- N/A -   "
0.919, 32.5535, 0.00171603, NaN, NaN, NaN, 0.0335714, "- N/A -   "
0.929, 32.7894, 0.00172992, NaN, NaN, NaN, 0.0347922, "- N/A -   "
0.94, 33.02529, 0.00174102, NaN, NaN, NaN, 0.0372337, "- N/A -   "
0.95, 33.1432, 0.00175491, NaN, NaN, NaN, 0.0384545, "- N/A -   "
0.96, 33.49708, 0.00176879, NaN, NaN, NaN, 0.0396753, "- N/A -   "
0.97, 33.61503, 0.00178267, NaN, NaN, NaN, 0.04089605, "- N/A -   "
0.98, 33.9689, 0.00179656, NaN, NaN, NaN, 0.04211683, "- N/A -   "
0.99, 34.2048, 0.00181322, NaN, NaN, NaN, 0.04211683, "- N/A -   "
1, 34.55861, 0.00182988, NaN, NaN, NaN, 0.04211683, "- N/A -   "
1.01, 34.7945, 0.00184099, NaN, NaN, NaN, 0.0445584, "- N/A -   "
1.02, 35.0304, 0.001857647, NaN, NaN, NaN, 0.0445584, "- N/A -   "
1.03, 35.2663, 0.00187153, NaN, NaN, NaN, 0.04577916, "- N/A -   "
1.04, 35.6201, 0.00188819, NaN, NaN, NaN, 0.04577916, "- N/A -   "
1.05, 35.85603, 0.00190485, NaN, NaN, NaN, 0.04577916, "- N/A -   "
1.06, 36.2099, 0.00192151, NaN, NaN, NaN, 0.04577916, "- N/A -   "
1.07, 36.6817, 0.00193817, NaN, NaN, NaN, 0.04577916, "- N/A -   "
1.08, 36.79961, 0.00195483, NaN, NaN, NaN, 0.04577916, "- N/A -   "
1.09, 37.0355, 0.00197149, NaN, NaN, NaN, 0.04699994, "- N/A -   "
1.1, 37.3893, 0.00198815, NaN, NaN, NaN, 0.04577916, "- N/A -   "
1.11, 37.6252, 0.00200481, NaN, NaN, NaN, 0.04577916, "- N/A -   "
1.12, 37.9791, 0.002024252, NaN, NaN, NaN, 0.04577916, "- N/A -   "
1.13, 38.3329, 0.002038136, NaN, NaN, NaN, 0.04577916, "- N/A -   "
1.14, 38.68677, 0.002057573, NaN, NaN, NaN, 0.0445584, "- N/A -   "
1.15, 39.04061, 0.00207423, NaN, NaN, NaN, 0.0445584, "- N/A -   "
1.16, 39.2765, 0.00209089, NaN, NaN, NaN, 0.0445584, "- N/A -   "
1.17, 39.6304, 0.00210755, NaN, NaN, NaN, 0.0445584, "- N/A -   "
1.18, 39.98419, 0.002126992, NaN, NaN, NaN, 0.0433376, "- N/A -   "
1.19, 40.22009, 0.00214643, NaN, NaN, NaN, 0.0433376, "- N/A -   "
1.2, 40.69188, 0.00216309, NaN, NaN, NaN, 0.0433376, "- N/A -   "
1.21, 40.9278, 0.00217975, NaN, NaN, NaN, 0.04211683, "- N/A -   "
1.22, 41.16367, 0.00219919, NaN, NaN, NaN, 0.04089605, "- N/A -   "
1.23, 41.51751, 0.00221585, NaN, NaN, NaN, 0.04089605, "- N/A -   "
1.24, 41.8714, 0.00223529, NaN, NaN, NaN, 0.0396753, "- N/A -   "
1.25, 42.2252, 0.00225472, NaN, NaN, NaN, 0.0384545, "- N/A -   "
1.26, 42.579, 0.00227416, NaN, NaN, NaN, 0.0372337, "- N/A -   "
1.27, 42.93288, 0.002293597, NaN, NaN, NaN, 0.03601294, "- N/A -   "
1.28, 43.2867, 0.002315811, NaN, NaN, NaN, 0.0335714, "- N/A -   "
1.29, 43.75851, 0.00233803, NaN, NaN, NaN, 0.0323506, "- N/A -   "
1.3, 44.2303, 0.00235746, NaN, NaN, NaN, 0.03112983, "- N/A -   "
1.31, 44.4662, 0.00237412, NaN, NaN, NaN, 0.0299091, "- N/A -   "
1.32, 44.70209, 0.00239078, NaN, NaN, NaN, 0.0299091, "- N/A -   "
1.33, 45.17388, 0.00240744, NaN, NaN, NaN, 0.0299091, "- N/A -   "
1.34, 45.40978, 0.0024241, NaN, NaN, NaN, 0.0299091, "- N/A -   "
1.35, 45.6457, 0.00244076, NaN, NaN, NaN, 0.0299091, "- N/A -   "
1.36, 45.9995, 0.00245743, NaN, NaN, NaN, 0.0299091, "- N/A -   "
1.37, 46.3534, 0.00247131, NaN, NaN, NaN, 0.03112983, "- N/A -   "
1.38, 46.4713, 0.00248797, NaN, NaN, NaN, 0.03112983, "- N/A -   "
1.39, 46.8251, 0.00250463, NaN, NaN, NaN, 0.0323506, "- N/A -   "
1.4, 47.179, 0.00251851, NaN, NaN, NaN, 0.0323506, "- N/A -   "
1.41, 47.4149, 0.00253517, NaN, NaN, NaN, 0.0323506, "- N/A -   "
1.42, 47.65078, 0.00255183, NaN, NaN, NaN, 0.0323506, "- N/A -   "
1.43, 48.00462, 0.0025685, NaN, NaN, NaN, 0.0323506, "- N/A -   "
1.44, 48.2405, 0.00258238, NaN, NaN, NaN, 0.0335714, "- N/A -   "
1.45, 48.59436, 0.00260182, NaN, NaN, NaN, 0.0323506, "- N/A -   "
1.46, 48.83025, 0.0026157, NaN, NaN, NaN, 0.0335714, "- N/A -   "
1.47, 49.1841, 0.00263514, NaN, NaN, NaN, 0.0323506, "- N/A -   "
1.48, 49.5379, 0.00264902, NaN, NaN, NaN, 0.0335714, "- N/A -   "
1.49, 49.7738, 0.00266568, NaN, NaN, NaN, 0.0335714, "- N/A -   "
1.5, 50.2456, 0.00268234, NaN, NaN, NaN, 0.0335714, "- N/A -   "
1.51, 50.3636, 0.002696226, NaN, NaN, NaN, 0.0347922, "- N/A -   "
1.52, 50.7174, 0.00271289, NaN, NaN, NaN, 0.0347922, "- N/A -   "
1.53, 50.9533, 0.00272677, NaN, NaN, NaN, 0.03601294, "- N/A -   "
1.54, 51.30715, 0.00274621, NaN, NaN, NaN, 0.0347922, "- N/A -   "
1.55, 51.543, 0.00276009, NaN, NaN, NaN, 0.03601294, "- N/A -   "
1.56, 51.89689, 0.00277675, NaN, NaN, NaN, 0.03601294, "- N/A -   "
1.57, 52.1328, 0.00279064, NaN, NaN, NaN, 0.0372337, "- N/A -   "
1.58, 52.36868, 0.0028073, NaN, NaN, NaN, 0.0372337, "- N/A -   "
1.59, 52.72252, 0.00282396, NaN, NaN, NaN, 0.0372337, "- N/A -   "
1.6, 52.9584, 0.00283784, NaN, NaN, NaN, 0.0384545, "- N/A -   "
1.61, 53.3123, 0.002854501, NaN, NaN, NaN, 0.0384545, "- N/A -   "
1.62, 53.54815, 0.00287116, NaN, NaN, NaN, 0.0384545, "- N/A -   "
1.63, 53.902, 0.002887822, NaN, NaN, NaN, 0.0384545, "- N/A -   "
1.64, 54.13789, 0.00290448, NaN, NaN, NaN, 0.0384545, "- N/A -   "
1.65, 54.4917, 0.00292114, NaN, NaN, NaN, 0.0384545, "- N/A -   "
1.66, 54.8456, 0.0029378, NaN, NaN, NaN, 0.0384545, "- N/A -   "
1.67, 55.0815, 0.002951687, NaN, NaN, NaN, 0.0396753, "- N/A -   "
1.68, 55.3174, 0.00296835, NaN, NaN, NaN, 0.04089605, "- N/A -   "
1.69, 55.55326, 0.00298223, NaN, NaN, NaN, 0.04089605, "- N/A -   "
1.7, 55.7892, 0.002996115, NaN, NaN, NaN, 0.04211683, "- N/A -   "
1.71, 56.143, 0.003012776, NaN, NaN, NaN, 0.04211683, "- N/A -   "
1.72, 56.37889, 0.00302666, NaN, NaN, NaN, 0.0433376, "- N/A -   "
1.73, 56.73273, 0.00304332, NaN, NaN, NaN, 0.0433376, "- N/A -   "
1.74, 57.08658, 0.00305998, NaN, NaN, NaN, 0.0433376, "- N/A -   "
1.75, 57.32247, 0.00307386, NaN, NaN, NaN, 0.0445584, "- N/A -   "
1.76, 57.6763, 0.0030933, NaN, NaN, NaN, 0.0445584, "- N/A -   "
1.77, 57.91221, 0.003109962, NaN, NaN, NaN, 0.0433376, "- N/A -   "
1.78, 58.26605, 0.00312662, NaN, NaN, NaN, 0.0433376, "- N/A -   "
1.79, 58.5019, 0.003143283, NaN, NaN, NaN, 0.0433376, "- N/A -   "
1.8, 58.8558, 0.003157167, NaN, NaN, NaN, 0.0445584, "- N/A -   "
1.81, 59.2096, 0.0031766, NaN, NaN, NaN, 0.0433376, "- N/A -   "
1.82, 59.4455, 0.00319326, NaN, NaN, NaN, 0.0433376, "- N/A -   "
1.83, 59.9173, 0.003212702, NaN, NaN, NaN, 0.04211683, "- N/A -   "
1.84, 60.15321, 0.00322936, NaN, NaN, NaN, 0.04211683, "- N/A -   "
1.85, 60.5071, 0.0032488, NaN, NaN, NaN, 0.04089605, "- N/A -   "
1.86, 60.8609, 0.003268237, NaN, NaN, NaN, 0.0396753, "- N/A -   "
1.87, 61.2147, 0.00328767, NaN, NaN, NaN, 0.0384545, "- N/A -   "
1.88, 61.6865, 0.00330711, NaN, NaN, NaN, 0.0372337, "- N/A -   "
1.89, 62.0404, 0.00332933, NaN, NaN, NaN, 0.0347922, "- N/A -   "
1.9, 62.3942, 0.00334876, NaN, NaN, NaN, 0.0335714, "- N/A -   "
1.91, 62.866, 0.00336542, NaN, NaN, NaN, 0.0335714, "- N/A -   "
1.92, 63.1019, 0.00338486, NaN, NaN, NaN, 0.0323506, "- N/A -   "
1.93, 63.45574, 0.00340152, NaN, NaN, NaN, 0.0323506, "- N/A -   "
1.94, 63.6916, 0.00341818, NaN, NaN, NaN, 0.0323506, "- N/A -   "
1.95, 64.04548, 0.003437619, NaN, NaN, NaN, 0.03112983, "- N/A -   "
1.96, 64.3993, 0.00345706, NaN, NaN, NaN, 0.03112983, "- N/A -   "
1.97, 64.75317, 0.00347372, NaN, NaN, NaN, 0.0299091, "- N/A -   "
1.98, 64.98906, 0.00349038, NaN, NaN, NaN, 0.0299091, "- N/A -   "
1.99, 65.3429, 0.00350704, NaN, NaN, NaN, 0.0299091, "- N/A -   "
2, 65.69674, 0.003523698, NaN, NaN, NaN, 0.0299091, "- N/A -   "
2.01, 65.93263, 0.00354036, NaN, NaN, NaN, 0.0299091, "- N/A -   "
2.02, 66.2865, 0.00355702, NaN, NaN, NaN, 0.0299091, "- N/A -   "
2.03, 66.52237, 0.003570903, NaN, NaN, NaN, 0.03112983, "- N/A -   "
2.04, 66.75827, 0.00358756, NaN, NaN, NaN, 0.03112983, "- N/A -   "
2.05, 67.1121, 0.00360145, NaN, NaN, NaN, 0.0323506, "- N/A -   "
2.06, 67.34801, 0.00361811, NaN, NaN, NaN, 0.0323506, "- N/A -   "
2.07, 67.5839, 0.00363477, NaN, NaN, NaN, 0.0335714, "- N/A -   "
2.08, 67.9377, 0.00364865, NaN, NaN, NaN, 0.0335714, "- N/A -   "
2.09, 68.17364, 0.00366254, NaN, NaN, NaN, 0.0347922, "- N/A -   "
2.1, 68.40953, 0.0036792, NaN, NaN, NaN, 0.0347922, "- N/A -   "
2.11, 68.7634, 0.00369586, NaN, NaN, NaN, 0.0347922, "- N/A -   "
2.12, 68.9993, 0.00370974, NaN, NaN, NaN, 0.03601294, "- N/A -   "
2.13, 69.23517, 0.0037264, NaN, NaN, NaN, 0.03601294, "- N/A -   "
2.14, 69.589, 0.00374306, NaN, NaN, NaN, 0.03601294, "- N/A -   "
2.15, 70.0608, 0.0037625, NaN, NaN, NaN, 0.0347922, "- N/A -   "
2.16, 70.29669, 0.00377916, NaN, NaN, NaN, 0.0347922, "- N/A -   "
2.17, 70.6505, 0.0037986, NaN, NaN, NaN, 0.0335714, "- N/A -   "
2.18, 70.88643, 0.00381803, NaN, NaN, NaN, 0.0323506, "- N/A -   "
2.19, 71.24027, 0.00383469, NaN, NaN, NaN, 0.0323506, "- N/A -   "
2.2, 71.71206, 0.00385135, NaN, NaN, NaN, 0.0323506, "- N/A -   "
2.21, 71.83001, 0.00386802, NaN, NaN, NaN, 0.0323506, "- N/A -   "
2.22, 72.1838, 0.00388468, NaN, NaN, NaN, 0.0323506, "- N/A -   "
2.23, 72.5377, 0.00390134, NaN, NaN, NaN, 0.0323506, "- N/A -   "
2.24, 72.77359, 0.00391522, NaN, NaN, NaN, 0.0335714, "- N/A -   "
2.25, 73.12743, 0.00393188, NaN, NaN, NaN, 0.0335714, "- N/A -   "
2.26, 73.2454, 0.00394854, NaN, NaN, NaN, 0.0347922, "- N/A -   "
2.27, 73.59922, 0.00396242, NaN, NaN, NaN, 0.0347922, "- N/A -   "
2.28, 73.9531, 0.00397909, NaN, NaN, NaN, 0.0347922, "- N/A -   "
2.29, 74.3069, 0.003992969, NaN, NaN, NaN, 0.03601294, "- N/A -   "
2.3, 74.42485, 0.00400963, NaN, NaN, NaN, 0.03601294, "- N/A -   "
2.31, 74.66075, 0.00402351, NaN, NaN, NaN, 0.0372337, "- N/A -   "
2.32, 75.0146, 0.0040374, NaN, NaN, NaN, 0.0384545, "- N/A -   "
2.33, 75.36844, 0.00405406, NaN, NaN, NaN, 0.0384545, "- N/A -   "
2.34, 75.48638, 0.00406794, NaN, NaN, NaN, 0.0396753, "- N/A -   "
2.35, 75.8402, 0.004084602, NaN, NaN, NaN, 0.0396753, "- N/A -   "
2.36, 76.07612, 0.00409849, NaN, NaN, NaN, 0.04089605, "- N/A -   "
2.37, 76.43, 0.00411515, NaN, NaN, NaN, 0.04089605, "- N/A -   "
2.38, 76.5479, 0.00412903, NaN, NaN, NaN, 0.04211683, "- N/A -   "
2.39, 76.90175, 0.00414569, NaN, NaN, NaN, 0.04211683, "- N/A -   "
2.4, 77.13765, 0.00415957, NaN, NaN, NaN, 0.0433376, "- N/A -   "
2.41, 77.49149, 0.00417346, NaN, NaN, NaN, 0.0445584, "- N/A -   "
2.42, 77.84533, 0.00419012, NaN, NaN, NaN, 0.0445584, "- N/A -   "
2.43, 78.19917, 0.00420956, NaN, NaN, NaN, 0.0433376, "- N/A -   "
2.44, 78.55301, 0.004228993, NaN, NaN, NaN, 0.04211683, "- N/A -   "
2.45, 78.78891, 0.00424843, NaN, NaN, NaN, 0.04211683, "- N/A -   "
2.46, 79.14275, 0.004265091, NaN, NaN, NaN, 0.04089605, "- N/A -   "
2.47, 79.61454, 0.00428175, NaN, NaN, NaN, 0.04089605, "- N/A -   "
2.48, 79.85043, 0.004295635, NaN, NaN, NaN, 0.04211683, "- N/A -   "
2.49, 80.20428, 0.004312296, NaN, NaN, NaN, 0.04211683, "- N/A -   "
2.5, 80.44018, 0.00433173, NaN, NaN, NaN, 0.04089605, "- N/A -   "
2.51, 80.794, 0.00434839, NaN, NaN, NaN, 0.04089605, "- N/A -   "
2.52, 81.14786, 0.00436783, NaN, NaN, NaN, 0.0396753, "- N/A -   "
2.53, 81.5017, 0.004384491, NaN, NaN, NaN, 0.0396753, "- N/A -   "
2.54, 81.7376, 0.00440393, NaN, NaN, NaN, 0.0396753, "- N/A -   "
2.55, 82.20939, 0.004423366, NaN, NaN, NaN, 0.0384545, "- N/A -   "
2.56, 82.56323, 0.004440026, NaN, NaN, NaN, 0.0372337, "- N/A -   "
2.57, 82.79912, 0.00445946, NaN, NaN, NaN, 0.03601294, "- N/A -   "
2.58, 83.27091, 0.004476124, NaN, NaN, NaN, 0.03601294, "- N/A -   "
2.59, 83.50681, 0.004492785, NaN, NaN, NaN, 0.03601294, "- N/A -   "
2.6, 83.86065, 0.004509445, NaN, NaN, NaN, 0.03601294, "- N/A -   "
2.61, 84.09654, 0.00452611, NaN, NaN, NaN, 0.03601294, "- N/A -   "
2.62, 84.45039, 0.004539989, NaN, NaN, NaN, 0.0372337, "- N/A -   "
2.63, 84.80424, 0.00455943, NaN, NaN, NaN, 0.03601294, "- N/A -   "
2.64, 85.04012, 0.004576087, NaN, NaN, NaN, 0.03601294, "- N/A -   "
2.65, 85.39397, 0.004592748, NaN, NaN, NaN, 0.03601294, "- N/A -   "
2.66, 85.62987, 0.004612185, NaN, NaN, NaN, 0.0347922, "- N/A -   "
2.67, 86.1017, 0.004628845, NaN, NaN, NaN, 0.0347922, "- N/A -   "
2.68, 86.33755, 0.00464828, NaN, NaN, NaN, 0.0335714, "- N/A -   "
2.69, 86.69139, 0.004664943, NaN, NaN, NaN, 0.0335714, "- N/A -   "
2.7, 86.92729, 0.004681604, NaN, NaN, NaN, 0.0335714, "- N/A -   "
2.71, 87.16318, 0.004698264, NaN, NaN, NaN, 0.0335714, "- N/A -   "
2.72, 87.51702, 0.004714925, NaN, NaN, NaN, 0.0347922, "- N/A -   "
2.73, 87.8709, 0.00473159, NaN, NaN, NaN, 0.0347922, "- N/A -   "
2.74, 88.10676, 0.00474825, NaN, NaN, NaN, 0.0347922, "- N/A -   "
2.75, 88.4606, 0.004764906, NaN, NaN, NaN, 0.0335714, "- N/A -   "
2.76, 88.8144, 0.004781567, NaN, NaN, NaN, 0.0335714, "- N/A -   "
2.77, 89.16828, 0.004801004, NaN, NaN, NaN, 0.0323506, "- N/A -   "
2.78, 89.40418, 0.00481766, NaN, NaN, NaN, 0.0323506, "- N/A -   "
2.79, 89.758, 0.00483155, NaN, NaN, NaN, 0.0335714, "- N/A -   "
2.8, 90.11186, 0.00484821, NaN, NaN, NaN, 0.0335714, "- N/A -   "
2.81, 90.34776, 0.004864869, NaN, NaN, NaN, 0.0335714, "- N/A -   "
2.82, 90.58366, 0.00488153, NaN, NaN, NaN, 0.0335714, "- N/A -   "
2.83, 90.9375, 0.00489819, NaN, NaN, NaN, 0.0335714, "- N/A -   "
2.84, 91.2913, 0.004914851, NaN, NaN, NaN, 0.0335714, "- N/A -   "
2.85, 91.52724, 0.00493151, NaN, NaN, NaN, 0.0335714, "- N/A -   "
2.86, 91.99903, 0.004948172, NaN, NaN, NaN, 0.0335714, "- N/A -   "
2.87, 92.35287, 0.004964832, NaN, NaN, NaN, 0.0335714, "- N/A -   "
2.88, 92.47082, 0.004981493, NaN, NaN, NaN, 0.0335714, "- N/A -   "
2.89, 92.82466, 0.004998153, NaN, NaN, NaN, 0.0335714, "- N/A -   "
2.9, 93.1785, 0.005014814, NaN, NaN, NaN, 0.0335714, "- N/A -   "
2.91, 93.41439, 0.00503147, NaN, NaN, NaN, 0.0335714, "- N/A -   "
2.92, 93.76824, 0.00504814, NaN, NaN, NaN, 0.0335714, "- N/A -   "
2.93, 94.1221, 0.0050648, NaN, NaN, NaN, 0.0335714, "- N/A -   "
2.94, 94.35797, 0.005081456, NaN, NaN, NaN, 0.0335714, "- N/A -   "
2.95, 94.59387, 0.00509534, NaN, NaN, NaN, 0.0347922, "- N/A -   "
2.96, 94.8298, 0.005112, NaN, NaN, NaN, 0.0347922, "- N/A -   "
2.97, 95.18361, 0.005128661, NaN, NaN, NaN, 0.0347922, "- N/A -   "
2.98, 95.5374, 0.005145321, NaN, NaN, NaN, 0.0347922, "- N/A -   "
2.99, 95.8913, 0.005161982, NaN, NaN, NaN, 0.0347922, "- N/A -   "
3, 96.12719, 0.00517864, NaN, NaN, NaN, 0.0347922, "- N/A -   "
3.01, 96.481, 0.005198079, NaN, NaN, NaN, 0.0347922, "- N/A -   "
3.02, 96.83487, 0.00521474, NaN, NaN, NaN, 0.0347922, "- N/A -   "
3.03, 97.18872, 0.005228624, NaN, NaN, NaN, 0.0347922, "- N/A -   "
3.04, 97.4246, 0.005245284, NaN, NaN, NaN, 0.0347922, "- N/A -   "
3.05, 97.6605, 0.00525917, NaN, NaN, NaN, 0.03601294, "- N/A -   "
3.06, 97.8964, 0.005273052, NaN, NaN, NaN, 0.0372337, "- N/A -   "
3.07, 98.2502, 0.00528694, NaN, NaN, NaN, 0.0384545, "- N/A -   "
3.08, 98.4861, 0.005303596, NaN, NaN, NaN, 0.0384545, "- N/A -   "
3.09, 98.83998, 0.00531748, NaN, NaN, NaN, 0.0396753, "- N/A -   "
3.1, 98.9579, 0.00533414, NaN, NaN, NaN, 0.0396753, "- N/A -   "
3.11, 99.1938, 0.005350801, NaN, NaN, NaN, 0.0396753, "- N/A -   "
3.12, 99.66561, 0.00536746, NaN, NaN, NaN, 0.0396753, "- N/A -   "
3.13, 99.9015, 0.005384122, NaN, NaN, NaN, 0.0396753, "- N/A -   "
3.14, 100.255, 0.00540078, NaN, NaN, NaN, 0.0396753, "- N/A -   "
3.15, 100.491, 0.00541744, NaN, NaN, NaN, 0.0396753, "- N/A -   "
3.16, 100.845, 0.00543133, NaN, NaN, NaN, 0.04089605, "- N/A -   "
3.17, 101.199, 0.00544799, NaN, NaN, NaN, 0.04089605, "- N/A -   "
3.18, 101.317, 0.00546465, NaN, NaN, NaN, 0.04089605, "- N/A -   "
3.19, 101.789, 0.00548131, NaN, NaN, NaN, 0.04089605, "- N/A -   "
3.2, 102.143, 0.00549797, NaN, NaN, NaN, 0.04089605, "- N/A -   "
3.21, 102.3784, 0.005514629, NaN, NaN, NaN, 0.04211683, "- N/A -   "
3.22, 102.6143, 0.00552851, NaN, NaN, NaN, 0.04211683, "- N/A -   "
3.23, 103.086, 0.00554517, NaN, NaN, NaN, 0.04211683, "- N/A -   "
3.24, 103.204, 0.005561834, NaN, NaN, NaN, 0.04211683, "- N/A -   "
3.25, 103.558, 0.00557849, NaN, NaN, NaN, 0.04211683, "- N/A -   "
3.26, 103.912, 0.00559516, NaN, NaN, NaN, 0.04211683, "- N/A -   "
3.27, 104.148, 0.00561182, NaN, NaN, NaN, 0.04211683, "- N/A -   "
3.28, 104.619, 0.00563125, NaN, NaN, NaN, 0.04089605, "- N/A -   "
3.29, 104.973, 0.00565069, NaN, NaN, NaN, 0.0396753, "- N/A -   "
3.3, 105.327, 0.00566735, NaN, NaN, NaN, 0.0396753, "- N/A -   "
3.31, 105.563, 0.005686788, NaN, NaN, NaN, 0.0384545, "- N/A -   "
3.32, 106.035, 0.00570623, NaN, NaN, NaN, 0.0372337, "- N/A -   "
3.33, 106.389, 0.00572566, NaN, NaN, NaN, 0.0372337, "- N/A -   "
3.34, 106.742, 0.00574232, NaN, NaN, NaN, 0.03601294, "- N/A -   "
3.35, 107.0963, 0.00576176, NaN, NaN, NaN, 0.0347922, "- N/A -   "
3.36, 107.3322, 0.00577842, NaN, NaN, NaN, 0.0347922, "- N/A -   "
3.37, 107.804, 0.005797858, NaN, NaN, NaN, 0.0335714, "- N/A -   "
3.38, 108.158, 0.0058173, NaN, NaN, NaN, 0.0323506, "- N/A -   "
3.39, 108.394, 0.00583673, NaN, NaN, NaN, 0.0323506, "- N/A -   "
3.4, 108.748, 0.00585339, NaN, NaN, NaN, 0.03112983, "- N/A -   "
3.41, 109.101, 0.00587283, NaN, NaN, NaN, 0.03112983, "- N/A -   "
3.42, 109.3373, 0.005886714, NaN, NaN, NaN, 0.03112983, "- N/A -   "
3.43, 109.691, 0.00590337, NaN, NaN, NaN, 0.03112983, "- N/A -   "
3.44, 110.045, 0.005920035, NaN, NaN, NaN, 0.03112983, "- N/A -   "
3.45, 110.163, 0.0059367, NaN, NaN, NaN, 0.03112983, "- N/A -   "
3.46, 110.517, 0.00595336, NaN, NaN, NaN, 0.03112983, "- N/A -   "
3.47, 110.871, 0.00596724, NaN, NaN, NaN, 0.0323506, "- N/A -   "
3.48, 110.989, 0.0059839, NaN, NaN, NaN, 0.0323506, "- N/A -   "
3.49, 111.46, 0.005997784, NaN, NaN, NaN, 0.0335714, "- N/A -   "
3.5, 111.696, 0.00601722, NaN, NaN, NaN, 0.0335714, "- N/A -   "
3.51, 111.932, 0.006033882, NaN, NaN, NaN, 0.0323506, "- N/A -   "
3.52, 112.286, 0.00605054, NaN, NaN, NaN, 0.0323506, "- N/A -   "
3.53, 112.522, 0.00606998, NaN, NaN, NaN, 0.0323506, "- N/A -   "
3.54, 113.112, 0.00608664, NaN, NaN, NaN, 0.0323506, "- N/A -   "
3.55, 113.348, 0.00610608, NaN, NaN, NaN, 0.03112983, "- N/A -   "
3.56, 113.701, 0.00612274, NaN, NaN, NaN, 0.03112983, "- N/A -   "
3.57, 113.937, 0.0061394, NaN, NaN, NaN, 0.03112983, "- N/A -   "
3.58, 114.2911, 0.00615328, NaN, NaN, NaN, 0.0323506, "- N/A -   "
3.59, 114.527, 0.00616994, NaN, NaN, NaN, 0.0323506, "- N/A -   "
3.6, 114.763, 0.006186603, NaN, NaN, NaN, 0.0323506, "- N/A -   "
3.61, 115.117, 0.006200487, NaN, NaN, NaN, 0.0335714, "- N/A -   "
3.62, 115.471, 0.006219924, NaN, NaN, NaN, 0.0323506, "- N/A -   "
3.63, 115.706, 0.006233808, NaN, NaN, NaN, 0.0335714, "- N/A -   "
3.64, 115.942, 0.00625047, NaN, NaN, NaN, 0.0335714, "- N/A -   "
3.65, 116.296, 0.006267129, NaN, NaN, NaN, 0.0335714, "- N/A -   "
3.66, 116.5321, 0.00628379, NaN, NaN, NaN, 0.0335714, "- N/A -   "
3.67, 116.886, 0.006297673, NaN, NaN, NaN, 0.0347922, "- N/A -   "
3.68, 117.122, 0.00631711, NaN, NaN, NaN, 0.0347922, "- N/A -   "
3.69, 117.476, 0.006330994, NaN, NaN, NaN, 0.0347922, "- N/A -   "
3.7, 117.712, 0.006347655, NaN, NaN, NaN, 0.03601294, "- N/A -   "
3.71, 118.065, 0.006361539, NaN, NaN, NaN, 0.03601294, "- N/A -   "
3.72, 118.301, 0.00637542, NaN, NaN, NaN, 0.0372337, "- N/A -   "
3.73, 118.419, 0.006389306, NaN, NaN, NaN, 0.0384545, "- N/A -   "
3.74, 118.655, 0.00640319, NaN, NaN, NaN, 0.0396753, "- N/A -   "
3.75, 118.891, 0.006414297, NaN, NaN, NaN, 0.04211683, "- N/A -   "
3.76, 119.127, 0.00642818, NaN, NaN, NaN, 0.0433376, "- N/A -   "
3.77, 119.363, 0.00644206, NaN, NaN, NaN, 0.0445584, "- N/A -   "
3.78, 119.717, 0.006455948, NaN, NaN, NaN, 0.04577916, "- N/A -   "
3.79, 119.953, 0.006472609, NaN, NaN, NaN, 0.04577916, "- N/A -   "
3.8, 120.188, 0.006486492, NaN, NaN, NaN, 0.04699994, "- N/A -   "
3.81, 120.424, 0.006500376, NaN, NaN, NaN, 0.0482207, "- N/A -   "
3.82, 120.66, 0.006517037, NaN, NaN, NaN, 0.0482207, "- N/A -   "
3.83, 121.132, 0.0065337, NaN, NaN, NaN, 0.0482207, "- N/A -   "
3.84, 121.368, 0.006550358, NaN, NaN, NaN, 0.0482207, "- N/A -   "
3.85, 121.604, 0.006567018, NaN, NaN, NaN, 0.0482207, "- N/A -   "
3.86, 121.958, 0.0065809, NaN, NaN, NaN, 0.0494415, "- N/A -   "
3.87, 122.312, 0.006600339, NaN, NaN, NaN, 0.0482207, "- N/A -   "
3.88, 122.665, 0.006619777, NaN, NaN, NaN, 0.04699994, "- N/A -   "
3.89, 123.019, 0.006639214, NaN, NaN, NaN, 0.04577916, "- N/A -   "
3.9, 123.373, 0.006658651, NaN, NaN, NaN, 0.0445584, "- N/A -   "
3.909, 123.7269, 0.006678088, NaN, NaN, NaN, 0.0433376, "- N/A -   "
3.92, 123.963, 0.006694749, NaN, NaN, NaN, 0.0433376, "- N/A -   "
3.929, 124.435, 0.006714186, NaN, NaN, NaN, 0.04211683, "- N/A -   "
3.94, 124.788, 0.00673362, NaN, NaN, NaN, 0.04089605, "- N/A -   "
3.949, 125.26, 0.006753061, NaN, NaN, NaN, 0.0396753, "- N/A -   "
3.96, 125.614, 0.006772498, NaN, NaN, NaN, 0.0384545, "- N/A -   "
3.969, 125.732, 0.006789158, NaN, NaN, NaN, 0.0384545, "- N/A -   "
3.98, 126.204, 0.006808596, NaN, NaN, NaN, 0.0372337, "- N/A -   "
3.989, 126.558, 0.006828033, NaN, NaN, NaN, 0.03601294, "- N/A -   "
4, 126.911, 0.00684747, NaN, NaN, NaN, 0.0347922, "- N/A -   "
4.01, 127.265, 0.00686691, NaN, NaN, NaN, 0.0335714, "- N/A -   "
4.02, 127.501, 0.006883568, NaN, NaN, NaN, 0.0335714, "- N/A -   "
4.03, 127.855, 0.00690023, NaN, NaN, NaN, 0.0335714, "- N/A -   "
4.04, 128.209, 0.006919666, NaN, NaN, NaN, 0.0323506, "- N/A -   "
4.05, 128.327, 0.006936326, NaN, NaN, NaN, 0.0323506, "- N/A -   "
4.06, 128.6807, 0.00695021, NaN, NaN, NaN, 0.0335714, "- N/A -   "
4.07, 129.035, 0.00696965, NaN, NaN, NaN, 0.0323506, "- N/A -   "
4.08, 129.388, 0.006986308, NaN, NaN, NaN, 0.0323506, "- N/A -   "
4.09, 129.624, 0.007005745, NaN, NaN, NaN, 0.03112983, "- N/A -   "
4.1, 130.096, 0.00702241, NaN, NaN, NaN, 0.03112983, "- N/A -   "
4.11, 130.214, 0.00703907, NaN, NaN, NaN, 0.03112983, "- N/A -   "
4.12, 130.6858, 0.00705573, NaN, NaN, NaN, 0.03112983, "- N/A -   "
4.13, 130.922, 0.00707239, NaN, NaN, NaN, 0.03112983, "- N/A -   "
4.14, 131.276, 0.00709182, NaN, NaN, NaN, 0.0299091, "- N/A -   "
4.15, 131.511, 0.00710849, NaN, NaN, NaN, 0.0299091, "- N/A -   "
4.16, 131.983, 0.00712515, NaN, NaN, NaN, 0.0299091, "- N/A -   "
4.17, 132.101, 0.00714458, NaN, NaN, NaN, 0.0299091, "- N/A -   "
4.18, 132.455, 0.00715847, NaN, NaN, NaN, 0.0299091, "- N/A -   "
4.19, 132.809, 0.007175127, NaN, NaN, NaN, 0.0299091, "- N/A -   "
4.2, 133.045, 0.00719179, NaN, NaN, NaN, 0.0299091, "- N/A -   "
4.21, 133.281, 0.00720845, NaN, NaN, NaN, 0.0299091, "- N/A -   "
4.22, 133.634, 0.00722511, NaN, NaN, NaN, 0.0299091, "- N/A -   "
4.23, 133.87, 0.007241769, NaN, NaN, NaN, 0.0299091, "- N/A -   "
4.24, 134.224, 0.00725843, NaN, NaN, NaN, 0.0299091, "- N/A -   "
4.25, 134.46, 0.00727509, NaN, NaN, NaN, 0.0299091, "- N/A -   "
4.26, 134.814, 0.00729175, NaN, NaN, NaN, 0.0299091, "- N/A -   "
4.27, 135.1678, 0.00730841, NaN, NaN, NaN, 0.0299091, "- N/A -   "
4.28, 135.522, 0.00732507, NaN, NaN, NaN, 0.0299091, "- N/A -   "
4.29, 135.758, 0.00734173, NaN, NaN, NaN, 0.0299091, "- N/A -   "
4.3, 135.993, 0.00735562, NaN, NaN, NaN, 0.03112983, "- N/A -   "
4.31, 136.229, 0.0073695, NaN, NaN, NaN, 0.0323506, "- N/A -   "
4.32, 136.465, 0.00738338, NaN, NaN, NaN, 0.0335714, "- N/A -   "
4.33, 136.701, 0.00739727, NaN, NaN, NaN, 0.0347922, "- N/A -   "
4.34, 137.055, 0.00741115, NaN, NaN, NaN, 0.03601294, "- N/A -   "
4.35, 137.291, 0.00742503, NaN, NaN, NaN, 0.0372337, "- N/A -   "
4.36, 137.527, 0.0074417, NaN, NaN, NaN, 0.0384545, "- N/A -   "
4.37, 137.6447, 0.0074528, NaN, NaN, NaN, 0.0396753, "- N/A -   "
4.38, 137.8806, 0.007466686, NaN, NaN, NaN, 0.04089605, "- N/A -   "
4.39, 138.234, 0.00748335, NaN, NaN, NaN, 0.04089605, "- N/A -   "
4.4, 138.47, 0.00749723, NaN, NaN, NaN, 0.04211683, "- N/A -   "
4.41, 138.706, 0.00751389, NaN, NaN, NaN, 0.04211683, "- N/A -   "
4.42, 139.06, 0.00752777, NaN, NaN, NaN, 0.0433376, "- N/A -   "
4.43, 139.414, 0.00754443, NaN, NaN, NaN, 0.0433376, "- N/A -   "
4.44, 139.532, 0.0075611, NaN, NaN, NaN, 0.0433376, "- N/A -   "
4.45, 139.8857, 0.007577756, NaN, NaN, NaN, 0.0445584, "- N/A -   "
4.46, 140.1216, 0.00759164, NaN, NaN, NaN, 0.0445584, "- N/A -   "
4.47, 140.475, 0.0076083, NaN, NaN, NaN, 0.0445584, "- N/A -   "
4.48, 140.829, 0.007624961, NaN, NaN, NaN, 0.0445584, "- N/A -   "
4.49, 141.065, 0.00764162, NaN, NaN, NaN, 0.0445584, "- N/A -   "
4.5, 141.419, 0.007658282, NaN, NaN, NaN, 0.0445584, "- N/A -   "
4.51, 141.773, 0.00767494, NaN, NaN, NaN, 0.0445584, "- N/A -   "
4.52, 142.009, 0.00769438, NaN, NaN, NaN, 0.0433376, "- N/A -   "
4.53, 142.3626, 0.00771104, NaN, NaN, NaN, 0.0433376, "- N/A -   "
4.54, 142.5985, 0.0077277, NaN, NaN, NaN, 0.0433376, "- N/A -   "
4.55, 142.952, 0.00774158, NaN, NaN, NaN, 0.0445584, "- N/A -   "
4.56, 143.306, 0.00776102, NaN, NaN, NaN, 0.0433376, "- N/A -   "
4.57, 143.542, 0.007774906, NaN, NaN, NaN, 0.0445584, "- N/A -   "
4.58, 143.778, 0.007794343, NaN, NaN, NaN, 0.0433376, "- N/A -   "
4.59, 144.25, 0.00781378, NaN, NaN, NaN, 0.04211683, "- N/A -   "
4.6, 144.604, 0.007830441, NaN, NaN, NaN, 0.04211683, "- N/A -   "
4.61, 144.957, 0.0078471, NaN, NaN, NaN, 0.04211683, "- N/A -   "
4.62, 145.311, 0.007866538, NaN, NaN, NaN, 0.04089605, "- N/A -   "
4.63, 145.547, 0.007883199, NaN, NaN, NaN, 0.04089605, "- N/A -   "
4.64, 145.901, 0.007902636, NaN, NaN, NaN, 0.0396753, "- N/A -   "
4.65, 146.255, 0.007922073, NaN, NaN, NaN, 0.0396753, "- N/A -   "
4.66, 146.6087, 0.007938734, NaN, NaN, NaN, 0.0384545, "- N/A -   "
4.67, 146.963, 0.007958171, NaN, NaN, NaN, 0.0372337, "- N/A -   "
4.68, 147.316, 0.007974831, NaN, NaN, NaN, 0.0372337, "- N/A -   "
4.69, 147.67, 0.007997046, NaN, NaN, NaN, 0.0347922, "- N/A -   "
4.7, 148.024, 0.008013706, NaN, NaN, NaN, 0.0347922, "- N/A -   "
4.71, 148.378, 0.00803592, NaN, NaN, NaN, 0.0323506, "- N/A -   "
4.72, 148.8497, 0.008055357, NaN, NaN, NaN, 0.03112983, "- N/A -   "
4.73, 149.204, 0.008074795, NaN, NaN, NaN, 0.0299091, "- N/A -   "
4.74, 149.557, 0.008094232, NaN, NaN, NaN, 0.0286883, "- N/A -   "
4.75, 149.911, 0.008110892, NaN, NaN, NaN, 0.0286883, "- N/A -   "
4.76, 150.147, 0.008127553, NaN, NaN, NaN, 0.0286883, "- N/A -   "
4.77, 150.383, 0.008144213, NaN, NaN, NaN, 0.0286883, "- N/A -   "
4.78, 150.737, 0.008160874, NaN, NaN, NaN, 0.0286883, "- N/A -   "
4.79, 150.973, 0.008177535, NaN, NaN, NaN, 0.0286883, "- N/A -   "
4.8, 151.327, 0.008191418, NaN, NaN, NaN, 0.0299091, "- N/A -   "
4.81, 151.5625, 0.008205302, NaN, NaN, NaN, 0.03112983, "- N/A -   "
4.82, 151.916, 0.00822196, NaN, NaN, NaN, 0.03112983, "- N/A -   "
4.83, 152.152, 0.008238623, NaN, NaN, NaN, 0.03112983, "- N/A -   "
4.84, 152.506, 0.008255283, NaN, NaN, NaN, 0.03112983, "- N/A -   "
4.85, 152.742, 0.00826917, NaN, NaN, NaN, 0.0323506, "- N/A -   "
4.86, 152.978, 0.008285828, NaN, NaN, NaN, 0.0323506, "- N/A -   "
4.87, 153.332, 0.008302488, NaN, NaN, NaN, 0.0323506, "- N/A -   "
4.88, 153.686, 0.008319149, NaN, NaN, NaN, 0.0323506, "- N/A -   "
4.89, 154.0394, 0.008335809, NaN, NaN, NaN, 0.0323506, "- N/A -   "
4.9, 154.157, 0.00835247, NaN, NaN, NaN, 0.0323506, "- N/A -   "
4.91, 154.511, 0.008366354, NaN, NaN, NaN, 0.0335714, "- N/A -   "
4.92, 154.747, 0.008380237, NaN, NaN, NaN, 0.0347922, "- N/A -   "
4.93, 155.101, 0.008396898, NaN, NaN, NaN, 0.0347922, "- N/A -   "
4.94, 155.455, 0.008413558, NaN, NaN, NaN, 0.0347922, "- N/A -   "
4.95, 155.691, 0.008430219, NaN, NaN, NaN, 0.0347922, "- N/A -   "
4.96, 156.0445, 0.00844688, NaN, NaN, NaN, 0.0347922, "- N/A -   "
4.97, 156.162, 0.008460763, NaN, NaN, NaN, 0.03601294, "- N/A -   "
4.98, 156.5163, 0.008477423, NaN, NaN, NaN, 0.03601294, "- N/A -   "
4.99, 156.87, 0.00849131, NaN, NaN, NaN, 0.0372337, "- N/A -   "
5, 157.106, 0.008507968, NaN, NaN, NaN, 0.0372337, "- N/A -   "
5.01, 157.46, 0.008524628, NaN, NaN, NaN, 0.0372337, "- N/A -   "
5.02, 157.814, 0.008544065, NaN, NaN, NaN, 0.03601294, "- N/A -   "
5.03, 158.168, 0.008560726, NaN, NaN, NaN, 0.03601294, "- N/A -   "
5.04, 158.403, 0.008580163, NaN, NaN, NaN, 0.03601294, "- N/A -   "
5.05, 158.639, 0.008594047, NaN, NaN, NaN, 0.03601294, "- N/A -   "
5.06, 158.9932, 0.008610708, NaN, NaN, NaN, 0.03601294, "- N/A -   "
5.07, 159.229, 0.008627368, NaN, NaN, NaN, 0.03601294, "- N/A -   "
5.08, 159.583, 0.008641252, NaN, NaN, NaN, 0.0372337, "- N/A -   "
5.09, 159.819, 0.00865514, NaN, NaN, NaN, 0.0384545, "- N/A -   "
5.1, 159.937, 0.00866902, NaN, NaN, NaN, 0.0396753, "- N/A -   "
5.11, 160.2906, 0.008682903, NaN, NaN, NaN, 0.04089605, "- N/A -   "
5.12, 160.644, 0.008699563, NaN, NaN, NaN, 0.04089605, "- N/A -   "
5.13, 160.998, 0.008716225, NaN, NaN, NaN, 0.04089605, "- N/A -   "
5.14, 161.234, 0.008730108, NaN, NaN, NaN, 0.04211683, "- N/A -   "
5.15, 161.4701, 0.008743991, NaN, NaN, NaN, 0.0433376, "- N/A -   "
5.16, 161.706, 0.00876065, NaN, NaN, NaN, 0.0433376, "- N/A -   "
5.17, 162.06, 0.008777313, NaN, NaN, NaN, 0.0433376, "- N/A -   "
5.18, 162.414, 0.008791196, NaN, NaN, NaN, 0.0445584, "- N/A -   "
5.19, 162.65, 0.00880786, NaN, NaN, NaN, 0.0445584, "- N/A -   "
5.2, 163.0034, 0.008824518, NaN, NaN, NaN, 0.0445584, "- N/A -   "
5.21, 163.2393, 0.008841178, NaN, NaN, NaN, 0.04577916, "- N/A -   "
5.22, 163.593, 0.008857839, NaN, NaN, NaN, 0.0445584, "- N/A -   "
5.23, 163.947, 0.008871722, NaN, NaN, NaN, 0.04577916, "- N/A -   "
5.24, 164.301, 0.008888382, NaN, NaN, NaN, 0.04577916, "- N/A -   "
5.25, 164.537, 0.008905044, NaN, NaN, NaN, 0.04577916, "- N/A -   "
5.26, 164.891, 0.00892448, NaN, NaN, NaN, 0.0445584, "- N/A -   "
5.27, 165.2444, 0.008941141, NaN, NaN, NaN, 0.0445584, "- N/A -   "
5.28, 165.598, 0.008960579, NaN, NaN, NaN, 0.0433376, "- N/A -   "
5.29, 166.07, 0.00898279, NaN, NaN, NaN, 0.04089605, "- N/A -   "
5.3, 166.424, 0.009002229, NaN, NaN, NaN, 0.0396753, "- N/A -   "
5.31, 166.778, 0.009021667, NaN, NaN, NaN, 0.0384545, "- N/A -   "
5.32, 167.132, 0.009043881, NaN, NaN, NaN, 0.03601294, "- N/A -   "
5.33, 167.603, 0.009063318, NaN, NaN, NaN, 0.0347922, "- N/A -   "
5.34, 167.9572, 0.009082756, NaN, NaN, NaN, 0.0335714, "- N/A -   "
5.35, 168.429, 0.009102193, NaN, NaN, NaN, 0.0323506, "- N/A -   "
5.36, 168.783, 0.009121629, NaN, NaN, NaN, 0.03112983, "- N/A -   "
5.37, 169.019, 0.009138291, NaN, NaN, NaN, 0.03112983, "- N/A -   "
5.38, 169.373, 0.009154951, NaN, NaN, NaN, 0.03112983, "- N/A -   "
5.39, 169.726, 0.009174389, NaN, NaN, NaN, 0.0299091, "- N/A -   "
5.4, 169.962, 0.009191048, NaN, NaN, NaN, 0.0299091, "- N/A -   "
5.41, 170.316, 0.00920771, NaN, NaN, NaN, 0.0299091, "- N/A -   "
5.42, 170.552, 0.00922437, NaN, NaN, NaN, 0.0299091, "- N/A -   "
5.43, 170.906, 0.009238253, NaN, NaN, NaN, 0.03112983, "- N/A -   "
5.44, 171.024, 0.009254914, NaN, NaN, NaN, 0.03112983, "- N/A -   "
5.45, 171.496, 0.009271575, NaN, NaN, NaN, 0.03112983, "- N/A -   "
5.46, 171.732, 0.009288235, NaN, NaN, NaN, 0.03112983, "- N/A -   "
5.47, 172.085, 0.009304896, NaN, NaN, NaN, 0.03112983, "- N/A -   "
5.48, 172.4392, 0.009321556, NaN, NaN, NaN, 0.03112983, "- N/A -   "
5.49, 172.793, 0.00933544, NaN, NaN, NaN, 0.0323506, "- N/A -   "
5.5, 173.029, 0.009352101, NaN, NaN, NaN, 0.0323506, "- N/A -   "
5.51, 173.265, 0.00936876, NaN, NaN, NaN, 0.0335714, "- N/A -   "
5.52, 173.619, 0.009382645, NaN, NaN, NaN, 0.0335714, "- N/A -   "
5.53, 173.855, 0.009396529, NaN, NaN, NaN, 0.0347922, "- N/A -   "
5.54, 174.09, 0.009410412, NaN, NaN, NaN, 0.03601294, "- N/A -   "
5.55, 174.4443, 0.009424296, NaN, NaN, NaN, 0.0372337, "- N/A -   "
5.56, 174.6802, 0.009440957, NaN, NaN, NaN, 0.0372337, "- N/A -   "
5.57, 175.034, 0.009457617, NaN, NaN, NaN, 0.0372337, "- N/A -   "
5.58, 175.388, 0.00947428, NaN, NaN, NaN, 0.0372337, "- N/A -   "
5.59, 175.742, 0.009493715, NaN, NaN, NaN, 0.03601294, "- N/A -   "
5.6, 176.096, 0.009513152, NaN, NaN, NaN, 0.0347922, "- N/A -   "
5.61, 176.449, 0.009532589, NaN, NaN, NaN, 0.0347922, "- N/A -   "
5.62, 176.803, 0.009549249, NaN, NaN, NaN, 0.0335714, "- N/A -   "
5.63, 177.1571, 0.009568687, NaN, NaN, NaN, 0.0323506, "- N/A -   "
5.64, 177.511, 0.009588125, NaN, NaN, NaN, 0.03112983, "- N/A -   "
5.65, 177.865, 0.009604785, NaN, NaN, NaN, 0.03112983, "- N/A -   "
5.66, 178.219, 0.009621444, NaN, NaN, NaN, 0.03112983, "- N/A -   "
5.67, 178.455, 0.009638105, NaN, NaN, NaN, 0.03112983, "- N/A -   "
5.68, 178.808, 0.009654766, NaN, NaN, NaN, 0.03112983, "- N/A -   "
5.69, 179.162, 0.009671426, NaN, NaN, NaN, 0.0323506, "- N/A -   "
5.7, 179.3981, 0.009685311, NaN, NaN, NaN, 0.0323506, "- N/A -   "
5.71, 179.752, 0.009699194, NaN, NaN, NaN, 0.0335714, "- N/A -   "
5.72, 180.224, 0.009715854, NaN, NaN, NaN, 0.0335714, "- N/A -   "
5.73, 180.46, 0.009729738, NaN, NaN, NaN, 0.0347922, "- N/A -   "
5.74, 180.696, 0.009746399, NaN, NaN, NaN, 0.0347922, "- N/A -   "
5.75, 180.931, 0.009760283, NaN, NaN, NaN, 0.03601294, "- N/A -   "
5.76, 181.167, 0.009774166, NaN, NaN, NaN, 0.0372337, "- N/A -   "
5.77, 181.285, 0.009785273, NaN, NaN, NaN, 0.0396753, "- N/A -   "
5.78, 181.639, 0.009799156, NaN, NaN, NaN, 0.04089605, "- N/A -   "
5.79, 181.757, 0.00981304, NaN, NaN, NaN, 0.04211683, "- N/A -   "
5.8, 181.993, 0.009826925, NaN, NaN, NaN, 0.0433376, "- N/A -   "
5.81, 182.465, 0.009843585, NaN, NaN, NaN, 0.0433376, "- N/A -   "
5.82, 182.819, 0.009860245, NaN, NaN, NaN, 0.0433376, "- N/A -   "
5.83, 183.172, 0.009876906, NaN, NaN, NaN, 0.0433376, "- N/A -   "
5.84, 183.526, 0.009893566, NaN, NaN, NaN, 0.0433376, "- N/A -   "
5.85, 183.762, 0.009913004, NaN, NaN, NaN, 0.04211683, "- N/A -   "
5.86, 184.234, 0.009932441, NaN, NaN, NaN, 0.04089605, "- N/A -   "
5.87, 184.47, 0.009949101, NaN, NaN, NaN, 0.04089605, "- N/A -   "
5.88, 184.824, 0.009968539, NaN, NaN, NaN, 0.0396753, "- N/A -   "
5.89, 185.295, 0.009985199, NaN, NaN, NaN, 0.04089605, "- N/A -   "
5.9, 185.531, 0.009999082, NaN, NaN, NaN, 0.04089605, "- N/A -   "
5.91, 185.885, 0.0100157, NaN, NaN, NaN, 0.04089605, "- N/A -   "
5.92, 186.239, 0.0100352, NaN, NaN, NaN, 0.0396753, "- N/A -   "
5.93, 186.593, 0.0100518, NaN, NaN, NaN, 0.0396753, "- N/A -   "
5.94, 186.829, 0.0100713, NaN, NaN, NaN, 0.0384545, "- N/A -   "
5.95, 187.301, 0.0100879, NaN, NaN, NaN, 0.0384545, "- N/A -   "
[...]
23.3, 871.1813, 0.0390134, NaN, NaN, NaN, 0.0347922, "- N/A -   "
23.34, 872.9555, 0.03908556, NaN, NaN, NaN, 0.0323506, "- N/A -   "
23.38, 874.6114, 0.0391494, NaN, NaN, NaN, 0.0347922, "- N/A -   "
23.42, 876.267, 0.0392105, NaN, NaN, NaN, 0.03601294, "- N/A -   "
23.46, 878.16, 0.03928549, NaN, NaN, NaN, 0.0323506, "- N/A -   "
23.5, 879.697, 0.03935213, NaN, NaN, NaN, 0.0323506, "- N/A -   "
23.54, 881.3534, 0.0394104, NaN, NaN, NaN, 0.03601294, "- N/A -   "
23.58, 882.7728, 0.0394715, NaN, NaN, NaN, 0.0384545, "- N/A -   "
23.62, 884.4287, 0.0395326, NaN, NaN, NaN, 0.04089605, "- N/A -   "
23.66, 885.8481, 0.0395909, NaN, NaN, NaN, 0.0445584, "- N/A -   "
23.7, 887.7406, 0.03965757, NaN, NaN, NaN, 0.0445584, "- N/A -   "
23.74, 889.5148, 0.0397298, NaN, NaN, NaN, 0.04211683, "- N/A -   "
23.78, 891.644, 0.0398075, NaN, NaN, NaN, 0.0372337, "- N/A -   "
23.82, 893.655, 0.0398853, NaN, NaN, NaN, 0.0323506, "- N/A -   "
23.86, 895.429, 0.0399547, NaN, NaN, NaN, 0.03112983, "- N/A -   "
23.9, 897.0848, 0.0400213, NaN, NaN, NaN, 0.03112983, "- N/A -   "
23.94, 898.859, 0.040088, NaN, NaN, NaN, 0.03112983, "- N/A -   "
23.98, 900.5149, 0.04015461, NaN, NaN, NaN, 0.03112983, "- N/A -   "
24.02, 902.2891, 0.0402268, NaN, NaN, NaN, 0.0286883, "- N/A -   "
24.06, 904.182, 0.040299, NaN, NaN, NaN, 0.0262467, "- N/A -   "
24.1, 905.719, 0.04036009, NaN, NaN, NaN, 0.0286883, "- N/A -   "
24.14, 907.3752, 0.0404212, NaN, NaN, NaN, 0.03112983, "- N/A -   "
24.18, 908.9129, 0.0404767, NaN, NaN, NaN, 0.03601294, "- N/A -   "
24.22, 910.2139, 0.04053502, NaN, NaN, NaN, 0.0396753, "- N/A -   "
24.26, 911.633, 0.04059056, NaN, NaN, NaN, 0.0445584, "- N/A -   "
24.3, 913.171, 0.04064887, NaN, NaN, NaN, 0.0482207, "- N/A -   "
24.34, 914.9452, 0.04071829, NaN, NaN, NaN, 0.0482207, "- N/A -   "
24.38, 916.8377, 0.0407905, NaN, NaN, NaN, 0.0445584, "- N/A -   "
24.42, 918.73, 0.0408682, NaN, NaN, NaN, 0.04089605, "- N/A -   "
24.46, 920.7409, 0.0409404, NaN, NaN, NaN, 0.0372337, "- N/A -   "
24.5, 922.515, 0.04100985, NaN, NaN, NaN, 0.03601294, "- N/A -   "
24.54, 924.1711, 0.0410793, NaN, NaN, NaN, 0.0347922, "- N/A -   "
24.58, 926.064, 0.0411515, NaN, NaN, NaN, 0.0323506, "- N/A -   "
24.62, 927.8378, 0.0412209, NaN, NaN, NaN, 0.03112983, "- N/A -   "
24.66, 929.612, 0.0412875, NaN, NaN, NaN, 0.03112983, "- N/A -   "
24.7, 931.3862, 0.0413542, NaN, NaN, NaN, 0.03112983, "- N/A -   "
24.74, 932.9239, 0.04142081, NaN, NaN, NaN, 0.03112983, "- N/A -   "
24.78, 934.5798, 0.0414819, NaN, NaN, NaN, 0.0335714, "- N/A -   "
24.82, 936.117, 0.04154299, NaN, NaN, NaN, 0.03601294, "- N/A -   "
24.86, 937.537, 0.0416013, NaN, NaN, NaN, 0.0396753, "- N/A -   "
24.9, 939.074, 0.04165961, NaN, NaN, NaN, 0.0433376, "- N/A -   "
24.94, 940.7304, 0.04172625, NaN, NaN, NaN, 0.0433376, "- N/A -   "
24.98, 942.505, 0.0417957, NaN, NaN, NaN, 0.04211683, "- N/A -   "
25.02, 944.042, 0.0418623, NaN, NaN, NaN, 0.04211683, "- N/A -   "
25.06, 945.935, 0.041929, NaN, NaN, NaN, 0.04211683, "- N/A -   "
25.1, 947.709, 0.04199837, NaN, NaN, NaN, 0.04089605, "- N/A -   "
25.14, 949.601, 0.0420733, NaN, NaN, NaN, 0.0372337, "- N/A -   "
25.18, 951.8488, 0.0421566, NaN, NaN, NaN, 0.0299091, "- N/A -   "
25.22, 953.86, 0.0422288, NaN, NaN, NaN, 0.0274675, "- N/A -   "
25.26, 955.3972, 0.0422955, NaN, NaN, NaN, 0.0274675, "- N/A -   "
25.3, 957.171, 0.0423621, NaN, NaN, NaN, 0.0274675, "- N/A -   "
25.34, 958.8274, 0.04242877, NaN, NaN, NaN, 0.0274675, "- N/A -   "
25.38, 960.602, 0.04249263, NaN, NaN, NaN, 0.0286883, "- N/A -   "
25.42, 962.021, 0.0425537, NaN, NaN, NaN, 0.03112983, "- N/A -   "
25.46, 963.677, 0.04261481, NaN, NaN, NaN, 0.0335714, "- N/A -   "
25.5, 965.3328, 0.0426815, NaN, NaN, NaN, 0.0347922, "- N/A -   "
25.54, 966.8705, 0.0427425, NaN, NaN, NaN, 0.03601294, "- N/A -   "
25.58, 968.1715, 0.0427953, NaN, NaN, NaN, 0.04211683, "- N/A -   "
25.62, 969.7092, 0.0428536, NaN, NaN, NaN, 0.04577916, "- N/A -   "
25.66, 971.2469, 0.0429175, NaN, NaN, NaN, 0.04699994, "- N/A -   "
25.7, 972.9028, 0.0429813, NaN, NaN, NaN, 0.0482207, "- N/A -   "
25.74, 974.7953, 0.04305354, NaN, NaN, NaN, 0.04577916, "- N/A -   "
25.78, 977.1609, 0.0431368, NaN, NaN, NaN, 0.0384545, "- N/A -   "
25.82, 979.0534, 0.0432118, NaN, NaN, NaN, 0.0347922, "- N/A -   "
25.86, 981.064, 0.04328956, NaN, NaN, NaN, 0.03112983, "- N/A -   "
25.9, 982.6018, 0.04335065, NaN, NaN, NaN, 0.0323506, "- N/A -   "
25.94, 984.2578, 0.0434145, NaN, NaN, NaN, 0.0335714, "- N/A -   "
25.98, 985.7954, 0.0434756, NaN, NaN, NaN, 0.03601294, "- N/A -   "
26.02, 987.57, 0.04353947, NaN, NaN, NaN, 0.0372337, "- N/A -   "
26.06, 989.462, 0.0436144, NaN, NaN, NaN, 0.0335714, "- N/A -   "
26.1, 991.2363, 0.0436866, NaN, NaN, NaN, 0.03112983, "- N/A -   "
26.14, 992.8923, 0.0437477, NaN, NaN, NaN, 0.0335714, "- N/A -   "
26.18, 994.548, 0.0438116, NaN, NaN, NaN, 0.03601294, "- N/A -   "
26.22, 996.0858, 0.04387268, NaN, NaN, NaN, 0.0384545, "- N/A -   "
26.26, 997.624, 0.0439338, NaN, NaN, NaN, 0.04089605, "- N/A -   "
26.3, 999.2794, 0.04400041, NaN, NaN, NaN, 0.04089605, "- N/A -   "
26.34, 1001.29, 0.0440726, NaN, NaN, NaN, 0.0384545, "- N/A -   "
26.38, 1002.95, 0.04413925, NaN, NaN, NaN, 0.0384545, "- N/A -   "
26.42, 1004.6, 0.0442059, NaN, NaN, NaN, 0.0384545, "- N/A -   "
26.46, 1006.38, 0.04427253, NaN, NaN, NaN, 0.0384545, "- N/A -   "
26.5, 1008.03, 0.0443392, NaN, NaN, NaN, 0.0384545, "- N/A -   "
26.54, 1009.69, 0.04440859, NaN, NaN, NaN, 0.0372337, "- N/A -   "
26.58, 1011.7, 0.044478, NaN, NaN, NaN, 0.03601294, "- N/A -   "
26.62, 1013.36, 0.04454743, NaN, NaN, NaN, 0.0347922, "- N/A -   "
26.66, 1015.15, 0.0446113, NaN, NaN, NaN, 0.03601294, "- N/A -   "
26.7, 1016.82, 0.0446779, NaN, NaN, NaN, 0.03601294, "- N/A -   "
26.74, 1018.72, 0.0447474, NaN, NaN, NaN, 0.0347922, "- N/A -   "
26.78, 1020.39, 0.044814, NaN, NaN, NaN, 0.0347922, "- N/A -   "
26.82, 1022.3, 0.04488342, NaN, NaN, NaN, 0.0335714, "- N/A -   "
26.86, 1023.85, 0.04495006, NaN, NaN, NaN, 0.0335714, "- N/A -   "
26.9, 1025.64, 0.0450167, NaN, NaN, NaN, 0.0335714, "- N/A -   "
26.94, 1027.191, 0.045075, NaN, NaN, NaN, 0.0372337, "- N/A -   "
26.98, 1028.622, 0.0451361, NaN, NaN, NaN, 0.0396753, "- N/A -   "
27.02, 1030.29, 0.04519719, NaN, NaN, NaN, 0.04211683, "- N/A -   "
27.06, 1031.84, 0.0452611, NaN, NaN, NaN, 0.0433376, "- N/A -   "
27.1, 1033.51, 0.04532492, NaN, NaN, NaN, 0.0445584, "- N/A -   "
27.14, 1035.3, 0.0453916, NaN, NaN, NaN, 0.0445584, "- N/A -   "
27.18, 1037.21, 0.04546376, NaN, NaN, NaN, 0.04211683, "- N/A -   "
27.22, 1039.24, 0.04553873, NaN, NaN, NaN, 0.0384545, "- N/A -   "
27.26, 1041.26, 0.0456137, NaN, NaN, NaN, 0.0347922, "- N/A -   "
27.3, 1042.93, 0.0456803, NaN, NaN, NaN, 0.0347922, "- N/A -   "
27.34, 1044.48, 0.04574421, NaN, NaN, NaN, 0.03601294, "- N/A -   "
27.38, 1046.27, 0.0458109, NaN, NaN, NaN, 0.03601294, "- N/A -   "
27.42, 1048.3, 0.0458858, NaN, NaN, NaN, 0.0323506, "- N/A -   "
27.46, 1050.09, 0.04595524, NaN, NaN, NaN, 0.03112983, "- N/A -   "
27.5, 1052, 0.0460274, NaN, NaN, NaN, 0.0299091, "- N/A -   "
27.54, 1053.43, 0.0460858, NaN, NaN, NaN, 0.0323506, "- N/A -   "
27.58, 1054.86, 0.0461441, NaN, NaN, NaN, 0.03601294, "- N/A -   "
27.62, 1056.41, 0.0462024, NaN, NaN, NaN, 0.0396753, "- N/A -   "
27.66, 1057.84, 0.0462635, NaN, NaN, NaN, 0.04211683, "- N/A -   "
27.7, 1059.51, 0.0463246, NaN, NaN, NaN, 0.0445584, "- N/A -   "
27.74, 1061.3, 0.0463912, NaN, NaN, NaN, 0.0445584, "- N/A -   "
27.78, 1063.09, 0.04646339, NaN, NaN, NaN, 0.04211683, "- N/A -   "
27.82, 1065.11, 0.04653281, NaN, NaN, NaN, 0.04089605, "- N/A -   "
27.86, 1066.9, 0.046605, NaN, NaN, NaN, 0.0384545, "- N/A -   "
27.9, 1068.93, 0.04668, NaN, NaN, NaN, 0.0347922, "- N/A -   "
27.94, 1070.718, 0.0467494, NaN, NaN, NaN, 0.0335714, "- N/A -   "
27.98, 1072.51, 0.0468188, NaN, NaN, NaN, 0.0323506, "- N/A -   "
28.02, 1074.18, 0.0468855, NaN, NaN, NaN, 0.0323506, "- N/A -   "
28.06, 1075.97, 0.0469549, NaN, NaN, NaN, 0.03112983, "- N/A -   "
28.1, 1077.873, 0.04702429, NaN, NaN, NaN, 0.0299091, "- N/A -   "
28.14, 1079.66, 0.04709371, NaN, NaN, NaN, 0.0286883, "- N/A -   "
28.18, 1081.33, 0.04715758, NaN, NaN, NaN, 0.0299091, "- N/A -   "
28.22, 1082.76, 0.04721589, NaN, NaN, NaN, 0.0335714, "- N/A -   "
28.26, 1084.19, 0.0472714, NaN, NaN, NaN, 0.0384545, "- N/A -   "
28.3, 1085.62, 0.0473297, NaN, NaN, NaN, 0.04211683, "- N/A -   "
28.34, 1087.17, 0.0473908, NaN, NaN, NaN, 0.0445584, "- N/A -   "
28.38, 1088.84, 0.0474575, NaN, NaN, NaN, 0.0445584, "- N/A -   "
28.42, 1090.51, 0.04752133, NaN, NaN, NaN, 0.04577916, "- N/A -   "
28.46, 1092.42, 0.0475907, NaN, NaN, NaN, 0.0445584, "- N/A -   "
28.5, 1094.33, 0.0476602, NaN, NaN, NaN, 0.0433376, "- N/A -   "
28.54, 1096.36, 0.0477324, NaN, NaN, NaN, 0.04089605, "- N/A -   "
28.58, 1098.38, 0.04781289, NaN, NaN, NaN, 0.0347922, "- N/A -   "
28.62, 1100.41, 0.0478879, NaN, NaN, NaN, 0.03112983, "- N/A -   "
28.66, 1102.08, 0.0479573, NaN, NaN, NaN, 0.0299091, "- N/A -   "
28.7, 1103.75, 0.0480239, NaN, NaN, NaN, 0.0299091, "- N/A -   "
28.74, 1105.54, 0.0480878, NaN, NaN, NaN, 0.03112983, "- N/A -   "
28.78, 1107.09, 0.0481489, NaN, NaN, NaN, 0.0335714, "- N/A -   "
28.82, 1108.64, 0.04820997, NaN, NaN, NaN, 0.03601294, "- N/A -   "
28.86, 1110.31, 0.0482711, NaN, NaN, NaN, 0.0384545, "- N/A -   "
28.9, 1112.1, 0.0483405, NaN, NaN, NaN, 0.0372337, "- N/A -   "
28.94, 1113.89, 0.0484071, NaN, NaN, NaN, 0.0372337, "- N/A -   "
28.98, 1115.56, 0.04847098, NaN, NaN, NaN, 0.0384545, "- N/A -   "
29.02, 1116.99, 0.0485293, NaN, NaN, NaN, 0.04211683, "- N/A -   "
29.06, 1118.66, 0.04859316, NaN, NaN, NaN, 0.0433376, "- N/A -   "
29.1, 1120.33, 0.048657, NaN, NaN, NaN, 0.0445584, "- N/A -   "
29.14, 1122.354, 0.048732, NaN, NaN, NaN, 0.04089605, "- N/A -   "
29.18, 1124.5, 0.0488125, NaN, NaN, NaN, 0.0347922, "- N/A -   "
29.22, 1126.41, 0.04888472, NaN, NaN, NaN, 0.0323506, "- N/A -   "
29.26, 1128.2, 0.0489569, NaN, NaN, NaN, 0.0299091, "- N/A -   "
29.3, 1129.99, 0.0490263, NaN, NaN, NaN, 0.0286883, "- N/A -   "
29.34, 1131.775, 0.0490902, NaN, NaN, NaN, 0.0299091, "- N/A -   "
29.38, 1133.33, 0.04914851, NaN, NaN, NaN, 0.0335714, "- N/A -   "
29.42, 1134.76, 0.0492096, NaN, NaN, NaN, 0.03601294, "- N/A -   "
29.46, 1136.43, 0.0492735, NaN, NaN, NaN, 0.0372337, "- N/A -   "
29.5, 1138.57, 0.0493484, NaN, NaN, NaN, 0.0335714, "- N/A -   "
29.54, 1140.242, 0.0494151, NaN, NaN, NaN, 0.0335714, "- N/A -   "
29.58, 1141.91, 0.04947894, NaN, NaN, NaN, 0.0347922, "- N/A -   "
29.62, 1143.46, 0.04954281, NaN, NaN, NaN, 0.0372337, "- N/A -   "
29.66, 1144.89, 0.04959834, NaN, NaN, NaN, 0.04089605, "- N/A -   "
29.7, 1146.56, 0.04966221, NaN, NaN, NaN, 0.04211683, "- N/A -   "
29.74, 1148.47, 0.0497316, NaN, NaN, NaN, 0.04089605, "- N/A -   "
29.78, 1150.259, 0.049801, NaN, NaN, NaN, 0.0396753, "- N/A -   "
29.82, 1152.17, 0.0498677, NaN, NaN, NaN, 0.0396753, "- N/A -   "
29.86, 1154.08, 0.0499371, NaN, NaN, NaN, 0.0384545, "- N/A -   "
29.9, 1155.74, 0.0500093, NaN, NaN, NaN, 0.03601294, "- N/A -   "
29.94, 1157.53, 0.0500759, NaN, NaN, NaN, 0.03601294, "- N/A -   "
29.98, 1159.08, 0.05013981, NaN, NaN, NaN, 0.0372337, "- N/A -   "
30.02, 1160.99, 0.050212, NaN, NaN, NaN, 0.0347922, "- N/A -   "
30.06, 1162.9, 0.0502842, NaN, NaN, NaN, 0.0323506, "- N/A -   "
30.1, 1164.57, 0.0503481, NaN, NaN, NaN, 0.0335714, "- N/A -   "
30.14, 1166.12, 0.0504119, NaN, NaN, NaN, 0.0347922, "- N/A -   "
30.18, 1168.03, 0.0504786, NaN, NaN, NaN, 0.0347922, "- N/A -   "
30.22, 1169.7, 0.0505452, NaN, NaN, NaN, 0.0347922, "- N/A -   "
30.26, 1171.37, 0.0506091, NaN, NaN, NaN, 0.03601294, "- N/A -   "
30.3, 1173.16, 0.0506813, NaN, NaN, NaN, 0.0335714, "- N/A -   "
30.34, 1174.825, 0.0507424, NaN, NaN, NaN, 0.03601294, "- N/A -   "
30.38, 1176.38, 0.0508062, NaN, NaN, NaN, 0.0372337, "- N/A -   "
30.42, 1178.04, 0.0508701, NaN, NaN, NaN, 0.0384545, "- N/A -   "
30.46, 1179.83, 0.050934, NaN, NaN, NaN, 0.0396753, "- N/A -   "
30.5, 1181.38, 0.050995, NaN, NaN, NaN, 0.04211683, "- N/A -   "
30.54, 1183.411, 0.0510672, NaN, NaN, NaN, 0.0396753, "- N/A -   "
30.58, 1185.08, 0.0511367, NaN, NaN, NaN, 0.0384545, "- N/A -   "
30.62, 1186.87, 0.05120886, NaN, NaN, NaN, 0.03601294, "- N/A -   "
30.66, 1189.016, 0.0512838, NaN, NaN, NaN, 0.0323506, "- N/A -   "
30.7, 1190.8, 0.05135325, NaN, NaN, NaN, 0.0323506, "- N/A -   "
30.74, 1192.59, 0.05142267, NaN, NaN, NaN, 0.03112983, "- N/A -   "
30.78, 1194.263, 0.0514893, NaN, NaN, NaN, 0.03112983, "- N/A -   "
30.82, 1196.05, 0.05155873, NaN, NaN, NaN, 0.0299091, "- N/A -   "
30.86, 1197.96, 0.0516281, NaN, NaN, NaN, 0.0286883, "- N/A -   "
30.9, 1199.63, 0.051692, NaN, NaN, NaN, 0.0299091, "- N/A -   "
30.94, 1201.18, 0.0517531, NaN, NaN, NaN, 0.0323506, "- N/A -   "
30.98, 1202.61, 0.0518114, NaN, NaN, NaN, 0.03601294, "- N/A -   "
31.02, 1203.92, 0.05186695, NaN, NaN, NaN, 0.04089605, "- N/A -   "
31.06, 1205.35, 0.0519225, NaN, NaN, NaN, 0.04577916, "- N/A -   "
31.1, 1206.9, 0.0519836, NaN, NaN, NaN, 0.0482207, "- N/A -   "
31.14, 1208.33, 0.0520447, NaN, NaN, NaN, 0.05188305, "- N/A -   "
31.18, 1210.24, 0.0521113, NaN, NaN, NaN, 0.05066227, "- N/A -   "
31.22, 1212.15, 0.0521863, NaN, NaN, NaN, 0.04699994, "- N/A -   "
31.26, 1214.54, 0.0522724, NaN, NaN, NaN, 0.0384545, "- N/A -   "
31.3, 1216.44, 0.0523501, NaN, NaN, NaN, 0.0335714, "- N/A -   "
31.34, 1218.23, 0.0524167, NaN, NaN, NaN, 0.0335714, "- N/A -   "
31.38, 1220.14, 0.05248894, NaN, NaN, NaN, 0.03112983, "- N/A -   "
31.42, 1221.81, 0.0525556, NaN, NaN, NaN, 0.03112983, "- N/A -   "
31.46, 1223.599, 0.0526222, NaN, NaN, NaN, 0.03112983, "- N/A -   "
31.5, 1225.15, 0.05268609, NaN, NaN, NaN, 0.0323506, "- N/A -   "
31.54, 1226.82, 0.0527527, NaN, NaN, NaN, 0.0323506, "- N/A -   "
31.58, 1228.73, 0.05282215, NaN, NaN, NaN, 0.03112983, "- N/A -   "
31.62, 1230.04, 0.0528777, NaN, NaN, NaN, 0.03601294, "- N/A -   "
31.66, 1231.47, 0.052936, NaN, NaN, NaN, 0.0396753, "- N/A -   "
31.7, 1233.139, 0.0529971, NaN, NaN, NaN, 0.04211683, "- N/A -   "
31.74, 1234.57, 0.0530582, NaN, NaN, NaN, 0.0445584, "- N/A -   "
31.78, 1236.48, 0.0531276, NaN, NaN, NaN, 0.0433376, "- N/A -   "
31.82, 1238.15, 0.05319701, NaN, NaN, NaN, 0.04211683, "- N/A -   "
31.86, 1239.94, 0.0532609, NaN, NaN, NaN, 0.0433376, "- N/A -   "
31.9, 1241.84, 0.05333863, NaN, NaN, NaN, 0.0384545, "- N/A -   "
31.94, 1243.87, 0.0534108, NaN, NaN, NaN, 0.03601294, "- N/A -   "
31.979, 1245.78, 0.0534858, NaN, NaN, NaN, 0.0323506, "- N/A -   "
32.02, 1247.81, 0.05356077, NaN, NaN, NaN, 0.0286883, "- N/A -   "
32.06, 1249.6, 0.0536302, NaN, NaN, NaN, 0.0274675, "- N/A -   "
32.1, 1251.38, 0.0536996, NaN, NaN, NaN, 0.0262467, "- N/A -   "
32.139, 1252.82, 0.0537579, NaN, NaN, NaN, 0.0299091, "- N/A -   "
32.18, 1254.366, 0.053819, NaN, NaN, NaN, 0.0323506, "- N/A -   "
32.22, 1255.92, 0.0538801, NaN, NaN, NaN, 0.0347922, "- N/A -   "
32.26, 1257.59, 0.0539412, NaN, NaN, NaN, 0.0372337, "- N/A -   "
32.299, 1259.37, 0.0540106, NaN, NaN, NaN, 0.03601294, "- N/A -   "
32.34, 1261.16, 0.05408002, NaN, NaN, NaN, 0.0347922, "- N/A -   "
32.38, 1262.71, 0.0541411, NaN, NaN, NaN, 0.0372337, "- N/A -   "
32.42, 1263.91, 0.05419387, NaN, NaN, NaN, 0.0433376, "- N/A -   "
32.459, 1265.695, 0.0542577, NaN, NaN, NaN, 0.0445584, "- N/A -   "
32.5, 1267.25, 0.0543216, NaN, NaN, NaN, 0.04699994, "- N/A -   "
32.54, 1268.91, 0.05438546, NaN, NaN, NaN, 0.04699994, "- N/A -   "
32.58, 1270.942, 0.0544604, NaN, NaN, NaN, 0.0433376, "- N/A -   "
32.62, 1273.09, 0.0545382, NaN, NaN, NaN, 0.0384545, "- N/A -   "
32.659, 1275.12, 0.0546159, NaN, NaN, NaN, 0.0335714, "- N/A -   "
32.7, 1276.9, 0.05468535, NaN, NaN, NaN, 0.0323506, "- N/A -   "
32.74, 1278.45, 0.05474922, NaN, NaN, NaN, 0.0335714, "- N/A -   "
32.78, 1280.01, 0.0548131, NaN, NaN, NaN, 0.0347922, "- N/A -   "
32.82, 1281.67, 0.0548797, NaN, NaN, NaN, 0.0347922, "- N/A -   "
32.86, 1283.34, 0.05494359, NaN, NaN, NaN, 0.03601294, "- N/A -   "
32.9, 1285.25, 0.0550158, NaN, NaN, NaN, 0.0335714, "- N/A -   "
32.94, 1287.041, 0.05508243, NaN, NaN, NaN, 0.0335714, "- N/A -   "
32.98, 1288.71, 0.0551491, NaN, NaN, NaN, 0.0335714, "- N/A -   "
33.02, 1290.26, 0.0552074, NaN, NaN, NaN, 0.0372337, "- N/A -   "
33.06, 1291.69, 0.0552685, NaN, NaN, NaN, 0.0396753, "- N/A -   "
33.1, 1293.36, 0.0553296, NaN, NaN, NaN, 0.04211683, "- N/A -   "
33.14, 1295.15, 0.0553962, NaN, NaN, NaN, 0.04211683, "- N/A -   "
33.18, 1296.939, 0.0554684, NaN, NaN, NaN, 0.0396753, "- N/A -   "
33.22, 1298.61, 0.05553226, NaN, NaN, NaN, 0.04089605, "- N/A -   "
33.26, 1300.64, 0.0556072, NaN, NaN, NaN, 0.0372337, "- N/A -   "
33.3, 1302.42, 0.05567665, NaN, NaN, NaN, 0.03601294, "- N/A -   "
33.34, 1304.21, 0.0557488, NaN, NaN, NaN, 0.0347922, "- N/A -   "
33.38, 1306, 0.0558127, NaN, NaN, NaN, 0.0347922, "- N/A -   "
33.42, 1307.43, 0.0558738, NaN, NaN, NaN, 0.0372337, "- N/A -   "
33.46, 1309.34, 0.055946, NaN, NaN, NaN, 0.03601294, "- N/A -   "
33.5, 1311.13, 0.0560182, NaN, NaN, NaN, 0.0323506, "- N/A -   "
33.54, 1313.038, 0.0560848, NaN, NaN, NaN, 0.0323506, "- N/A -   "
33.58, 1314.59, 0.05615148, NaN, NaN, NaN, 0.0323506, "- N/A -   "
33.62, 1316.38, 0.0562153, NaN, NaN, NaN, 0.0335714, "- N/A -   "
33.66, 1318.17, 0.05628476, NaN, NaN, NaN, 0.0335714, "- N/A -   "
33.7, 1319.84, 0.0563514, NaN, NaN, NaN, 0.0323506, "- N/A -   "
33.74, 1321.39, 0.0564153, NaN, NaN, NaN, 0.0335714, "- N/A -   "
33.78, 1322.82, 0.0564708, NaN, NaN, NaN, 0.0384545, "- N/A -   "
33.82, 1324.367, 0.05653189, NaN, NaN, NaN, 0.04089605, "- N/A -   "
33.86, 1325.92, 0.056593, NaN, NaN, NaN, 0.0433376, "- N/A -   "
33.9, 1327.59, 0.0566541, NaN, NaN, NaN, 0.04577916, "- N/A -   "
33.94, 1329.137, 0.05672071, NaN, NaN, NaN, 0.04699994, "- N/A -   "
33.98, 1330.93, 0.0567901, NaN, NaN, NaN, 0.0445584, "- N/A -   "
34.02, 1333.19, 0.05686788, NaN, NaN, NaN, 0.0396753, "- N/A -   "
34.06, 1335.22, 0.05694285, NaN, NaN, NaN, 0.03601294, "- N/A -   "
34.1, 1337.01, 0.057015, NaN, NaN, NaN, 0.0335714, "- N/A -   "
34.14, 1338.8, 0.0570845, NaN, NaN, NaN, 0.0323506, "- N/A -   "
34.18, 1340.59, 0.0571511, NaN, NaN, NaN, 0.0323506, "- N/A -   "
34.22, 1342.25, 0.05722053, NaN, NaN, NaN, 0.03112983, "- N/A -   "
34.26, 1344.04, 0.0572899, NaN, NaN, NaN, 0.0299091, "- N/A -   "
34.3, 1345.95, 0.0573621, NaN, NaN, NaN, 0.0274675, "- N/A -   "
34.34, 1347.38, 0.05742045, NaN, NaN, NaN, 0.03112983, "- N/A -   "
34.38, 1348.93, 0.0574815, NaN, NaN, NaN, 0.0335714, "- N/A -   "
34.42, 1350.36, 0.05753708, NaN, NaN, NaN, 0.0384545, "- N/A -   "
34.46, 1351.68, 0.05759261, NaN, NaN, NaN, 0.0433376, "- N/A -   "
34.5, 1353.226, 0.0576537, NaN, NaN, NaN, 0.04577916, "- N/A -   "
34.54, 1354.9, 0.0577176, NaN, NaN, NaN, 0.04699994, "- N/A -   "
34.58, 1356.565, 0.0577842, NaN, NaN, NaN, 0.04699994, "- N/A -   "
34.62, 1358.47, 0.0578564, NaN, NaN, NaN, 0.0445584, "- N/A -   "
34.66, 1360.62, 0.0579369, NaN, NaN, NaN, 0.0384545, "- N/A -   "
34.7, 1362.766, 0.05801468, NaN, NaN, NaN, 0.0335714, "- N/A -   "
34.74, 1364.55, 0.0580869, NaN, NaN, NaN, 0.03112983, "- N/A -   "
34.78, 1366.22, 0.0581535, NaN, NaN, NaN, 0.03112983, "- N/A -   "
34.82, 1368.01, 0.0582229, NaN, NaN, NaN, 0.03112983, "- N/A -   "
34.86, 1369.92, 0.05829513, NaN, NaN, NaN, 0.0274675, "- N/A -   "
34.9, 1371.83, 0.0583645, NaN, NaN, NaN, 0.0262467, "- N/A -   "
34.94, 1373.38, 0.05843119, NaN, NaN, NaN, 0.0262467, "- N/A -   "
34.98, 1374.93, 0.05849228, NaN, NaN, NaN, 0.0286883, "- N/A -   "
35.02, 1376.36, 0.0585506, NaN, NaN, NaN, 0.0323506, "- N/A -   "
35.06, 1377.79, 0.05860335, NaN, NaN, NaN, 0.0384545, "- N/A -   "
35.1, 1379.22, 0.0586644, NaN, NaN, NaN, 0.04211683, "- N/A -   "
35.14, 1380.65, 0.05872275, NaN, NaN, NaN, 0.0445584, "- N/A -   "
35.18, 1382.56, 0.0587922, NaN, NaN, NaN, 0.0433376, "- N/A -   "
35.22, 1384.23, 0.0588616, NaN, NaN, NaN, 0.0433376, "- N/A -   "
35.252, 1385.66, 0.0589116, NaN, NaN, NaN, 0.0445584, "- N/A -   "