File: 2_Tensile_Data/Hamel_ForceTest_Bolt8_Test10.csv
Time, Load (lb), Position (in), AxialStrain (in), TransverseStrain (in), Auxiliary (), Control Out (V), Stress (psi)
0.0, 14.5075, 0.0, NaN, NaN, NaN, -0.007935055, "- N/A -   "
0.01, 14.5075, 2.776752E-6, NaN, NaN, NaN, -6.103888E-4, "- N/A -   "
0.02, 14.5075, 2.776752E-6, NaN, NaN, NaN, 0.006714277, "- N/A -   "
0.03, 14.5075, 5.553504E-6, NaN, NaN, NaN, 0.0238052, "- N/A -   "
0.04, 14.5075, 8.330256E-6, NaN, NaN, NaN, 0.04211683, "- N/A -   "
0.05, 14.7434, 1.94373e-05, NaN, NaN, NaN, 0.05676616, "- N/A -   "
0.06, 15.0973, 3.3321e-05, NaN, NaN, NaN, 0.0701947, "- N/A -   "
0.07, 15.4511, 5.27583e-05, NaN, NaN, NaN, 0.08118171, "- N/A -   "
0.08, 16.0409, 7.774905E-5, NaN, NaN, NaN, 0.0897272, "- N/A -   "
0.09, 16.6306, 0.000105517, NaN, NaN, NaN, 0.09705182, "- N/A -   "
0.1, 17.3383, 0.000133284, NaN, NaN, NaN, 0.104376, "- N/A -   "
0.11, 17.928, 0.000166605, NaN, NaN, NaN, 0.09705182, "- N/A -   "
0.12, 18.6357, 0.000199926, NaN, NaN, NaN, 0.09094793, "- N/A -   "
0.13, 19.2254, 0.000227694, NaN, NaN, NaN, 0.08606482, "- N/A -   "
0.14, 19.8152, 0.000255461, NaN, NaN, NaN, 0.08118171, "- N/A -   "
0.15, 20.4049, 2.776752E-4, NaN, NaN, NaN, 0.07751938, "- N/A -   "
0.16, 20.99465, 2.998892E-4, NaN, NaN, NaN, 0.0750778, "- N/A -   "
0.17, 21.3485, 3.221032E-4, NaN, NaN, NaN, 0.07263627, "- N/A -   "
0.18, 21.7023, 0.000344317, NaN, NaN, NaN, 0.07141549, "- N/A -   "
0.19, 22.0562, 3.637545E-4, NaN, NaN, NaN, 0.0689739, "- N/A -   "
0.2, 22.41, 0.000383192, NaN, NaN, NaN, 0.06775316, "- N/A -   "
0.21, 22.88181, 0.000402629, NaN, NaN, NaN, 0.06775316, "- N/A -   "
0.22, 23.2357, 0.000422066, NaN, NaN, NaN, 0.0653116, "- N/A -   "
0.23, 23.7074, 0.000441504, NaN, NaN, NaN, 0.0653116, "- N/A -   "
0.24, 24.1792, 0.000458164, NaN, NaN, NaN, 0.0640908, "- N/A -   "
0.25, 24.4151, 4.776013E-4, NaN, NaN, NaN, 0.06287005, "- N/A -   "
0.26, 24.769, 4.970386E-4, NaN, NaN, NaN, 0.06164927, "- N/A -   "
0.27, 25.2408, 5.164758E-4, NaN, NaN, NaN, 0.0604285, "- N/A -   "
0.28, 25.5946, 5.359131E-4, NaN, NaN, NaN, 0.0604285, "- N/A -   "
0.29, 26.0664, 5.553504E-4, NaN, NaN, NaN, 0.0592077, "- N/A -   "
0.3, 26.4202, 5.747876E-4, NaN, NaN, NaN, 0.05676616, "- N/A -   "
0.31, 26.7741, 0.000597002, NaN, NaN, NaN, 0.0543246, "- N/A -   "
0.32, 27.2459, 0.000619216, NaN, NaN, NaN, 0.0531038, "- N/A -   "
0.33, 27.7177, 6.414297E-4, NaN, NaN, NaN, 0.05066227, "- N/A -   "
0.34, 28.1894, 6.608669E-4, NaN, NaN, NaN, 0.0482207, "- N/A -   "
0.35, 28.6612, 6.803042E-4, NaN, NaN, NaN, 0.04699994, "- N/A -   "
0.36, 28.89713, 6.997415E-4, NaN, NaN, NaN, 0.04577916, "- N/A -   "
0.37, 29.251, 7.191787E-4, NaN, NaN, NaN, 0.0445584, "- N/A -   "
0.38, 29.7228, 7.413927E-4, NaN, NaN, NaN, 0.0433376, "- N/A -   "
0.39, 30.0766, 7.6083E-4, NaN, NaN, NaN, 0.04211683, "- N/A -   "
0.4, 30.4304, 7.774905E-4, NaN, NaN, NaN, 0.04089605, "- N/A -   "
0.41, 30.9022, 7.969278E-4, NaN, NaN, NaN, 0.04089605, "- N/A -   "
0.42, 31.2561, 0.000813588, NaN, NaN, NaN, 0.0396753, "- N/A -   "
0.43, 31.6099, 0.000833026, NaN, NaN, NaN, 0.0384545, "- N/A -   "
0.44, 31.9638, 0.000849686, NaN, NaN, NaN, 0.0384545, "- N/A -   "
0.45, 32.3176, 8.691233E-4, NaN, NaN, NaN, 0.0372337, "- N/A -   "
0.46, 32.5535, 8.857838E-4, NaN, NaN, NaN, 0.0372337, "- N/A -   "
0.47, 33.02529, 0.000902444, NaN, NaN, NaN, 0.0372337, "- N/A -   "
0.48, 33.2612, 0.000919105, NaN, NaN, NaN, 0.0372337, "- N/A -   "
0.49, 33.61503, 0.000935765, NaN, NaN, NaN, 0.0372337, "- N/A -   "
0.5, 34.08682, 0.000957979, NaN, NaN, NaN, 0.03601294, "- N/A -   "
0.51, 34.4407, 9.774166E-4, NaN, NaN, NaN, 0.0347922, "- N/A -   "
0.52, 34.7945, 9.968539E-4, NaN, NaN, NaN, 0.0335714, "- N/A -   "
0.53, 35.3842, 0.00101351, NaN, NaN, NaN, 0.0323506, "- N/A -   "
0.54, 35.6201, 0.00103295, NaN, NaN, NaN, 0.0323506, "- N/A -   "
0.55, 36.0919, 0.00104961, NaN, NaN, NaN, 0.03112983, "- N/A -   "
0.56, 36.44577, 0.00106627, NaN, NaN, NaN, 0.03112983, "- N/A -   "
0.57, 36.6817, 0.00108293, NaN, NaN, NaN, 0.03112983, "- N/A -   "
0.58, 37.0355, 0.00109959, NaN, NaN, NaN, 0.03112983, "- N/A -   "
0.59, 37.3893, 0.00111625, NaN, NaN, NaN, 0.03112983, "- N/A -   "
0.6, 37.74319, 0.00113291, NaN, NaN, NaN, 0.03112983, "- N/A -   "
0.61, 38.097, 0.00114958, NaN, NaN, NaN, 0.03112983, "- N/A -   "
0.62, 38.4509, 0.00116624, NaN, NaN, NaN, 0.03112983, "- N/A -   "
0.63, 38.8047, 0.0011829, NaN, NaN, NaN, 0.03112983, "- N/A -   "
0.64, 39.04061, 0.00119956, NaN, NaN, NaN, 0.03112983, "- N/A -   "
0.65, 39.3945, 0.00121622, NaN, NaN, NaN, 0.03112983, "- N/A -   "
0.66, 39.7483, 0.00123288, NaN, NaN, NaN, 0.0323506, "- N/A -   "
0.67, 40.10214, 0.00124954, NaN, NaN, NaN, 0.0323506, "- N/A -   "
0.68, 40.33803, 0.00126342, NaN, NaN, NaN, 0.0323506, "- N/A -   "
0.69, 40.69188, 0.00127731, NaN, NaN, NaN, 0.0335714, "- N/A -   "
0.7, 40.9278, 0.00129397, NaN, NaN, NaN, 0.0347922, "- N/A -   "
0.71, 41.16367, 0.00130785, NaN, NaN, NaN, 0.0347922, "- N/A -   "
0.72, 41.51751, 0.00132173, NaN, NaN, NaN, 0.03601294, "- N/A -   "
0.73, 41.8714, 0.00133839, NaN, NaN, NaN, 0.03601294, "- N/A -   "
0.74, 42.2252, 0.00135505, NaN, NaN, NaN, 0.03601294, "- N/A -   "
0.75, 42.579, 0.00137172, NaN, NaN, NaN, 0.03601294, "- N/A -   "
0.76, 42.8149, 0.0013856, NaN, NaN, NaN, 0.0372337, "- N/A -   "
0.77, 43.1688, 0.00140226, NaN, NaN, NaN, 0.0372337, "- N/A -   "
0.78, 43.40467, 0.00141614, NaN, NaN, NaN, 0.0396753, "- N/A -   "
0.79, 43.6406, 0.00143003, NaN, NaN, NaN, 0.0396753, "- N/A -   "
0.8, 43.87646, 0.001443911, NaN, NaN, NaN, 0.04211683, "- N/A -   "
0.81, 44.2303, 0.001455018, NaN, NaN, NaN, 0.0433376, "- N/A -   "
0.82, 44.4662, 0.0014689, NaN, NaN, NaN, 0.0445584, "- N/A -   "
0.83, 44.70209, 0.00148556, NaN, NaN, NaN, 0.0445584, "- N/A -   "
0.84, 45.05593, 0.001499446, NaN, NaN, NaN, 0.04577916, "- N/A -   "
0.85, 45.40978, 0.00151611, NaN, NaN, NaN, 0.04699994, "- N/A -   "
0.86, 45.76362, 0.001532767, NaN, NaN, NaN, 0.04577916, "- N/A -   "
0.87, 46.23541, 0.00154943, NaN, NaN, NaN, 0.04699994, "- N/A -   "
0.88, 46.5893, 0.00156609, NaN, NaN, NaN, 0.04577916, "- N/A -   "
0.89, 46.9431, 0.00158553, NaN, NaN, NaN, 0.0445584, "- N/A -   "
0.9, 47.4149, 0.00160219, NaN, NaN, NaN, 0.0445584, "- N/A -   "
0.91, 47.7687, 0.001621623, NaN, NaN, NaN, 0.0445584, "- N/A -   "
0.92, 48.00462, 0.00163551, NaN, NaN, NaN, 0.0445584, "- N/A -   "
0.93, 48.3585, 0.00165217, NaN, NaN, NaN, 0.0445584, "- N/A -   "
0.94, 48.7123, 0.0016716, NaN, NaN, NaN, 0.0433376, "- N/A -   "
0.95, 49.1841, 0.00169104, NaN, NaN, NaN, 0.0433376, "- N/A -   "
0.96, 49.6559, 0.0017077, NaN, NaN, NaN, 0.04211683, "- N/A -   "
0.97, 49.8918, 0.00172436, NaN, NaN, NaN, 0.04211683, "- N/A -   "
0.98, 50.3636, 0.0017438, NaN, NaN, NaN, 0.04211683, "- N/A -   "
0.99, 50.7174, 0.00176046, NaN, NaN, NaN, 0.04089605, "- N/A -   "
1, 51.0713, 0.00177712, NaN, NaN, NaN, 0.04089605, "- N/A -   "
1.01, 51.4251, 0.00179378, NaN, NaN, NaN, 0.04089605, "- N/A -   "
1.02, 51.7789, 0.00181322, NaN, NaN, NaN, 0.04089605, "- N/A -   "
1.03, 52.01483, 0.00182988, NaN, NaN, NaN, 0.0396753, "- N/A -   "
1.04, 52.48662, 0.00184932, NaN, NaN, NaN, 0.0384545, "- N/A -   "
1.05, 52.9584, 0.00186598, NaN, NaN, NaN, 0.0384545, "- N/A -   "
1.06, 53.19431, 0.00188541, NaN, NaN, NaN, 0.0372337, "- N/A -   "
1.07, 53.6661, 0.00190485, NaN, NaN, NaN, 0.03601294, "- N/A -   "
1.08, 54.13789, 0.00192707, NaN, NaN, NaN, 0.0347922, "- N/A -   "
1.09, 54.6097, 0.0019465, NaN, NaN, NaN, 0.0323506, "- N/A -   "
1.1, 55.0815, 0.00196594, NaN, NaN, NaN, 0.0323506, "- N/A -   "
1.11, 55.3174, 0.001982601, NaN, NaN, NaN, 0.03112983, "- N/A -   "
1.12, 55.6712, 0.00199926, NaN, NaN, NaN, 0.03112983, "- N/A -   "
1.13, 56.143, 0.0020187, NaN, NaN, NaN, 0.0299091, "- N/A -   "
1.14, 56.4968, 0.00203536, NaN, NaN, NaN, 0.0299091, "- N/A -   "
1.15, 56.9686, 0.0020548, NaN, NaN, NaN, 0.0286883, "- N/A -   "
1.16, 57.32247, 0.00207146, NaN, NaN, NaN, 0.0286883, "- N/A -   "
1.17, 57.6763, 0.00208812, NaN, NaN, NaN, 0.0286883, "- N/A -   "
1.18, 58.0302, 0.00210755, NaN, NaN, NaN, 0.0286883, "- N/A -   "
1.19, 58.26605, 0.00212144, NaN, NaN, NaN, 0.0286883, "- N/A -   "
1.2, 58.7378, 0.00214088, NaN, NaN, NaN, 0.0274675, "- N/A -   "
1.21, 59.0917, 0.00215476, NaN, NaN, NaN, 0.0286883, "- N/A -   "
1.22, 59.4455, 0.0021742, NaN, NaN, NaN, 0.0286883, "- N/A -   "
1.23, 59.79937, 0.00218808, NaN, NaN, NaN, 0.0286883, "- N/A -   "
1.24, 60.15321, 0.002204741, NaN, NaN, NaN, 0.0286883, "- N/A -   "
1.25, 60.3891, 0.00221862, NaN, NaN, NaN, 0.0299091, "- N/A -   "
1.26, 60.7429, 0.00223529, NaN, NaN, NaN, 0.0299091, "- N/A -   "
1.27, 61.09679, 0.002249169, NaN, NaN, NaN, 0.03112983, "- N/A -   "
1.28, 61.56858, 0.00226583, NaN, NaN, NaN, 0.03112983, "- N/A -   "
1.29, 61.8045, 0.00228249, NaN, NaN, NaN, 0.03112983, "- N/A -   "
1.3, 62.1583, 0.00229637, NaN, NaN, NaN, 0.0323506, "- N/A -   "
1.31, 62.3942, 0.00231303, NaN, NaN, NaN, 0.0323506, "- N/A -   "
1.32, 62.866, 0.00232969, NaN, NaN, NaN, 0.0323506, "- N/A -   "
1.33, 63.2198, 0.002349132, NaN, NaN, NaN, 0.0323506, "- N/A -   "
1.34, 63.5737, 0.002363016, NaN, NaN, NaN, 0.0323506, "- N/A -   "
1.35, 63.80958, 0.0023769, NaN, NaN, NaN, 0.0335714, "- N/A -   "
1.36, 64.04548, 0.00239356, NaN, NaN, NaN, 0.0347922, "- N/A -   "
1.37, 64.3993, 0.00240744, NaN, NaN, NaN, 0.03601294, "- N/A -   "
1.38, 64.6352, 0.00242133, NaN, NaN, NaN, 0.03601294, "- N/A -   "
1.39, 64.98906, 0.00243521, NaN, NaN, NaN, 0.0372337, "- N/A -   "
1.4, 65.3429, 0.00245465, NaN, NaN, NaN, 0.0372337, "- N/A -   "
1.41, 65.81469, 0.00247131, NaN, NaN, NaN, 0.03601294, "- N/A -   "
1.42, 66.2865, 0.00248797, NaN, NaN, NaN, 0.03601294, "- N/A -   "
1.43, 66.64032, 0.00250463, NaN, NaN, NaN, 0.03601294, "- N/A -   "
1.44, 66.87622, 0.00252129, NaN, NaN, NaN, 0.0372337, "- N/A -   "
1.45, 67.34801, 0.00253517, NaN, NaN, NaN, 0.0372337, "- N/A -   "
1.46, 67.5839, 0.002551835, NaN, NaN, NaN, 0.0384545, "- N/A -   "
1.47, 67.81979, 0.00256572, NaN, NaN, NaN, 0.0384545, "- N/A -   "
1.48, 68.17364, 0.0025796, NaN, NaN, NaN, 0.0396753, "- N/A -   "
1.49, 68.52748, 0.002596263, NaN, NaN, NaN, 0.0396753, "- N/A -   "
1.5, 68.8813, 0.00261292, NaN, NaN, NaN, 0.0396753, "- N/A -   "
1.51, 69.23517, 0.00262958, NaN, NaN, NaN, 0.0396753, "- N/A -   "
1.52, 69.47106, 0.00264347, NaN, NaN, NaN, 0.04089605, "- N/A -   "
1.53, 69.94285, 0.00266013, NaN, NaN, NaN, 0.04211683, "- N/A -   "
1.54, 70.17874, 0.00267401, NaN, NaN, NaN, 0.04211683, "- N/A -   "
1.55, 70.5326, 0.00269067, NaN, NaN, NaN, 0.0433376, "- N/A -   "
1.56, 70.88643, 0.00270456, NaN, NaN, NaN, 0.0433376, "- N/A -   "
1.57, 71.12233, 0.00272122, NaN, NaN, NaN, 0.0433376, "- N/A -   "
1.58, 71.59412, 0.00273788, NaN, NaN, NaN, 0.0433376, "- N/A -   "
1.59, 71.83001, 0.002751761, NaN, NaN, NaN, 0.0445584, "- N/A -   "
1.6, 72.06591, 0.00276564, NaN, NaN, NaN, 0.04577916, "- N/A -   "
1.61, 72.5377, 0.00278231, NaN, NaN, NaN, 0.04577916, "- N/A -   "
1.62, 72.89154, 0.002798966, NaN, NaN, NaN, 0.04577916, "- N/A -   "
1.63, 73.2454, 0.00281563, NaN, NaN, NaN, 0.04577916, "- N/A -   "
1.64, 73.71717, 0.00283229, NaN, NaN, NaN, 0.04577916, "- N/A -   "
1.65, 74.071, 0.00285172, NaN, NaN, NaN, 0.0445584, "- N/A -   "
1.66, 74.42485, 0.00287116, NaN, NaN, NaN, 0.0433376, "- N/A -   "
1.67, 74.8966, 0.0028906, NaN, NaN, NaN, 0.04211683, "- N/A -   "
1.68, 75.48638, 0.00291281, NaN, NaN, NaN, 0.04089605, "- N/A -   "
1.69, 75.8402, 0.00293225, NaN, NaN, NaN, 0.0396753, "- N/A -   "
1.7, 76.19407, 0.00294891, NaN, NaN, NaN, 0.0384545, "- N/A -   "
1.71, 76.6659, 0.00296835, NaN, NaN, NaN, 0.0372337, "- N/A -   "
1.72, 77.0197, 0.002987785, NaN, NaN, NaN, 0.0372337, "- N/A -   "
1.73, 77.6094, 0.00300445, NaN, NaN, NaN, 0.03601294, "- N/A -   "
1.74, 77.84533, 0.00302388, NaN, NaN, NaN, 0.03601294, "- N/A -   "
1.75, 78.31712, 0.00304332, NaN, NaN, NaN, 0.0347922, "- N/A -   "
1.76, 78.67096, 0.00305998, NaN, NaN, NaN, 0.0335714, "- N/A -   "
1.77, 79.0248, 0.00307664, NaN, NaN, NaN, 0.0335714, "- N/A -   "
1.78, 79.4966, 0.0030933, NaN, NaN, NaN, 0.0335714, "- N/A -   "
1.79, 79.85043, 0.003112739, NaN, NaN, NaN, 0.0323506, "- N/A -   "
1.8, 80.32223, 0.00313218, NaN, NaN, NaN, 0.0323506, "- N/A -   "
1.81, 80.55813, 0.00314606, NaN, NaN, NaN, 0.0323506, "- N/A -   "
1.82, 80.912, 0.00315994, NaN, NaN, NaN, 0.0335714, "- N/A -   "
1.83, 81.26581, 0.0031766, NaN, NaN, NaN, 0.0335714, "- N/A -   "
1.84, 81.61965, 0.00319326, NaN, NaN, NaN, 0.0335714, "- N/A -   "
1.85, 81.8555, 0.003209925, NaN, NaN, NaN, 0.0347922, "- N/A -   "
1.86, 82.20939, 0.003223809, NaN, NaN, NaN, 0.0347922, "- N/A -   "
1.87, 82.44528, 0.00323769, NaN, NaN, NaN, 0.03601294, "- N/A -   "
1.88, 82.91707, 0.003254353, NaN, NaN, NaN, 0.03601294, "- N/A -   "
1.89, 83.15297, 0.003268237, NaN, NaN, NaN, 0.0372337, "- N/A -   "
1.9, 83.6248, 0.0032849, NaN, NaN, NaN, 0.0372337, "- N/A -   "
1.91, 83.86065, 0.003298781, NaN, NaN, NaN, 0.0384545, "- N/A -   "
1.92, 84.21449, 0.00331544, NaN, NaN, NaN, 0.0384545, "- N/A -   "
1.93, 84.56834, 0.0033321, NaN, NaN, NaN, 0.0384545, "- N/A -   "
1.94, 85.04012, 0.00334876, NaN, NaN, NaN, 0.0384545, "- N/A -   "
1.95, 85.39397, 0.0033682, NaN, NaN, NaN, 0.0384545, "- N/A -   "
1.96, 85.74781, 0.00338486, NaN, NaN, NaN, 0.0372337, "- N/A -   "
1.97, 86.1017, 0.0034043, NaN, NaN, NaN, 0.0372337, "- N/A -   "
1.98, 86.57345, 0.00342096, NaN, NaN, NaN, 0.03601294, "- N/A -   "
1.99, 86.92729, 0.00344317, NaN, NaN, NaN, 0.0347922, "- N/A -   "
2, 87.51702, 0.00346261, NaN, NaN, NaN, 0.0323506, "- N/A -   "
2.01, 87.8709, 0.00347927, NaN, NaN, NaN, 0.0323506, "- N/A -   "
2.02, 88.34265, 0.00349593, NaN, NaN, NaN, 0.0323506, "- N/A -   "
2.03, 88.6965, 0.00351259, NaN, NaN, NaN, 0.0323506, "- N/A -   "
2.04, 88.9324, 0.00352925, NaN, NaN, NaN, 0.0323506, "- N/A -   "
2.05, 89.40418, 0.00354591, NaN, NaN, NaN, 0.0335714, "- N/A -   "
2.06, 89.6401, 0.00356257, NaN, NaN, NaN, 0.0335714, "- N/A -   "
2.07, 89.87598, 0.00357646, NaN, NaN, NaN, 0.0335714, "- N/A -   "
2.08, 90.34776, 0.00359312, NaN, NaN, NaN, 0.0347922, "- N/A -   "
2.09, 90.70161, 0.003607, NaN, NaN, NaN, 0.0347922, "- N/A -   "
2.1, 91.05545, 0.00362088, NaN, NaN, NaN, 0.03601294, "- N/A -   "
2.11, 91.2913, 0.00363754, NaN, NaN, NaN, 0.0372337, "- N/A -   "
2.12, 91.76313, 0.00365143, NaN, NaN, NaN, 0.0372337, "- N/A -   "
2.13, 92.117, 0.00366809, NaN, NaN, NaN, 0.0384545, "- N/A -   "
2.14, 92.47082, 0.00368197, NaN, NaN, NaN, 0.0384545, "- N/A -   "
2.15, 92.82466, 0.00369863, NaN, NaN, NaN, 0.0384545, "- N/A -   "
2.16, 93.1785, 0.003715294, NaN, NaN, NaN, 0.0384545, "- N/A -   "
2.17, 93.41439, 0.00372918, NaN, NaN, NaN, 0.0396753, "- N/A -   "
2.18, 93.8862, 0.00374584, NaN, NaN, NaN, 0.0396753, "- N/A -   "
2.19, 94.24, 0.0037625, NaN, NaN, NaN, 0.04089605, "- N/A -   "
2.2, 94.47592, 0.00377638, NaN, NaN, NaN, 0.04211683, "- N/A -   "
2.21, 94.8298, 0.003793043, NaN, NaN, NaN, 0.04211683, "- N/A -   "
2.22, 95.30156, 0.0038097, NaN, NaN, NaN, 0.04211683, "- N/A -   "
2.23, 95.7733, 0.003826364, NaN, NaN, NaN, 0.04089605, "- N/A -   "
2.24, 96.24514, 0.0038458, NaN, NaN, NaN, 0.0396753, "- N/A -   "
2.25, 96.481, 0.003862462, NaN, NaN, NaN, 0.0396753, "- N/A -   "
2.26, 96.95282, 0.00387912, NaN, NaN, NaN, 0.0396753, "- N/A -   "
2.27, 97.30666, 0.00389301, NaN, NaN, NaN, 0.04089605, "- N/A -   "
2.28, 97.54256, 0.00390967, NaN, NaN, NaN, 0.04089605, "- N/A -   "
2.29, 97.8964, 0.0039291, NaN, NaN, NaN, 0.04089605, "- N/A -   "
2.3, 98.3682, 0.00394576, NaN, NaN, NaN, 0.04089605, "- N/A -   "
2.31, 98.83998, 0.003962425, NaN, NaN, NaN, 0.0396753, "- N/A -   "
2.32, 99.0759, 0.00397909, NaN, NaN, NaN, 0.0396753, "- N/A -   "
2.33, 99.42972, 0.00399852, NaN, NaN, NaN, 0.0384545, "- N/A -   "
2.34, 99.9015, 0.00401796, NaN, NaN, NaN, 0.0384545, "- N/A -   "
2.35, 100.3733, 0.00403462, NaN, NaN, NaN, 0.0372337, "- N/A -   "
2.36, 100.6092, 0.004051281, NaN, NaN, NaN, 0.0372337, "- N/A -   "
2.37, 101.081, 0.00407072, NaN, NaN, NaN, 0.03601294, "- N/A -   "
2.38, 101.435, 0.00408738, NaN, NaN, NaN, 0.03601294, "- N/A -   "
2.39, 101.907, 0.004104039, NaN, NaN, NaN, 0.03601294, "- N/A -   "
2.4, 102.26, 0.004123477, NaN, NaN, NaN, 0.03601294, "- N/A -   "
2.41, 102.732, 0.004140137, NaN, NaN, NaN, 0.03601294, "- N/A -   "
2.42, 103.086, 0.0041568, NaN, NaN, NaN, 0.03601294, "- N/A -   "
2.43, 103.44, 0.00417068, NaN, NaN, NaN, 0.03601294, "- N/A -   "
2.44, 103.794, 0.004187342, NaN, NaN, NaN, 0.03601294, "- N/A -   "
2.45, 104.266, 0.004204002, NaN, NaN, NaN, 0.03601294, "- N/A -   "
2.46, 104.619, 0.00422066, NaN, NaN, NaN, 0.03601294, "- N/A -   "
2.47, 104.973, 0.004237323, NaN, NaN, NaN, 0.03601294, "- N/A -   "
2.48, 105.327, 0.004253984, NaN, NaN, NaN, 0.03601294, "- N/A -   "
2.49, 105.681, 0.00427064, NaN, NaN, NaN, 0.0372337, "- N/A -   "
2.5, 106.035, 0.004287305, NaN, NaN, NaN, 0.0372337, "- N/A -   "
2.51, 106.389, 0.00430397, NaN, NaN, NaN, 0.03601294, "- N/A -   "
2.52, 106.86, 0.00432063, NaN, NaN, NaN, 0.03601294, "- N/A -   "
2.53, 107.214, 0.004337286, NaN, NaN, NaN, 0.03601294, "- N/A -   "
2.54, 107.686, 0.00435672, NaN, NaN, NaN, 0.0347922, "- N/A -   "
2.55, 108.158, 0.004376161, NaN, NaN, NaN, 0.0335714, "- N/A -   "
2.56, 108.512, 0.004395598, NaN, NaN, NaN, 0.0323506, "- N/A -   "
2.57, 108.983, 0.00441504, NaN, NaN, NaN, 0.03112983, "- N/A -   "
2.58, 109.5732, 0.004434473, NaN, NaN, NaN, 0.0299091, "- N/A -   "
2.59, 109.8091, 0.00445113, NaN, NaN, NaN, 0.03112983, "- N/A -   "
2.6, 110.163, 0.00446779, NaN, NaN, NaN, 0.03112983, "- N/A -   "
2.61, 110.517, 0.00448168, NaN, NaN, NaN, 0.03112983, "- N/A -   "
2.62, 110.871, 0.004498338, NaN, NaN, NaN, 0.03112983, "- N/A -   "
2.63, 111.342, 0.004515, NaN, NaN, NaN, 0.03112983, "- N/A -   "
2.64, 111.696, 0.004534436, NaN, NaN, NaN, 0.03112983, "- N/A -   "
2.65, 112.168, 0.0045511, NaN, NaN, NaN, 0.0299091, "- N/A -   "
2.66, 112.522, 0.00456498, NaN, NaN, NaN, 0.03112983, "- N/A -   "
2.67, 112.876, 0.00458164, NaN, NaN, NaN, 0.03112983, "- N/A -   "
2.68, 113.23, 0.004598301, NaN, NaN, NaN, 0.03112983, "- N/A -   "
2.69, 113.583, 0.00461496, NaN, NaN, NaN, 0.0323506, "- N/A -   "
2.7, 113.937, 0.004631622, NaN, NaN, NaN, 0.0323506, "- N/A -   "
2.71, 114.2911, 0.00464828, NaN, NaN, NaN, 0.0323506, "- N/A -   "
2.72, 114.645, 0.00466217, NaN, NaN, NaN, 0.0323506, "- N/A -   "
2.73, 115.117, 0.004678827, NaN, NaN, NaN, 0.0323506, "- N/A -   "
2.74, 115.471, 0.00469549, NaN, NaN, NaN, 0.0323506, "- N/A -   "
2.75, 115.706, 0.004712148, NaN, NaN, NaN, 0.0323506, "- N/A -   "
2.76, 116.178, 0.00472881, NaN, NaN, NaN, 0.0335714, "- N/A -   "
2.77, 116.5321, 0.004742692, NaN, NaN, NaN, 0.0335714, "- N/A -   "
2.78, 116.768, 0.00475935, NaN, NaN, NaN, 0.0335714, "- N/A -   "
2.79, 117.24, 0.004776013, NaN, NaN, NaN, 0.0335714, "- N/A -   "
2.8, 117.594, 0.00479267, NaN, NaN, NaN, 0.0347922, "- N/A -   "
2.81, 117.947, 0.004806557, NaN, NaN, NaN, 0.0347922, "- N/A -   "
2.82, 118.301, 0.004823218, NaN, NaN, NaN, 0.0347922, "- N/A -   "
2.83, 118.655, 0.004839879, NaN, NaN, NaN, 0.03601294, "- N/A -   "
2.84, 118.891, 0.004853762, NaN, NaN, NaN, 0.03601294, "- N/A -   "
2.85, 119.363, 0.004867646, NaN, NaN, NaN, 0.0372337, "- N/A -   "
2.86, 119.835, 0.00488431, NaN, NaN, NaN, 0.0372337, "- N/A -   "
2.87, 120.071, 0.00490097, NaN, NaN, NaN, 0.0384545, "- N/A -   "
2.88, 120.542, 0.004917627, NaN, NaN, NaN, 0.0384545, "- N/A -   "
2.89, 120.778, 0.00493151, NaN, NaN, NaN, 0.0384545, "- N/A -   "
2.9, 121.132, 0.004948172, NaN, NaN, NaN, 0.0384545, "- N/A -   "
2.91, 121.486, 0.004964832, NaN, NaN, NaN, 0.0396753, "- N/A -   "
2.92, 121.84, 0.004978716, NaN, NaN, NaN, 0.0396753, "- N/A -   "
2.93, 122.312, 0.00499538, NaN, NaN, NaN, 0.0396753, "- N/A -   "
2.94, 122.665, 0.005012037, NaN, NaN, NaN, 0.0396753, "- N/A -   "
2.95, 123.019, 0.005025921, NaN, NaN, NaN, 0.04089605, "- N/A -   "
2.96, 123.373, 0.00504258, NaN, NaN, NaN, 0.04089605, "- N/A -   "
2.97, 123.609, 0.005056465, NaN, NaN, NaN, 0.04211683, "- N/A -   "
2.98, 123.963, 0.00507313, NaN, NaN, NaN, 0.04211683, "- N/A -   "
2.99, 124.435, 0.00508979, NaN, NaN, NaN, 0.0433376, "- N/A -   "
3, 124.67, 0.00510367, NaN, NaN, NaN, 0.0433376, "- N/A -   "
3.01, 125.024, 0.00511755, NaN, NaN, NaN, 0.0445584, "- N/A -   "
3.02, 125.496, 0.00513144, NaN, NaN, NaN, 0.04577916, "- N/A -   "
3.03, 125.85, 0.0051481, NaN, NaN, NaN, 0.04577916, "- N/A -   "
3.04, 126.204, 0.00516476, NaN, NaN, NaN, 0.04577916, "- N/A -   "
3.05, 126.676, 0.005181419, NaN, NaN, NaN, 0.04577916, "- N/A -   "
3.06, 127.147, 0.00520086, NaN, NaN, NaN, 0.0445584, "- N/A -   "
3.07, 127.501, 0.00522029, NaN, NaN, NaN, 0.0433376, "- N/A -   "
3.08, 128.091, 0.00523973, NaN, NaN, NaN, 0.04211683, "- N/A -   "
3.09, 128.4448, 0.005256391, NaN, NaN, NaN, 0.04211683, "- N/A -   "
3.1, 128.799, 0.00527583, NaN, NaN, NaN, 0.04089605, "- N/A -   "
3.11, 129.27, 0.00529527, NaN, NaN, NaN, 0.0396753, "- N/A -   "
3.12, 129.742, 0.00531748, NaN, NaN, NaN, 0.0384545, "- N/A -   "
3.13, 130.214, 0.00533692, NaN, NaN, NaN, 0.03601294, "- N/A -   "
3.14, 130.804, 0.005356354, NaN, NaN, NaN, 0.0347922, "- N/A -   "
3.15, 131.276, 0.00537857, NaN, NaN, NaN, 0.0335714, "- N/A -   "
3.16, 131.629, 0.00539523, NaN, NaN, NaN, 0.0323506, "- N/A -   "
3.17, 131.983, 0.00541189, NaN, NaN, NaN, 0.0335714, "- N/A -   "
3.18, 132.337, 0.00542855, NaN, NaN, NaN, 0.0335714, "- N/A -   "
3.19, 132.6909, 0.00544521, NaN, NaN, NaN, 0.0335714, "- N/A -   "
3.2, 133.163, 0.00545909, NaN, NaN, NaN, 0.0335714, "- N/A -   "
3.21, 133.517, 0.00547575, NaN, NaN, NaN, 0.0335714, "- N/A -   "
3.22, 133.87, 0.00549242, NaN, NaN, NaN, 0.0335714, "- N/A -   "
3.23, 134.342, 0.00550908, NaN, NaN, NaN, 0.0335714, "- N/A -   "
3.24, 134.578, 0.00552296, NaN, NaN, NaN, 0.0347922, "- N/A -   "
3.25, 134.814, 0.00553684, NaN, NaN, NaN, 0.03601294, "- N/A -   "
3.26, 135.286, 0.0055535, NaN, NaN, NaN, 0.0372337, "- N/A -   "
3.27, 135.64, 0.00557016, NaN, NaN, NaN, 0.0372337, "- N/A -   "
3.28, 135.993, 0.005586825, NaN, NaN, NaN, 0.03601294, "- N/A -   "
3.29, 136.465, 0.00560349, NaN, NaN, NaN, 0.0372337, "- N/A -   "
3.3, 136.819, 0.00562015, NaN, NaN, NaN, 0.0372337, "- N/A -   "
3.31, 137.291, 0.00563681, NaN, NaN, NaN, 0.03601294, "- N/A -   "
3.32, 137.763, 0.00565347, NaN, NaN, NaN, 0.03601294, "- N/A -   "
3.33, 138.116, 0.0056729, NaN, NaN, NaN, 0.0347922, "- N/A -   "
3.34, 138.588, 0.00569234, NaN, NaN, NaN, 0.0335714, "- N/A -   "
3.35, 138.942, 0.00571178, NaN, NaN, NaN, 0.0335714, "- N/A -   "
3.36, 139.414, 0.00573122, NaN, NaN, NaN, 0.0323506, "- N/A -   "
3.37, 140.004, 0.00574788, NaN, NaN, NaN, 0.03112983, "- N/A -   "
3.38, 140.357, 0.00576731, NaN, NaN, NaN, 0.0299091, "- N/A -   "
3.39, 140.829, 0.005786751, NaN, NaN, NaN, 0.0299091, "- N/A -   "
3.4, 141.183, 0.00580341, NaN, NaN, NaN, 0.0286883, "- N/A -   "
3.41, 141.6549, 0.005820072, NaN, NaN, NaN, 0.0286883, "- N/A -   "
3.42, 142.009, 0.00583396, NaN, NaN, NaN, 0.0299091, "- N/A -   "
3.43, 142.3626, 0.005850616, NaN, NaN, NaN, 0.0299091, "- N/A -   "
3.44, 142.5985, 0.005867277, NaN, NaN, NaN, 0.0299091, "- N/A -   "
3.45, 143.07, 0.005883937, NaN, NaN, NaN, 0.03112983, "- N/A -   "
3.46, 143.306, 0.005897821, NaN, NaN, NaN, 0.03112983, "- N/A -   "
3.47, 143.66, 0.0059117, NaN, NaN, NaN, 0.0323506, "- N/A -   "
3.48, 144.132, 0.005928365, NaN, NaN, NaN, 0.0335714, "- N/A -   "
3.49, 144.368, 0.00594225, NaN, NaN, NaN, 0.0335714, "- N/A -   "
3.5, 144.722, 0.00595891, NaN, NaN, NaN, 0.0347922, "- N/A -   "
3.51, 145.0754, 0.005972793, NaN, NaN, NaN, 0.03601294, "- N/A -   "
3.52, 145.429, 0.005986677, NaN, NaN, NaN, 0.03601294, "- N/A -   "
3.53, 145.783, 0.00600056, NaN, NaN, NaN, 0.0372337, "- N/A -   "
3.54, 145.901, 0.006014445, NaN, NaN, NaN, 0.0384545, "- N/A -   "
3.55, 146.3728, 0.006028328, NaN, NaN, NaN, 0.0396753, "- N/A -   "
3.56, 146.727, 0.006044989, NaN, NaN, NaN, 0.04089605, "- N/A -   "
3.57, 147.0805, 0.00605887, NaN, NaN, NaN, 0.04089605, "- N/A -   "
3.58, 147.316, 0.006072756, NaN, NaN, NaN, 0.04211683, "- N/A -   "
3.59, 147.67, 0.00608664, NaN, NaN, NaN, 0.0433376, "- N/A -   "
3.6, 148.142, 0.006103301, NaN, NaN, NaN, 0.0445584, "- N/A -   "
3.61, 148.496, 0.006117184, NaN, NaN, NaN, 0.0445584, "- N/A -   "
3.62, 148.8497, 0.006131068, NaN, NaN, NaN, 0.04699994, "- N/A -   "
3.63, 149.204, 0.006147729, NaN, NaN, NaN, 0.04699994, "- N/A -   "
3.64, 149.557, 0.006164389, NaN, NaN, NaN, 0.04699994, "- N/A -   "
3.65, 149.911, 0.00618105, NaN, NaN, NaN, 0.04699994, "- N/A -   "
3.66, 150.265, 0.00619771, NaN, NaN, NaN, 0.04699994, "- N/A -   "
3.67, 150.737, 0.006214371, NaN, NaN, NaN, 0.04699994, "- N/A -   "
3.68, 151.091, 0.006231031, NaN, NaN, NaN, 0.04699994, "- N/A -   "
3.69, 151.445, 0.006250468, NaN, NaN, NaN, 0.04699994, "- N/A -   "
3.7, 152.034, 0.006267129, NaN, NaN, NaN, 0.04577916, "- N/A -   "
3.71, 152.388, 0.006289343, NaN, NaN, NaN, 0.0433376, "- N/A -   "
3.72, 152.978, 0.00630878, NaN, NaN, NaN, 0.04211683, "- N/A -   "
3.73, 153.45, 0.006328217, NaN, NaN, NaN, 0.04089605, "- N/A -   "
3.74, 153.921, 0.006347655, NaN, NaN, NaN, 0.0396753, "- N/A -   "
3.75, 154.393, 0.006367092, NaN, NaN, NaN, 0.0384545, "- N/A -   "
3.76, 154.865, 0.006386529, NaN, NaN, NaN, 0.0372337, "- N/A -   "
3.77, 155.219, 0.00640319, NaN, NaN, NaN, 0.0372337, "- N/A -   "
3.78, 155.809, 0.00642263, NaN, NaN, NaN, 0.0372337, "- N/A -   "
3.79, 156.162, 0.006439287, NaN, NaN, NaN, 0.03601294, "- N/A -   "
3.8, 156.5163, 0.006458725, NaN, NaN, NaN, 0.03601294, "- N/A -   "
3.81, 156.988, 0.00647539, NaN, NaN, NaN, 0.0347922, "- N/A -   "
3.82, 157.342, 0.006492046, NaN, NaN, NaN, 0.0347922, "- N/A -   "
3.83, 157.814, 0.00651148, NaN, NaN, NaN, 0.0347922, "- N/A -   "
3.84, 158.168, 0.00652814, NaN, NaN, NaN, 0.0347922, "- N/A -   "
3.85, 158.521, 0.00654203, NaN, NaN, NaN, 0.0347922, "- N/A -   "
3.86, 158.875, 0.006558688, NaN, NaN, NaN, 0.03601294, "- N/A -   "
3.87, 159.229, 0.00657535, NaN, NaN, NaN, 0.0347922, "- N/A -   "
3.88, 159.701, 0.006592009, NaN, NaN, NaN, 0.0347922, "- N/A -   "
3.89, 160.055, 0.00661145, NaN, NaN, NaN, 0.0335714, "- N/A -   "
3.9, 160.5265, 0.00662811, NaN, NaN, NaN, 0.0335714, "- N/A -   "
3.91, 160.88, 0.006647544, NaN, NaN, NaN, 0.0323506, "- N/A -   "
3.92, 161.352, 0.006666981, NaN, NaN, NaN, 0.03112983, "- N/A -   "
3.93, 161.824, 0.00668642, NaN, NaN, NaN, 0.03112983, "- N/A -   "
3.94, 162.296, 0.006703079, NaN, NaN, NaN, 0.0299091, "- N/A -   "
3.95, 162.768, 0.00672252, NaN, NaN, NaN, 0.0299091, "- N/A -   "
3.96, 163.2393, 0.00674195, NaN, NaN, NaN, 0.0286883, "- N/A -   "
3.97, 163.711, 0.006758614, NaN, NaN, NaN, 0.0274675, "- N/A -   "
3.98, 164.065, 0.00677527, NaN, NaN, NaN, 0.0274675, "- N/A -   "
3.99, 164.537, 0.006794712, NaN, NaN, NaN, 0.0274675, "- N/A -   "
4, 164.891, 0.0068086, NaN, NaN, NaN, 0.0274675, "- N/A -   "
4.01, 165.2444, 0.006825256, NaN, NaN, NaN, 0.0274675, "- N/A -   "
4.02, 165.598, 0.00684192, NaN, NaN, NaN, 0.0286883, "- N/A -   "
4.03, 165.952, 0.00685858, NaN, NaN, NaN, 0.0274675, "- N/A -   "
4.04, 166.306, 0.00687524, NaN, NaN, NaN, 0.0286883, "- N/A -   "
4.05, 166.66, 0.0068919, NaN, NaN, NaN, 0.0286883, "- N/A -   "
4.06, 167.132, 0.00690856, NaN, NaN, NaN, 0.0286883, "- N/A -   "
4.07, 167.485, 0.00692244, NaN, NaN, NaN, 0.0286883, "- N/A -   "
4.08, 167.839, 0.006936326, NaN, NaN, NaN, 0.0299091, "- N/A -   "
4.09, 168.193, 0.00695299, NaN, NaN, NaN, 0.03112983, "- N/A -   "
4.1, 168.547, 0.00696687, NaN, NaN, NaN, 0.03112983, "- N/A -   "
4.11, 168.901, 0.00698075, NaN, NaN, NaN, 0.0323506, "- N/A -   "
4.12, 169.255, 0.00699741, NaN, NaN, NaN, 0.0335714, "- N/A -   "
4.13, 169.491, 0.00700852, NaN, NaN, NaN, 0.0347922, "- N/A -   "
4.14, 169.726, 0.00702241, NaN, NaN, NaN, 0.03601294, "- N/A -   "
4.15, 170.08, 0.007036289, NaN, NaN, NaN, 0.0372337, "- N/A -   "
4.16, 170.4341, 0.00705017, NaN, NaN, NaN, 0.0384545, "- N/A -   "
4.17, 170.788, 0.00706406, NaN, NaN, NaN, 0.0396753, "- N/A -   "
4.18, 171.142, 0.00708072, NaN, NaN, NaN, 0.04089605, "- N/A -   "
4.19, 171.378, 0.007094601, NaN, NaN, NaN, 0.04211683, "- N/A -   "
4.2, 171.732, 0.007108485, NaN, NaN, NaN, 0.04211683, "- N/A -   "
4.21, 172.085, 0.00712237, NaN, NaN, NaN, 0.0433376, "- N/A -   "
4.22, 172.4392, 0.00713903, NaN, NaN, NaN, 0.0445584, "- N/A -   "
4.23, 172.793, 0.00715291, NaN, NaN, NaN, 0.0445584, "- N/A -   "
4.24, 173.265, 0.00716957, NaN, NaN, NaN, 0.0445584, "- N/A -   "
4.25, 173.619, 0.00718623, NaN, NaN, NaN, 0.0445584, "- N/A -   "
4.26, 173.973, 0.00720289, NaN, NaN, NaN, 0.0445584, "- N/A -   "
4.27, 174.326, 0.007219555, NaN, NaN, NaN, 0.0445584, "- N/A -   "
4.28, 174.9161, 0.00723622, NaN, NaN, NaN, 0.0445584, "- N/A -   "
4.29, 175.388, 0.00725565, NaN, NaN, NaN, 0.0433376, "- N/A -   "
4.3, 175.742, 0.00727231, NaN, NaN, NaN, 0.0433376, "- N/A -   "
4.31, 176.214, 0.007288974, NaN, NaN, NaN, 0.0433376, "- N/A -   "
4.32, 176.449, 0.00730563, NaN, NaN, NaN, 0.0445584, "- N/A -   "
4.33, 176.9212, 0.00732229, NaN, NaN, NaN, 0.0445584, "- N/A -   "
4.34, 177.275, 0.00733896, NaN, NaN, NaN, 0.0445584, "- N/A -   "
4.35, 177.629, 0.00735562, NaN, NaN, NaN, 0.0445584, "- N/A -   "
4.36, 177.983, 0.00737228, NaN, NaN, NaN, 0.0445584, "- N/A -   "
4.37, 178.455, 0.007388937, NaN, NaN, NaN, 0.0445584, "- N/A -   "
4.38, 178.926, 0.00740282, NaN, NaN, NaN, 0.0445584, "- N/A -   "
4.39, 179.28, 0.007419481, NaN, NaN, NaN, 0.0445584, "- N/A -   "
4.4, 179.752, 0.007436142, NaN, NaN, NaN, 0.0445584, "- N/A -   "
4.41, 180.106, 0.007452802, NaN, NaN, NaN, 0.0445584, "- N/A -   "
4.42, 180.46, 0.00747224, NaN, NaN, NaN, 0.0445584, "- N/A -   "
4.43, 180.931, 0.0074889, NaN, NaN, NaN, 0.0433376, "- N/A -   "
4.44, 181.403, 0.007508337, NaN, NaN, NaN, 0.04211683, "- N/A -   "
4.45, 181.757, 0.00752777, NaN, NaN, NaN, 0.04089605, "- N/A -   "
4.46, 182.3468, 0.00754999, NaN, NaN, NaN, 0.0396753, "- N/A -   "
4.47, 182.819, 0.007566649, NaN, NaN, NaN, 0.0384545, "- N/A -   "
4.48, 183.408, 0.007586086, NaN, NaN, NaN, 0.0372337, "- N/A -   "
4.49, 183.8801, 0.0076083, NaN, NaN, NaN, 0.0347922, "- N/A -   "
4.5, 184.3519, 0.007630514, NaN, NaN, NaN, 0.0335714, "- N/A -   "
4.51, 184.824, 0.00764995, NaN, NaN, NaN, 0.03112983, "- N/A -   "
4.52, 185.295, 0.00767217, NaN, NaN, NaN, 0.0299091, "- N/A -   "
4.53, 185.767, 0.007688826, NaN, NaN, NaN, 0.0286883, "- N/A -   "
4.54, 186.239, 0.007705487, NaN, NaN, NaN, 0.0286883, "- N/A -   "
4.55, 186.593, 0.007722147, NaN, NaN, NaN, 0.0299091, "- N/A -   "
4.56, 186.947, 0.00773881, NaN, NaN, NaN, 0.0299091, "- N/A -   "
4.57, 187.301, 0.007752691, NaN, NaN, NaN, 0.0299091, "- N/A -   "
4.58, 187.772, 0.007769352, NaN, NaN, NaN, 0.0299091, "- N/A -   "
4.59, 188.1262, 0.007788789, NaN, NaN, NaN, 0.0286883, "- N/A -   "
4.6, 188.48, 0.00780545, NaN, NaN, NaN, 0.0286883, "- N/A -   "
4.61, 188.952, 0.00782211, NaN, NaN, NaN, 0.0299091, "- N/A -   "
4.62, 189.3057, 0.007838771, NaN, NaN, NaN, 0.0299091, "- N/A -   "
4.63, 189.66, 0.007852654, NaN, NaN, NaN, 0.0299091, "- N/A -   "
4.64, 190.013, 0.007866538, NaN, NaN, NaN, 0.03112983, "- N/A -   "
4.65, 190.367, 0.007880422, NaN, NaN, NaN, 0.0323506, "- N/A -   "
4.66, 190.721, 0.007897082, NaN, NaN, NaN, 0.0323506, "- N/A -   "
4.67, 190.957, 0.007910966, NaN, NaN, NaN, 0.0335714, "- N/A -   "
4.68, 191.311, 0.00792485, NaN, NaN, NaN, 0.0347922, "- N/A -   "
4.69, 191.7826, 0.00794151, NaN, NaN, NaN, 0.0347922, "- N/A -   "
4.7, 192.018, 0.007955394, NaN, NaN, NaN, 0.03601294, "- N/A -   "
4.71, 192.49, 0.007972055, NaN, NaN, NaN, 0.03601294, "- N/A -   "
4.72, 192.844, 0.007985938, NaN, NaN, NaN, 0.0372337, "- N/A -   "
4.73, 193.198, 0.008002599, NaN, NaN, NaN, 0.0384545, "- N/A -   "
4.74, 193.5518, 0.008013706, NaN, NaN, NaN, 0.0396753, "- N/A -   "
4.75, 193.7877, 0.008030366, NaN, NaN, NaN, 0.0396753, "- N/A -   "
4.76, 194.259, 0.00804425, NaN, NaN, NaN, 0.04089605, "- N/A -   "
4.77, 194.731, 0.008060911, NaN, NaN, NaN, 0.04089605, "- N/A -   "
4.78, 195.085, 0.008077571, NaN, NaN, NaN, 0.04089605, "- N/A -   "
4.79, 195.439, 0.008097008, NaN, NaN, NaN, 0.04089605, "- N/A -   "
4.8, 195.911, 0.008113669, NaN, NaN, NaN, 0.0396753, "- N/A -   "
4.81, 196.265, 0.008133106, NaN, NaN, NaN, 0.0396753, "- N/A -   "
4.82, 196.854, 0.008149767, NaN, NaN, NaN, 0.0384545, "- N/A -   "
4.83, 197.208, 0.008166427, NaN, NaN, NaN, 0.0384545, "- N/A -   "
4.84, 197.68, 0.008185864, NaN, NaN, NaN, 0.0384545, "- N/A -   "
4.85, 198.034, 0.008202525, NaN, NaN, NaN, 0.0372337, "- N/A -   "
4.86, 198.388, 0.008216409, NaN, NaN, NaN, 0.0384545, "- N/A -   "
4.87, 198.741, 0.008233069, NaN, NaN, NaN, 0.0396753, "- N/A -   "
4.88, 199.095, 0.008246954, NaN, NaN, NaN, 0.0396753, "- N/A -   "
4.89, 199.449, 0.008263613, NaN, NaN, NaN, 0.04089605, "- N/A -   "
4.9, 199.803, 0.008277497, NaN, NaN, NaN, 0.04089605, "- N/A -   "
4.91, 200.157, 0.008291381, NaN, NaN, NaN, 0.04211683, "- N/A -   "
4.92, 200.629, 0.008308042, NaN, NaN, NaN, 0.04211683, "- N/A -   "
4.93, 200.865, 0.008324702, NaN, NaN, NaN, 0.0433376, "- N/A -   "
4.94, 201.336, 0.008341363, NaN, NaN, NaN, 0.0433376, "- N/A -   "
4.95, 201.572, 0.008355246, NaN, NaN, NaN, 0.0433376, "- N/A -   "
4.96, 202.044, 0.008371907, NaN, NaN, NaN, 0.0433376, "- N/A -   "
4.97, 202.516, 0.008391344, NaN, NaN, NaN, 0.0433376, "- N/A -   "
4.98, 202.9876, 0.008408004, NaN, NaN, NaN, 0.0433376, "- N/A -   "
4.99, 203.2235, 0.008421889, NaN, NaN, NaN, 0.0433376, "- N/A -   "
5, 203.577, 0.008438549, NaN, NaN, NaN, 0.0433376, "- N/A -   "
5.01, 203.931, 0.008455209, NaN, NaN, NaN, 0.0433376, "- N/A -   "
5.02, 204.521, 0.00847187, NaN, NaN, NaN, 0.0433376, "- N/A -   "
5.03, 204.875, 0.00849131, NaN, NaN, NaN, 0.0433376, "- N/A -   "
5.04, 205.347, 0.008507968, NaN, NaN, NaN, 0.04211683, "- N/A -   "
5.05, 205.818, 0.008524628, NaN, NaN, NaN, 0.04211683, "- N/A -   "
5.06, 206.29, 0.008541289, NaN, NaN, NaN, 0.04211683, "- N/A -   "
5.07, 206.762, 0.008563503, NaN, NaN, NaN, 0.04089605, "- N/A -   "
5.08, 207.116, 0.00858294, NaN, NaN, NaN, 0.0396753, "- N/A -   "
5.09, 207.588, 0.008602377, NaN, NaN, NaN, 0.0372337, "- N/A -   "
5.1, 208.177, 0.008624592, NaN, NaN, NaN, 0.03601294, "- N/A -   "
5.11, 208.649, 0.008641251, NaN, NaN, NaN, 0.0347922, "- N/A -   "
5.12, 209.121, 0.008660689, NaN, NaN, NaN, 0.0335714, "- N/A -   "
5.13, 209.593, 0.008680127, NaN, NaN, NaN, 0.0323506, "- N/A -   "
5.14, 210.064, 0.008699563, NaN, NaN, NaN, 0.0323506, "- N/A -   "
5.15, 210.418, 0.008719001, NaN, NaN, NaN, 0.0299091, "- N/A -   "
5.16, 210.89, 0.008735661, NaN, NaN, NaN, 0.0299091, "- N/A -   "
5.17, 211.362, 0.008755099, NaN, NaN, NaN, 0.0299091, "- N/A -   "
5.18, 211.716, 0.008771759, NaN, NaN, NaN, 0.0286883, "- N/A -   "
5.19, 212.07, 0.00878842, NaN, NaN, NaN, 0.0286883, "- N/A -   "
5.2, 212.541, 0.00880508, NaN, NaN, NaN, 0.0286883, "- N/A -   "
5.21, 212.895, 0.008821741, NaN, NaN, NaN, 0.0299091, "- N/A -   "
5.22, 213.249, 0.008835625, NaN, NaN, NaN, 0.0299091, "- N/A -   "
5.23, 213.603, 0.008849508, NaN, NaN, NaN, 0.03112983, "- N/A -   "
5.24, 213.839, 0.008863391, NaN, NaN, NaN, 0.0323506, "- N/A -   "
5.25, 214.1926, 0.00887728, NaN, NaN, NaN, 0.0335714, "- N/A -   "
5.26, 214.6644, 0.008893937, NaN, NaN, NaN, 0.0335714, "- N/A -   "
5.27, 215.018, 0.008910596, NaN, NaN, NaN, 0.0347922, "- N/A -   "
5.28, 215.372, 0.00892448, NaN, NaN, NaN, 0.0347922, "- N/A -   "
5.29, 215.844, 0.008941141, NaN, NaN, NaN, 0.0347922, "- N/A -   "
5.3, 216.198, 0.008957801, NaN, NaN, NaN, 0.0347922, "- N/A -   "
5.31, 216.67, 0.008974462, NaN, NaN, NaN, 0.0347922, "- N/A -   "
5.32, 217.023, 0.008991122, NaN, NaN, NaN, 0.0347922, "- N/A -   "
5.33, 217.377, 0.009007783, NaN, NaN, NaN, 0.0347922, "- N/A -   "
5.34, 217.849, 0.009024444, NaN, NaN, NaN, 0.0347922, "- N/A -   "
5.35, 218.203, 0.009041104, NaN, NaN, NaN, 0.0347922, "- N/A -   "
5.36, 218.557, 0.009057765, NaN, NaN, NaN, 0.0347922, "- N/A -   "
5.37, 218.9105, 0.009077202, NaN, NaN, NaN, 0.0347922, "- N/A -   "
5.38, 219.5, 0.009093863, NaN, NaN, NaN, 0.0335714, "- N/A -   "
5.39, 219.8541, 0.009110522, NaN, NaN, NaN, 0.0335714, "- N/A -   "
5.4, 220.326, 0.009127184, NaN, NaN, NaN, 0.0335714, "- N/A -   "
5.41, 220.798, 0.00914662, NaN, NaN, NaN, 0.0323506, "- N/A -   "
5.42, 221.034, 0.009163281, NaN, NaN, NaN, 0.0323506, "- N/A -   "
5.43, 221.505, 0.009179941, NaN, NaN, NaN, 0.0323506, "- N/A -   "
5.44, 221.977, 0.009196602, NaN, NaN, NaN, 0.0323506, "- N/A -   "
5.45, 222.331, 0.009216039, NaN, NaN, NaN, 0.0323506, "- N/A -   "
5.46, 222.803, 0.009229923, NaN, NaN, NaN, 0.0323506, "- N/A -   "
5.47, 223.157, 0.009246584, NaN, NaN, NaN, 0.0323506, "- N/A -   "
5.48, 223.3925, 0.009260467, NaN, NaN, NaN, 0.0335714, "- N/A -   "
5.49, 223.746, 0.009274351, NaN, NaN, NaN, 0.0347922, "- N/A -   "
5.5, 224.1002, 0.009288235, NaN, NaN, NaN, 0.03601294, "- N/A -   "
5.51, 224.454, 0.009302119, NaN, NaN, NaN, 0.0372337, "- N/A -   "
5.52, 224.808, 0.009318779, NaN, NaN, NaN, 0.0372337, "- N/A -   "
5.53, 225.28, 0.00933544, NaN, NaN, NaN, 0.0372337, "- N/A -   "
5.54, 225.516, 0.009349324, NaN, NaN, NaN, 0.0384545, "- N/A -   "
5.55, 225.751, 0.009363207, NaN, NaN, NaN, 0.0396753, "- N/A -   "
5.56, 226.223, 0.009377091, NaN, NaN, NaN, 0.04089605, "- N/A -   "
5.57, 226.459, 0.009390975, NaN, NaN, NaN, 0.04211683, "- N/A -   "
5.58, 226.813, 0.009407635, NaN, NaN, NaN, 0.0433376, "- N/A -   "
5.59, 227.167, 0.009421519, NaN, NaN, NaN, 0.0433376, "- N/A -   "
5.6, 227.521, 0.009435403, NaN, NaN, NaN, 0.0445584, "- N/A -   "
5.61, 227.875, 0.00945484, NaN, NaN, NaN, 0.0445584, "- N/A -   "
5.62, 228.346, 0.009471501, NaN, NaN, NaN, 0.0433376, "- N/A -   "
5.63, 228.818, 0.009488161, NaN, NaN, NaN, 0.0433376, "- N/A -   "
5.64, 229.29, 0.009510376, NaN, NaN, NaN, 0.04089605, "- N/A -   "
5.65, 229.762, 0.009529812, NaN, NaN, NaN, 0.0396753, "- N/A -   "
5.66, 230.233, 0.009546473, NaN, NaN, NaN, 0.0396753, "- N/A -   "
5.67, 230.587, 0.009563133, NaN, NaN, NaN, 0.0396753, "- N/A -   "
5.68, 231.0591, 0.00957979, NaN, NaN, NaN, 0.0396753, "- N/A -   "
5.69, 231.295, 0.009596454, NaN, NaN, NaN, 0.04089605, "- N/A -   "
5.7, 231.767, 0.009613114, NaN, NaN, NaN, 0.04089605, "- N/A -   "
5.71, 232.121, 0.009629775, NaN, NaN, NaN, 0.0396753, "- N/A -   "
5.72, 232.71, 0.009646436, NaN, NaN, NaN, 0.0396753, "- N/A -   "
5.73, 233.0642, 0.009663097, NaN, NaN, NaN, 0.0396753, "- N/A -   "
5.74, 233.3001, 0.009679758, NaN, NaN, NaN, 0.0396753, "- N/A -   "
5.75, 233.89, 0.00969642, NaN, NaN, NaN, 0.0396753, "- N/A -   "
5.76, 234.244, 0.009715856, NaN, NaN, NaN, 0.0396753, "- N/A -   "
5.77, 234.715, 0.009732516, NaN, NaN, NaN, 0.0384545, "- N/A -   "
5.78, 235.187, 0.009749176, NaN, NaN, NaN, 0.0384545, "- N/A -   "
5.79, 235.5411, 0.009765836, NaN, NaN, NaN, 0.0384545, "- N/A -   "
5.8, 236.0129, 0.009785274, NaN, NaN, NaN, 0.0384545, "- N/A -   "
5.81, 236.485, 0.00980193, NaN, NaN, NaN, 0.0372337, "- N/A -   "
5.82, 236.721, 0.009818594, NaN, NaN, NaN, 0.0372337, "- N/A -   "
5.83, 237.3103, 0.009838033, NaN, NaN, NaN, 0.03601294, "- N/A -   "
5.84, 237.664, 0.009854692, NaN, NaN, NaN, 0.03601294, "- N/A -   "
5.85, 238.136, 0.00987413, NaN, NaN, NaN, 0.0347922, "- N/A -   "
5.86, 238.49, 0.00989079, NaN, NaN, NaN, 0.0347922, "- N/A -   "
5.87, 238.962, 0.00990745, NaN, NaN, NaN, 0.0347922, "- N/A -   "
5.88, 239.315, 0.009924111, NaN, NaN, NaN, 0.0347922, "- N/A -   "
5.89, 239.669, 0.00994077, NaN, NaN, NaN, 0.03601294, "- N/A -   "
5.9, 240.141, 0.009957431, NaN, NaN, NaN, 0.0347922, "- N/A -   "
5.91, 240.495, 0.009974094, NaN, NaN, NaN, 0.0347922, "- N/A -   "
5.92, 240.967, 0.009990754, NaN, NaN, NaN, 0.0347922, "- N/A -   "
5.93, 241.321, 0.0100074, NaN, NaN, NaN, 0.0347922, "- N/A -   "
5.94, 241.674, 0.0100241, NaN, NaN, NaN, 0.0347922, "- N/A -   "
5.95, 242.146, 0.0100407, NaN, NaN, NaN, 0.0347922, "- N/A -   "
5.96, 242.5, 0.0100602, NaN, NaN, NaN, 0.0347922, "- N/A -   "
[...]
32.45, 1386.5, 0.05421886, NaN, NaN, NaN, 0.03112983, "- N/A -   "
32.49, 1388.41, 0.0542827, NaN, NaN, NaN, 0.03112983, "- N/A -   "
32.53, 1390.194, 0.05434659, NaN, NaN, NaN, 0.0323506, "- N/A -   "
32.57, 1391.74, 0.05440768, NaN, NaN, NaN, 0.03601294, "- N/A -   "
32.61, 1393.53, 0.05447154, NaN, NaN, NaN, 0.03601294, "- N/A -   "
32.65, 1395.56, 0.054541, NaN, NaN, NaN, 0.0347922, "- N/A -   "
32.69, 1397.47, 0.0546104, NaN, NaN, NaN, 0.0335714, "- N/A -   "
32.73, 1399.61, 0.05468258, NaN, NaN, NaN, 0.0323506, "- N/A -   "
32.77, 1401.28, 0.0547437, NaN, NaN, NaN, 0.0335714, "- N/A -   "
32.81, 1402.954, 0.0548075, NaN, NaN, NaN, 0.0347922, "- N/A -   "
32.85, 1404.74, 0.05486584, NaN, NaN, NaN, 0.0384545, "- N/A -   "
32.89, 1406.293, 0.05492693, NaN, NaN, NaN, 0.04089605, "- N/A -   "
32.93, 1408.2, 0.05499635, NaN, NaN, NaN, 0.0396753, "- N/A -   "
32.97, 1409.99, 0.05506299, NaN, NaN, NaN, 0.04089605, "- N/A -   "
33.01, 1412.02, 0.0551269, NaN, NaN, NaN, 0.04089605, "- N/A -   "
33.05, 1413.81, 0.0551935, NaN, NaN, NaN, 0.04089605, "- N/A -   "
33.09, 1415.71, 0.05526014, NaN, NaN, NaN, 0.04089605, "- N/A -   "
33.13, 1417.622, 0.0553296, NaN, NaN, NaN, 0.0396753, "- N/A -   "
33.17, 1419.77, 0.0554018, NaN, NaN, NaN, 0.0372337, "- N/A -   "
33.21, 1421.8, 0.05547395, NaN, NaN, NaN, 0.0347922, "- N/A -   "
33.25, 1423.82, 0.0555461, NaN, NaN, NaN, 0.0323506, "- N/A -   "
33.29, 1425.61, 0.05561001, NaN, NaN, NaN, 0.0335714, "- N/A -   "
33.33, 1427.52, 0.0556794, NaN, NaN, NaN, 0.0323506, "- N/A -   "
33.37, 1429.19, 0.0557433, NaN, NaN, NaN, 0.0335714, "- N/A -   "
33.41, 1430.98, 0.0558044, NaN, NaN, NaN, 0.03601294, "- N/A -   "
33.45, 1432.89, 0.05586825, NaN, NaN, NaN, 0.0372337, "- N/A -   "
33.49, 1434.79, 0.0559432, NaN, NaN, NaN, 0.0335714, "- N/A -   "
33.53, 1436.7, 0.0560099, NaN, NaN, NaN, 0.0335714, "- N/A -   "
33.57, 1438.37, 0.05606818, NaN, NaN, NaN, 0.0372337, "- N/A -   "
33.61, 1440.04, 0.05613204, NaN, NaN, NaN, 0.0384545, "- N/A -   "
33.65, 1441.71, 0.0561904, NaN, NaN, NaN, 0.04211683, "- N/A -   "
33.69, 1443.5, 0.056257, NaN, NaN, NaN, 0.0433376, "- N/A -   "
33.73, 1445.41, 0.0563209, NaN, NaN, NaN, 0.0433376, "- N/A -   "
33.77, 1447.55, 0.0563958, NaN, NaN, NaN, 0.04089605, "- N/A -   "
33.81, 1449.82, 0.0564736, NaN, NaN, NaN, 0.03601294, "- N/A -   "
33.85, 1451.85, 0.0565486, NaN, NaN, NaN, 0.03112983, "- N/A -   "
33.89, 1453.87, 0.056618, NaN, NaN, NaN, 0.0299091, "- N/A -   "
33.93, 1455.544, 0.0566818, NaN, NaN, NaN, 0.0323506, "- N/A -   "
33.97, 1457.452, 0.05674848, NaN, NaN, NaN, 0.0323506, "- N/A -   "
34.01, 1459.24, 0.0568123, NaN, NaN, NaN, 0.0323506, "- N/A -   "
34.05, 1461.27, 0.0568845, NaN, NaN, NaN, 0.0299091, "- N/A -   "
34.09, 1463.18, 0.05695396, NaN, NaN, NaN, 0.0299091, "- N/A -   "
34.13, 1464.85, 0.057015, NaN, NaN, NaN, 0.03112983, "- N/A -   "
34.17, 1466.52, 0.0570761, NaN, NaN, NaN, 0.0335714, "- N/A -   "
34.21, 1468.304, 0.05714, NaN, NaN, NaN, 0.0347922, "- N/A -   "
34.25, 1469.85, 0.0571983, NaN, NaN, NaN, 0.0384545, "- N/A -   "
34.29, 1471.52, 0.0572566, NaN, NaN, NaN, 0.04211683, "- N/A -   "
34.33, 1473.07, 0.05731216, NaN, NaN, NaN, 0.04699994, "- N/A -   "
34.37, 1474.86, 0.057376, NaN, NaN, NaN, 0.0482207, "- N/A -   "
34.41, 1476.89, 0.0574538, NaN, NaN, NaN, 0.0433376, "- N/A -   "
34.45, 1478.92, 0.0575232, NaN, NaN, NaN, 0.04211683, "- N/A -   "
34.49, 1481.064, 0.0575982, NaN, NaN, NaN, 0.0384545, "- N/A -   "
34.53, 1483.09, 0.05767036, NaN, NaN, NaN, 0.03601294, "- N/A -   "
34.57, 1485, 0.0577398, NaN, NaN, NaN, 0.0347922, "- N/A -   "
34.61, 1486.91, 0.05780642, NaN, NaN, NaN, 0.0347922, "- N/A -   "
34.65, 1488.93, 0.0578786, NaN, NaN, NaN, 0.0323506, "- N/A -   "
34.69, 1490.96, 0.057948, NaN, NaN, NaN, 0.03112983, "- N/A -   "
34.73, 1492.87, 0.0580175, NaN, NaN, NaN, 0.0299091, "- N/A -   "
34.77, 1494.66, 0.0580841, NaN, NaN, NaN, 0.0299091, "- N/A -   "
34.81, 1496.209, 0.05814241, NaN, NaN, NaN, 0.0335714, "- N/A -   "
34.85, 1497.88, 0.0582035, NaN, NaN, NaN, 0.03601294, "- N/A -   "
34.89, 1499.55, 0.0582646, NaN, NaN, NaN, 0.0384545, "- N/A -   "
34.93, 1501.1, 0.0583229, NaN, NaN, NaN, 0.0433376, "- N/A -   "
34.97, 1502.89, 0.058384, NaN, NaN, NaN, 0.0445584, "- N/A -   "
35.01, 1504.8, 0.0584562, NaN, NaN, NaN, 0.04211683, "- N/A -   "
35.05, 1506.58, 0.0585228, NaN, NaN, NaN, 0.0433376, "- N/A -   "
35.09, 1508.492, 0.0585895, NaN, NaN, NaN, 0.04211683, "- N/A -   "
35.13, 1510.4, 0.0586589, NaN, NaN, NaN, 0.04089605, "- N/A -   "
35.17, 1512.67, 0.05873941, NaN, NaN, NaN, 0.03601294, "- N/A -   "
35.21, 1515.05, 0.05881994, NaN, NaN, NaN, 0.0299091, "- N/A -   "
35.25, 1517.2, 0.05889491, NaN, NaN, NaN, 0.0250259, "- N/A -   "
35.29, 1518.99, 0.05896155, NaN, NaN, NaN, 0.0250259, "- N/A -   "
35.33, 1520.89, 0.0590254, NaN, NaN, NaN, 0.0274675, "- N/A -   "
35.37, 1522.56, 0.0590893, NaN, NaN, NaN, 0.0286883, "- N/A -   "
35.41, 1524.11, 0.0591448, NaN, NaN, NaN, 0.0335714, "- N/A -   "
35.45, 1525.66, 0.0592059, NaN, NaN, NaN, 0.03601294, "- N/A -   "
35.49, 1527.21, 0.0592642, NaN, NaN, NaN, 0.0396753, "- N/A -   "
35.53, 1529.12, 0.0593336, NaN, NaN, NaN, 0.0396753, "- N/A -   "
35.57, 1531.03, 0.0594031, NaN, NaN, NaN, 0.0372337, "- N/A -   "
35.61, 1532.82, 0.0594641, NaN, NaN, NaN, 0.04089605, "- N/A -   "
35.65, 1534.25, 0.0595197, NaN, NaN, NaN, 0.0445584, "- N/A -   "
35.69, 1536.04, 0.0595835, NaN, NaN, NaN, 0.04577916, "- N/A -   "
35.73, 1538.07, 0.0596502, NaN, NaN, NaN, 0.04577916, "- N/A -   "
35.77, 1539.97, 0.0597252, NaN, NaN, NaN, 0.04211683, "- N/A -   "
35.81, 1542.24, 0.05980568, NaN, NaN, NaN, 0.0372337, "- N/A -   "
35.85, 1544.39, 0.0598779, NaN, NaN, NaN, 0.0347922, "- N/A -   "
35.89, 1546.29, 0.0599473, NaN, NaN, NaN, 0.0323506, "- N/A -   "
35.93, 1548.08, 0.0600139, NaN, NaN, NaN, 0.0323506, "- N/A -   "
35.97, 1549.87, 0.0600778, NaN, NaN, NaN, 0.0335714, "- N/A -   "
36.01, 1551.54, 0.0601389, NaN, NaN, NaN, 0.03601294, "- N/A -   "
36.05, 1553.33, 0.06020276, NaN, NaN, NaN, 0.0384545, "- N/A -   "
36.09, 1555.24, 0.0602722, NaN, NaN, NaN, 0.03601294, "- N/A -   "
36.13, 1557.39, 0.06034715, NaN, NaN, NaN, 0.0323506, "- N/A -   "
36.17, 1559.17, 0.060411, NaN, NaN, NaN, 0.0335714, "- N/A -   "
36.21, 1560.72, 0.0604693, NaN, NaN, NaN, 0.0384545, "- N/A -   "
36.25, 1562.16, 0.06052764, NaN, NaN, NaN, 0.04211683, "- N/A -   "
36.29, 1564.06, 0.0605915, NaN, NaN, NaN, 0.0433376, "- N/A -   "
36.33, 1565.97, 0.06066092, NaN, NaN, NaN, 0.04089605, "- N/A -   "
36.37, 1568, 0.0607331, NaN, NaN, NaN, 0.0396753, "- N/A -   "
36.41, 1569.79, 0.060797, NaN, NaN, NaN, 0.0396753, "- N/A -   "
36.45, 1571.7, 0.0608636, NaN, NaN, NaN, 0.0396753, "- N/A -   "
36.49, 1573.72, 0.0609386, NaN, NaN, NaN, 0.03601294, "- N/A -   "
36.53, 1575.63, 0.061008, NaN, NaN, NaN, 0.0347922, "- N/A -   "
36.57, 1577.54, 0.06107744, NaN, NaN, NaN, 0.0335714, "- N/A -   "
36.61, 1579.45, 0.0611441, NaN, NaN, NaN, 0.0335714, "- N/A -   "
36.65, 1581.24, 0.0612135, NaN, NaN, NaN, 0.0335714, "- N/A -   "
36.69, 1583.26, 0.06128014, NaN, NaN, NaN, 0.0323506, "- N/A -   "
36.73, 1585.05, 0.0613496, NaN, NaN, NaN, 0.03112983, "- N/A -   "
36.77, 1586.96, 0.0614162, NaN, NaN, NaN, 0.03112983, "- N/A -   "
36.81, 1588.87, 0.06148562, NaN, NaN, NaN, 0.0299091, "- N/A -   "
36.85, 1590.66, 0.06154948, NaN, NaN, NaN, 0.03112983, "- N/A -   "
36.89, 1592.21, 0.0616106, NaN, NaN, NaN, 0.0347922, "- N/A -   "
36.93, 1594, 0.06167166, NaN, NaN, NaN, 0.03601294, "- N/A -   "
36.97, 1595.665, 0.06173275, NaN, NaN, NaN, 0.0384545, "- N/A -   "
37.01, 1597.1, 0.0617911, NaN, NaN, NaN, 0.0433376, "- N/A -   "
37.05, 1599, 0.0618549, NaN, NaN, NaN, 0.0445584, "- N/A -   "
37.09, 1600.67, 0.06191879, NaN, NaN, NaN, 0.04577916, "- N/A -   "
37.13, 1602.34, 0.0619827, NaN, NaN, NaN, 0.04699994, "- N/A -   "
37.17, 1604.25, 0.0620493, NaN, NaN, NaN, 0.04699994, "- N/A -   "
37.21, 1606.52, 0.0621215, NaN, NaN, NaN, 0.0433376, "- N/A -   "
37.25, 1608.54, 0.06220202, NaN, NaN, NaN, 0.0384545, "- N/A -   "
37.29, 1610.69, 0.0622742, NaN, NaN, NaN, 0.0347922, "- N/A -   "
37.33, 1612.6, 0.06234364, NaN, NaN, NaN, 0.0347922, "- N/A -   "
37.37, 1614.507, 0.0624103, NaN, NaN, NaN, 0.0335714, "- N/A -   "
37.41, 1616.18, 0.0624769, NaN, NaN, NaN, 0.0335714, "- N/A -   "
37.45, 1618.323, 0.0625491, NaN, NaN, NaN, 0.03112983, "- N/A -   "
37.49, 1620.35, 0.06262131, NaN, NaN, NaN, 0.0286883, "- N/A -   "
37.53, 1622.139, 0.06268795, NaN, NaN, NaN, 0.0299091, "- N/A -   "
37.57, 1623.69, 0.06274904, NaN, NaN, NaN, 0.03112983, "- N/A -   "
37.61, 1625.36, 0.06280735, NaN, NaN, NaN, 0.0347922, "- N/A -   "
37.65, 1626.91, 0.06286566, NaN, NaN, NaN, 0.0384545, "- N/A -   "
37.69, 1628.46, 0.062924, NaN, NaN, NaN, 0.04211683, "- N/A -   "
37.73, 1630.13, 0.06298506, NaN, NaN, NaN, 0.0445584, "- N/A -   "
37.77, 1632.04, 0.06304615, NaN, NaN, NaN, 0.04699994, "- N/A -   "
37.81, 1633.71, 0.0631156, NaN, NaN, NaN, 0.04699994, "- N/A -   "
37.85, 1635.853, 0.06319054, NaN, NaN, NaN, 0.04211683, "- N/A -   "
37.89, 1638, 0.0632683, NaN, NaN, NaN, 0.0372337, "- N/A -   "
37.93, 1640.15, 0.0633433, NaN, NaN, NaN, 0.0335714, "- N/A -   "
37.97, 1642.17, 0.06341546, NaN, NaN, NaN, 0.03112983, "- N/A -   "
38.01, 1644.08, 0.06348488, NaN, NaN, NaN, 0.03112983, "- N/A -   "
38.05, 1646.11, 0.06355707, NaN, NaN, NaN, 0.0274675, "- N/A -   "
38.09, 1648.02, 0.06362372, NaN, NaN, NaN, 0.0274675, "- N/A -   "
38.13, 1649.92, 0.06369591, NaN, NaN, NaN, 0.0250259, "- N/A -   "
38.17, 1651.71, 0.06376255, NaN, NaN, NaN, 0.0250259, "- N/A -   "
38.21, 1653.383, 0.06382364, NaN, NaN, NaN, 0.0274675, "- N/A -   "
38.25, 1654.69, 0.06387085, NaN, NaN, NaN, 0.03601294, "- N/A -   "
38.29, 1656.13, 0.0639264, NaN, NaN, NaN, 0.04211683, "- N/A -   "
38.33, 1657.56, 0.06398469, NaN, NaN, NaN, 0.04577916, "- N/A -   "
38.37, 1659.46, 0.06404856, NaN, NaN, NaN, 0.04577916, "- N/A -   "
38.41, 1661.37, 0.06411798, NaN, NaN, NaN, 0.04577916, "- N/A -   "
38.45, 1663.16, 0.0641874, NaN, NaN, NaN, 0.0445584, "- N/A -   "
38.49, 1665.07, 0.06425126, NaN, NaN, NaN, 0.04577916, "- N/A -   "
38.53, 1666.86, 0.0643179, NaN, NaN, NaN, 0.0445584, "- N/A -   "
38.57, 1669.01, 0.0643901, NaN, NaN, NaN, 0.04211683, "- N/A -   "
38.61, 1671.39, 0.0644734, NaN, NaN, NaN, 0.0347922, "- N/A -   "
38.65, 1673.54, 0.06455115, NaN, NaN, NaN, 0.0299091, "- N/A -   "
38.69, 1675.564, 0.06462335, NaN, NaN, NaN, 0.0274675, "- N/A -   "
38.73, 1677.35, 0.06469, NaN, NaN, NaN, 0.0274675, "- N/A -   "
38.77, 1679.14, 0.06475385, NaN, NaN, NaN, 0.0286883, "- N/A -   "
38.81, 1680.57, 0.06480939, NaN, NaN, NaN, 0.0335714, "- N/A -   "
38.85, 1682.48, 0.0648733, NaN, NaN, NaN, 0.0347922, "- N/A -   "
38.89, 1684.15, 0.06493712, NaN, NaN, NaN, 0.03601294, "- N/A -   "
38.93, 1685.94, 0.06500376, NaN, NaN, NaN, 0.03601294, "- N/A -   "
38.97, 1687.73, 0.0650704, NaN, NaN, NaN, 0.0372337, "- N/A -   "
39.01, 1689.4, 0.06512872, NaN, NaN, NaN, 0.0396753, "- N/A -   "
39.05, 1691.07, 0.0651898, NaN, NaN, NaN, 0.0433376, "- N/A -   "
39.09, 1692.97, 0.06525645, NaN, NaN, NaN, 0.0433376, "- N/A -   "
39.13, 1694.64, 0.0653175, NaN, NaN, NaN, 0.0445584, "- N/A -   "
39.17, 1696.55, 0.06538973, NaN, NaN, NaN, 0.0433376, "- N/A -   "
39.21, 1698.82, 0.0654675, NaN, NaN, NaN, 0.0372337, "- N/A -   "
39.25, 1701.08, 0.06554523, NaN, NaN, NaN, 0.0323506, "- N/A -   "
39.29, 1702.992, 0.06561743, NaN, NaN, NaN, 0.03112983, "- N/A -   "
39.33, 1704.9, 0.06568407, NaN, NaN, NaN, 0.0299091, "- N/A -   "
39.37, 1706.57, 0.06574793, NaN, NaN, NaN, 0.0323506, "- N/A -   "
39.41, 1708.36, 0.0658118, NaN, NaN, NaN, 0.0323506, "- N/A -   "
39.45, 1709.91, 0.0658729, NaN, NaN, NaN, 0.0347922, "- N/A -   "
39.49, 1711.94, 0.0659423, NaN, NaN, NaN, 0.0335714, "- N/A -   "
39.53, 1713.84, 0.0660145, NaN, NaN, NaN, 0.03112983, "- N/A -   "
39.57, 1715.87, 0.0660811, NaN, NaN, NaN, 0.03112983, "- N/A -   "
39.61, 1717.42, 0.06613945, NaN, NaN, NaN, 0.0347922, "- N/A -   "
39.65, 1719.09, 0.06620332, NaN, NaN, NaN, 0.0372337, "- N/A -   "
39.69, 1720.64, 0.0662589, NaN, NaN, NaN, 0.04089605, "- N/A -   "
39.73, 1722.31, 0.06631994, NaN, NaN, NaN, 0.0433376, "- N/A -   "
39.77, 1724.46, 0.06639492, NaN, NaN, NaN, 0.0396753, "- N/A -   "
39.81, 1726.37, 0.0664671, NaN, NaN, NaN, 0.0384545, "- N/A -   "
39.85, 1728.154, 0.06653098, NaN, NaN, NaN, 0.04089605, "- N/A -   "
39.89, 1729.82, 0.06659484, NaN, NaN, NaN, 0.04089605, "- N/A -   "
39.93, 1731.97, 0.066667, NaN, NaN, NaN, 0.0396753, "- N/A -   "
39.97, 1733.76, 0.06673368, NaN, NaN, NaN, 0.0384545, "- N/A -   "
40.01, 1735.667, 0.0668003, NaN, NaN, NaN, 0.0384545, "- N/A -   "
40.05, 1737.46, 0.06686974, NaN, NaN, NaN, 0.0384545, "- N/A -   "
40.09, 1739.48, 0.06694194, NaN, NaN, NaN, 0.0347922, "- N/A -   "
40.13, 1741.51, 0.06701136, NaN, NaN, NaN, 0.0335714, "- N/A -   "
40.17, 1743.3, 0.06708077, NaN, NaN, NaN, 0.0323506, "- N/A -   "
40.21, 1745.21, 0.06714741, NaN, NaN, NaN, 0.0323506, "- N/A -   "
40.25, 1746.88, 0.0672113, NaN, NaN, NaN, 0.0335714, "- N/A -   "
40.29, 1748.67, 0.06727792, NaN, NaN, NaN, 0.0335714, "- N/A -   "
40.33, 1750.45, 0.06734456, NaN, NaN, NaN, 0.0335714, "- N/A -   "
40.37, 1752, 0.06740288, NaN, NaN, NaN, 0.0372337, "- N/A -   "
40.41, 1753.674, 0.067464, NaN, NaN, NaN, 0.04089605, "- N/A -   "
40.45, 1755.34, 0.06752505, NaN, NaN, NaN, 0.04211683, "- N/A -   "
40.49, 1757.25, 0.0675917, NaN, NaN, NaN, 0.04211683, "- N/A -   "
40.53, 1759.16, 0.06765834, NaN, NaN, NaN, 0.04211683, "- N/A -   "
40.57, 1760.95, 0.06772498, NaN, NaN, NaN, 0.0433376, "- N/A -   "
40.61, 1762.86, 0.0677944, NaN, NaN, NaN, 0.04211683, "- N/A -   "
40.65, 1765, 0.06787492, NaN, NaN, NaN, 0.03601294, "- N/A -   "
40.69, 1767.03, 0.06794712, NaN, NaN, NaN, 0.0335714, "- N/A -   "
40.73, 1768.94, 0.0680138, NaN, NaN, NaN, 0.0323506, "- N/A -   "
40.77, 1770.73, 0.0680804, NaN, NaN, NaN, 0.0323506, "- N/A -   "
40.81, 1772.52, 0.06814705, NaN, NaN, NaN, 0.0323506, "- N/A -   "
40.85, 1774.3, 0.06821369, NaN, NaN, NaN, 0.0323506, "- N/A -   "
40.89, 1776.33, 0.06828866, NaN, NaN, NaN, 0.0299091, "- N/A -   "
40.93, 1778.24, 0.0683553, NaN, NaN, NaN, 0.0299091, "- N/A -   "
40.97, 1779.91, 0.0684164, NaN, NaN, NaN, 0.03112983, "- N/A -   "
41.01, 1781.46, 0.06848025, NaN, NaN, NaN, 0.0335714, "- N/A -   "
41.05, 1783.01, 0.06853579, NaN, NaN, NaN, 0.0372337, "- N/A -   "
41.09, 1784.441, 0.06858855, NaN, NaN, NaN, 0.0433376, "- N/A -   "
41.13, 1785.99, 0.06864964, NaN, NaN, NaN, 0.04577916, "- N/A -   "
41.17, 1787.78, 0.0687135, NaN, NaN, NaN, 0.04699994, "- N/A -   "
41.21, 1789.688, 0.06878015, NaN, NaN, NaN, 0.0482207, "- N/A -   "
41.25, 1791.6, 0.06885234, NaN, NaN, NaN, 0.0445584, "- N/A -   "
41.29, 1793.74, 0.06892731, NaN, NaN, NaN, 0.04089605, "- N/A -   "
41.33, 1795.89, 0.0690051, NaN, NaN, NaN, 0.0372337, "- N/A -   "
41.37, 1797.68, 0.06907448, NaN, NaN, NaN, 0.0347922, "- N/A -   "
41.41, 1799.35, 0.06913835, NaN, NaN, NaN, 0.03601294, "- N/A -   "
41.45, 1801.37, 0.0692105, NaN, NaN, NaN, 0.0335714, "- N/A -   "
41.49, 1803.4, 0.06928551, NaN, NaN, NaN, 0.03112983, "- N/A -   "
41.53, 1805.19, 0.06934661, NaN, NaN, NaN, 0.0323506, "- N/A -   "
41.57, 1807.34, 0.0694216, NaN, NaN, NaN, 0.0286883, "- N/A -   "
41.61, 1809.01, 0.06948544, NaN, NaN, NaN, 0.0299091, "- N/A -   "
41.65, 1810.44, 0.06954375, NaN, NaN, NaN, 0.0335714, "- N/A -   "
41.69, 1812.23, 0.0696076, NaN, NaN, NaN, 0.03601294, "- N/A -   "
41.73, 1813.66, 0.06966315, NaN, NaN, NaN, 0.0396753, "- N/A -   "
41.77, 1815.208, 0.06972424, NaN, NaN, NaN, 0.04211683, "- N/A -   "
41.81, 1817, 0.0697881, NaN, NaN, NaN, 0.0433376, "- N/A -   "
41.85, 1818.9, 0.0698603, NaN, NaN, NaN, 0.04089605, "- N/A -   "
41.89, 1820.69, 0.06992695, NaN, NaN, NaN, 0.04089605, "- N/A -   "
41.93, 1822.721, 0.0699964, NaN, NaN, NaN, 0.0396753, "- N/A -   "
41.97, 1824.63, 0.07006578, NaN, NaN, NaN, 0.0384545, "- N/A -   "
42.01, 1826.54, 0.07013798, NaN, NaN, NaN, 0.03601294, "- N/A -   "
42.05, 1828.8, 0.0702185, NaN, NaN, NaN, 0.0299091, "- N/A -   "
42.09, 1830.59, 0.07028792, NaN, NaN, NaN, 0.0286883, "- N/A -   "
42.13, 1832.5, 0.0703546, NaN, NaN, NaN, 0.0286883, "- N/A -   "
42.17, 1834.29, 0.07042398, NaN, NaN, NaN, 0.0274675, "- N/A -   "
42.21, 1835.96, 0.0704823, NaN, NaN, NaN, 0.03112983, "- N/A -   "
42.25, 1837.508, 0.07054616, NaN, NaN, NaN, 0.0335714, "- N/A -   "
42.29, 1839.18, 0.07060447, NaN, NaN, NaN, 0.03601294, "- N/A -   "
42.33, 1840.85, 0.07066834, NaN, NaN, NaN, 0.0372337, "- N/A -   "
42.37, 1842.636, 0.07073498, NaN, NaN, NaN, 0.0384545, "- N/A -   "
42.41, 1844.42, 0.0707961, NaN, NaN, NaN, 0.0396753, "- N/A -   "
42.45, 1845.86, 0.07085716, NaN, NaN, NaN, 0.04211683, "- N/A -   "
42.49, 1847.53, 0.07091825, NaN, NaN, NaN, 0.04577916, "- N/A -   "
42.53, 1849.31, 0.0709821, NaN, NaN, NaN, 0.04577916, "- N/A -   "
42.57, 1851.222, 0.0710543, NaN, NaN, NaN, 0.0445584, "- N/A -   "
42.61, 1853.49, 0.07113206, NaN, NaN, NaN, 0.0396753, "- N/A -   "
42.65, 1855.52, 0.071207, NaN, NaN, NaN, 0.03601294, "- N/A -   "
42.69, 1857.42, 0.07127645, NaN, NaN, NaN, 0.0335714, "- N/A -   "
42.73, 1859.45, 0.0713486, NaN, NaN, NaN, 0.03112983, "- N/A -   "
42.77, 1861, 0.0714125, NaN, NaN, NaN, 0.0335714, "- N/A -   "
42.81, 1862.551, 0.07147082, NaN, NaN, NaN, 0.03601294, "- N/A -   "
42.85, 1864.34, 0.07153191, NaN, NaN, NaN, 0.0384545, "- N/A -   "
42.89, 1866.13, 0.07159855, NaN, NaN, NaN, 0.0384545, "- N/A -   "
42.93, 1868.16, 0.0716763, NaN, NaN, NaN, 0.0335714, "- N/A -   "
42.97, 1870.18, 0.0717457, NaN, NaN, NaN, 0.0323506, "- N/A -   "
43.01, 1871.85, 0.07181236, NaN, NaN, NaN, 0.0335714, "- N/A -   "
43.05, 1873.64, 0.07187622, NaN, NaN, NaN, 0.0335714, "- N/A -   "
43.09, 1875.31, 0.0719345, NaN, NaN, NaN, 0.0372337, "- N/A -   "
43.13, 1876.86, 0.07199562, NaN, NaN, NaN, 0.0396753, "- N/A -   "
43.17, 1878.65, 0.07205949, NaN, NaN, NaN, 0.04089605, "- N/A -   "
43.21, 1880.44, 0.07212613, NaN, NaN, NaN, 0.04089605, "- N/A -   "
43.25, 1882.23, 0.07219555, NaN, NaN, NaN, 0.04089605, "- N/A -   "
43.29, 1884.14, 0.07226219, NaN, NaN, NaN, 0.0396753, "- N/A -   "
43.33, 1886.16, 0.0723372, NaN, NaN, NaN, 0.0372337, "- N/A -   "
43.37, 1888.07, 0.07240103, NaN, NaN, NaN, 0.0372337, "- N/A -   "
43.41, 1889.979, 0.072476, NaN, NaN, NaN, 0.0347922, "- N/A -   "
43.45, 1892.01, 0.0725482, NaN, NaN, NaN, 0.03112983, "- N/A -   "
43.49, 1893.68, 0.07261761, NaN, NaN, NaN, 0.03112983, "- N/A -   "
43.53, 1895.46, 0.07268148, NaN, NaN, NaN, 0.03112983, "- N/A -   "
43.57, 1897.25, 0.0727453, NaN, NaN, NaN, 0.0323506, "- N/A -   "
43.61, 1899.04, 0.07280921, NaN, NaN, NaN, 0.0335714, "- N/A -   "
43.65, 1900.83, 0.07287586, NaN, NaN, NaN, 0.0335714, "- N/A -   "
43.69, 1902.5, 0.0729425, NaN, NaN, NaN, 0.0347922, "- N/A -   "
43.73, 1904.05, 0.07300358, NaN, NaN, NaN, 0.0372337, "- N/A -   "
43.77, 1905.72, 0.07306745, NaN, NaN, NaN, 0.0372337, "- N/A -   "
43.81, 1907.509, 0.0731313, NaN, NaN, NaN, 0.0396753, "- N/A -   "
43.85, 1909.18, 0.07319518, NaN, NaN, NaN, 0.0396753, "- N/A -   "
43.89, 1910.97, 0.07325905, NaN, NaN, NaN, 0.04089605, "- N/A -   "
43.93, 1912.52, 0.0733201, NaN, NaN, NaN, 0.0433376, "- N/A -   "
43.97, 1914.43, 0.07338677, NaN, NaN, NaN, 0.0433376, "- N/A -   "
44.01, 1916.33, 0.0734562, NaN, NaN, NaN, 0.04211683, "- N/A -   "
44.05, 1918.48, 0.0735339, NaN, NaN, NaN, 0.0384545, "- N/A -   "
44.09, 1920.63, 0.07360892, NaN, NaN, NaN, 0.0335714, "- N/A -   "
44.13, 1922.42, 0.07367834, NaN, NaN, NaN, 0.0323506, "- N/A -   "
44.17, 1924.085, 0.0737422, NaN, NaN, NaN, 0.0335714, "- N/A -   "
44.21, 1925.75, 0.07380884, NaN, NaN, NaN, 0.0335714, "- N/A -   "
44.25, 1927.66, 0.07387549, NaN, NaN, NaN, 0.0335714, "- N/A -   "
44.29, 1929.69, 0.0739505, NaN, NaN, NaN, 0.0299091, "- N/A -   "
44.33, 1931.48, 0.07401988, NaN, NaN, NaN, 0.0286883, "- N/A -   "
44.363, 1933.03, 0.07407541, NaN, NaN, NaN, 0.0299091, "- N/A -   "