File: 2_Tensile_Data/Hamel_ForceTest_Bolt5_Test11.csv
Time, Load (lb), Position (in), AxialStrain (in), TransverseStrain (in), Auxiliary (), Control Out (V), Stress (psi)
0.0, 14.3896, 0.0, NaN, NaN, NaN, -0.007935055, "- N/A -   "
0.01, 14.2716, 0.0, NaN, NaN, NaN, -6.103888E-4, "- N/A -   "
0.02, 14.2716, 0.0, NaN, NaN, NaN, 0.0140389, "- N/A -   "
0.03, 14.3896, 2.776752E-6, NaN, NaN, NaN, 0.0323506, "- N/A -   "
0.04, 14.5075, 1.1107e-05, NaN, NaN, NaN, 0.0494415, "- N/A -   "
0.05, 14.7434, 2.2214e-05, NaN, NaN, NaN, 0.06287005, "- N/A -   "
0.06, 14.9793, 3.88745e-05, NaN, NaN, NaN, 0.0750778, "- N/A -   "
0.07, 15.4511, 6.108854E-5, NaN, NaN, NaN, 0.084844, "- N/A -   "
0.08, 15.9229, 8.885606E-5, NaN, NaN, NaN, 0.09338949, "- N/A -   "
0.09, 16.5126, 0.000116624, NaN, NaN, NaN, 0.09949338, "- N/A -   "
0.1, 17.2203, 1.499446E-4, NaN, NaN, NaN, 0.09949338, "- N/A -   "
0.11, 17.8101, 0.000180489, NaN, NaN, NaN, 0.09216871, "- N/A -   "
0.12, 18.2819, 2.138099E-4, NaN, NaN, NaN, 0.084844, "- N/A -   "
0.13, 18.7536, 0.000244354, NaN, NaN, NaN, 0.0799609, "- N/A -   "
0.14, 19.3434, 0.000269345, NaN, NaN, NaN, 0.0750778, "- N/A -   "
0.15, 19.6972, 0.000294336, NaN, NaN, NaN, 0.07263627, "- N/A -   "
0.16, 20.05107, 3.165497E-4, NaN, NaN, NaN, 0.0701947, "- N/A -   "
0.17, 20.4049, 0.000335987, NaN, NaN, NaN, 0.06775316, "- N/A -   "
0.18, 20.8767, 0.000358201, NaN, NaN, NaN, 0.06653238, "- N/A -   "
0.19, 21.1126, 0.000377638, NaN, NaN, NaN, 0.0653116, "- N/A -   "
0.2, 21.46644, 0.000394299, NaN, NaN, NaN, 0.0640908, "- N/A -   "
0.21, 21.7023, 0.000410959, NaN, NaN, NaN, 0.0640908, "- N/A -   "
0.22, 22.0562, 0.000430397, NaN, NaN, NaN, 0.06287005, "- N/A -   "
0.23, 22.41, 0.000449834, NaN, NaN, NaN, 0.06287005, "- N/A -   "
0.24, 22.6459, 4.664943E-4, NaN, NaN, NaN, 0.06164927, "- N/A -   "
0.25, 22.88181, 0.000485932, NaN, NaN, NaN, 0.06164927, "- N/A -   "
0.26, 23.2357, 0.000502592, NaN, NaN, NaN, 0.06164927, "- N/A -   "
0.27, 23.5895, 5.192526E-4, NaN, NaN, NaN, 0.0604285, "- N/A -   "
0.28, 23.82539, 5.414666E-4, NaN, NaN, NaN, 0.0592077, "- N/A -   "
0.29, 24.1792, 5.581271E-4, NaN, NaN, NaN, 0.0579869, "- N/A -   "
0.3, 24.5331, 0.000580341, NaN, NaN, NaN, 0.0555454, "- N/A -   "
0.31, 25.0049, 5.997784E-4, NaN, NaN, NaN, 0.0543246, "- N/A -   "
0.32, 25.2408, 0.000624769, NaN, NaN, NaN, 0.05188305, "- N/A -   "
0.33, 25.7125, 6.442064E-4, NaN, NaN, NaN, 0.0494415, "- N/A -   "
0.34, 25.9484, 0.00066642, NaN, NaN, NaN, 0.04699994, "- N/A -   "
0.35, 26.3023, 6.858577E-4, NaN, NaN, NaN, 0.04577916, "- N/A -   "
0.36, 26.6561, 0.000705295, NaN, NaN, NaN, 0.0445584, "- N/A -   "
0.37, 26.892, 0.000724732, NaN, NaN, NaN, 0.0433376, "- N/A -   "
0.38, 27.2459, 0.000744169, NaN, NaN, NaN, 0.04211683, "- N/A -   "
0.39, 27.5997, 0.000763607, NaN, NaN, NaN, 0.04211683, "- N/A -   "
0.4, 27.8356, 0.000783044, NaN, NaN, NaN, 0.0396753, "- N/A -   "
0.41, 28.3074, 7.997045E-4, NaN, NaN, NaN, 0.0396753, "- N/A -   "
0.42, 28.54329, 8.191418E-4, NaN, NaN, NaN, 0.0396753, "- N/A -   "
0.43, 28.7792, 8.358023E-4, NaN, NaN, NaN, 0.0384545, "- N/A -   "
0.44, 29.0151, 8.524628E-4, NaN, NaN, NaN, 0.0396753, "- N/A -   "
0.45, 29.251, 8.663466E-4, NaN, NaN, NaN, 0.0396753, "- N/A -   "
0.46, 29.6048, 8.857838E-4, NaN, NaN, NaN, 0.0396753, "- N/A -   "
0.47, 29.84071, 0.000902444, NaN, NaN, NaN, 0.0384545, "- N/A -   "
0.48, 30.0766, 9.218816E-4, NaN, NaN, NaN, 0.0384545, "- N/A -   "
0.49, 30.5484, 0.000941319, NaN, NaN, NaN, 0.03601294, "- N/A -   "
0.5, 30.78429, 0.000957979, NaN, NaN, NaN, 0.03601294, "- N/A -   "
0.51, 31.0202, 9.774166E-4, NaN, NaN, NaN, 0.0347922, "- N/A -   "
0.52, 31.374, 9.940772E-4, NaN, NaN, NaN, 0.0347922, "- N/A -   "
0.53, 31.72787, 0.00101351, NaN, NaN, NaN, 0.0335714, "- N/A -   "
0.55, 32.3176, 0.00104961, NaN, NaN, NaN, 0.0323506, "- N/A -   "
0.57, 32.9073, 0.00108571, NaN, NaN, NaN, 0.03112983, "- N/A -   "
0.59, 33.49708, 0.001119031, NaN, NaN, NaN, 0.03112983, "- N/A -   "
0.61, 34.08682, 0.00115513, NaN, NaN, NaN, 0.0299091, "- N/A -   "
0.63, 34.55861, 0.00118845, NaN, NaN, NaN, 0.0299091, "- N/A -   "
0.65, 35.1483, 0.001218994, NaN, NaN, NaN, 0.03112983, "- N/A -   "
0.67, 35.6201, 0.00124954, NaN, NaN, NaN, 0.0323506, "- N/A -   "
0.69, 36.0919, 0.00127731, NaN, NaN, NaN, 0.0347922, "- N/A -   "
0.71, 36.6817, 0.00131063, NaN, NaN, NaN, 0.03601294, "- N/A -   "
0.73, 37.3893, 0.00134395, NaN, NaN, NaN, 0.0347922, "- N/A -   "
0.75, 37.6252, 0.00137172, NaN, NaN, NaN, 0.0372337, "- N/A -   "
0.77, 38.097, 0.00139671, NaN, NaN, NaN, 0.04089605, "- N/A -   "
0.79, 38.5688, 0.00142725, NaN, NaN, NaN, 0.0433376, "- N/A -   "
0.81, 39.04061, 0.001455018, NaN, NaN, NaN, 0.0445584, "- N/A -   "
0.83, 39.6304, 0.00148834, NaN, NaN, NaN, 0.0445584, "- N/A -   "
0.85, 40.22009, 0.00152444, NaN, NaN, NaN, 0.0433376, "- N/A -   "
0.87, 40.9278, 0.00155776, NaN, NaN, NaN, 0.0433376, "- N/A -   "
0.89, 41.51751, 0.00159386, NaN, NaN, NaN, 0.0433376, "- N/A -   "
0.91, 42.1072, 0.00162718, NaN, NaN, NaN, 0.0433376, "- N/A -   "
0.93, 42.4611, 0.0016605, NaN, NaN, NaN, 0.0433376, "- N/A -   "
0.95, 43.1688, 0.00169382, NaN, NaN, NaN, 0.04211683, "- N/A -   "
0.97, 43.87646, 0.00172714, NaN, NaN, NaN, 0.04211683, "- N/A -   "
0.99, 44.34825, 0.00176324, NaN, NaN, NaN, 0.04089605, "- N/A -   "
1.01, 45.05593, 0.00179656, NaN, NaN, NaN, 0.04089605, "- N/A -   "
1.03, 45.6457, 0.00182988, NaN, NaN, NaN, 0.04089605, "- N/A -   "
1.05, 46.3534, 0.00186875, NaN, NaN, NaN, 0.0384545, "- N/A -   "
1.07, 46.9431, 0.00191041, NaN, NaN, NaN, 0.03601294, "- N/A -   "
1.09, 47.7687, 0.00194928, NaN, NaN, NaN, 0.0323506, "- N/A -   "
1.11, 48.3585, 0.00198815, NaN, NaN, NaN, 0.0299091, "- N/A -   "
1.13, 49.1841, 0.002024252, NaN, NaN, NaN, 0.0286883, "- N/A -   "
1.15, 49.6559, 0.00206035, NaN, NaN, NaN, 0.0286883, "- N/A -   "
1.17, 50.3636, 0.002093671, NaN, NaN, NaN, 0.0274675, "- N/A -   "
1.19, 50.9533, 0.002126992, NaN, NaN, NaN, 0.0286883, "- N/A -   "
1.21, 51.4251, 0.00216031, NaN, NaN, NaN, 0.0286883, "- N/A -   "
1.23, 52.01483, 0.00219086, NaN, NaN, NaN, 0.0286883, "- N/A -   "
1.25, 52.6046, 0.0022214, NaN, NaN, NaN, 0.0299091, "- N/A -   "
1.27, 53.19431, 0.002249169, NaN, NaN, NaN, 0.0323506, "- N/A -   "
1.29, 53.6661, 0.00227971, NaN, NaN, NaN, 0.0347922, "- N/A -   "
1.31, 54.2558, 0.00231026, NaN, NaN, NaN, 0.0347922, "- N/A -   "
1.33, 54.8456, 0.00234358, NaN, NaN, NaN, 0.03601294, "- N/A -   "
1.35, 55.43531, 0.002371346, NaN, NaN, NaN, 0.0372337, "- N/A -   "
1.37, 56.02505, 0.002404667, NaN, NaN, NaN, 0.0372337, "- N/A -   "
1.39, 56.73273, 0.00244076, NaN, NaN, NaN, 0.03601294, "- N/A -   "
1.41, 57.20452, 0.00247409, NaN, NaN, NaN, 0.03601294, "- N/A -   "
1.43, 57.79426, 0.00250741, NaN, NaN, NaN, 0.03601294, "- N/A -   "
1.45, 58.6199, 0.00254073, NaN, NaN, NaN, 0.03601294, "- N/A -   "
1.47, 59.0917, 0.00257127, NaN, NaN, NaN, 0.0372337, "- N/A -   "
1.49, 59.68142, 0.00260182, NaN, NaN, NaN, 0.0384545, "- N/A -   "
1.51, 60.15321, 0.002629584, NaN, NaN, NaN, 0.04211683, "- N/A -   "
1.53, 60.7429, 0.00266013, NaN, NaN, NaN, 0.04211683, "- N/A -   "
1.55, 61.3327, 0.00269067, NaN, NaN, NaN, 0.0433376, "- N/A -   "
1.57, 61.9224, 0.00272122, NaN, NaN, NaN, 0.0445584, "- N/A -   "
1.59, 62.3942, 0.00275454, NaN, NaN, NaN, 0.0445584, "- N/A -   "
1.61, 63.2198, 0.00278786, NaN, NaN, NaN, 0.04577916, "- N/A -   "
1.63, 63.6916, 0.0028184, NaN, NaN, NaN, 0.04699994, "- N/A -   "
1.65, 64.3993, 0.002851724, NaN, NaN, NaN, 0.04577916, "- N/A -   "
1.67, 65.107, 0.0028906, NaN, NaN, NaN, 0.0433376, "- N/A -   "
1.69, 65.93263, 0.00293225, NaN, NaN, NaN, 0.0396753, "- N/A -   "
1.71, 66.87622, 0.002973901, NaN, NaN, NaN, 0.0372337, "- N/A -   "
1.73, 67.5839, 0.003012776, NaN, NaN, NaN, 0.0335714, "- N/A -   "
1.75, 68.40953, 0.00305165, NaN, NaN, NaN, 0.03112983, "- N/A -   "
1.77, 69.11722, 0.003087748, NaN, NaN, NaN, 0.0299091, "- N/A -   "
1.79, 69.707, 0.003121069, NaN, NaN, NaN, 0.0299091, "- N/A -   "
1.81, 70.17874, 0.003151613, NaN, NaN, NaN, 0.0323506, "- N/A -   "
1.83, 70.7685, 0.003179381, NaN, NaN, NaN, 0.0335714, "- N/A -   "
1.85, 71.3582, 0.003209925, NaN, NaN, NaN, 0.03601294, "- N/A -   "
1.87, 71.94796, 0.00324047, NaN, NaN, NaN, 0.03601294, "- N/A -   "
1.89, 72.65564, 0.00327379, NaN, NaN, NaN, 0.03601294, "- N/A -   "
1.91, 73.36333, 0.00330711, NaN, NaN, NaN, 0.0372337, "- N/A -   "
1.93, 73.9531, 0.003337656, NaN, NaN, NaN, 0.0372337, "- N/A -   "
1.95, 74.7787, 0.00337375, NaN, NaN, NaN, 0.03601294, "- N/A -   "
1.97, 75.36844, 0.003409851, NaN, NaN, NaN, 0.0347922, "- N/A -   "
1.99, 76.19407, 0.00344873, NaN, NaN, NaN, 0.0323506, "- N/A -   "
2.01, 76.90175, 0.003482047, NaN, NaN, NaN, 0.0323506, "- N/A -   "
2.03, 77.6094, 0.003515368, NaN, NaN, NaN, 0.0323506, "- N/A -   "
2.05, 78.31712, 0.00354869, NaN, NaN, NaN, 0.0335714, "- N/A -   "
2.07, 78.90686, 0.00357923, NaN, NaN, NaN, 0.0347922, "- N/A -   "
2.09, 79.61454, 0.00360978, NaN, NaN, NaN, 0.0347922, "- N/A -   "
2.11, 80.0863, 0.00364032, NaN, NaN, NaN, 0.03601294, "- N/A -   "
2.13, 80.794, 0.00367364, NaN, NaN, NaN, 0.03601294, "- N/A -   "
2.15, 81.5017, 0.00370419, NaN, NaN, NaN, 0.0384545, "- N/A -   "
2.17, 82.09144, 0.00372918, NaN, NaN, NaN, 0.04211683, "- N/A -   "
2.19, 82.68118, 0.00375972, NaN, NaN, NaN, 0.0433376, "- N/A -   "
2.21, 83.38886, 0.00379027, NaN, NaN, NaN, 0.0433376, "- N/A -   "
2.23, 84.09654, 0.00382636, NaN, NaN, NaN, 0.04211683, "- N/A -   "
2.25, 84.92217, 0.00386802, NaN, NaN, NaN, 0.0396753, "- N/A -   "
2.27, 85.62987, 0.00390134, NaN, NaN, NaN, 0.0384545, "- N/A -   "
2.29, 86.4555, 0.00393466, NaN, NaN, NaN, 0.0384545, "- N/A -   "
2.31, 87.04523, 0.00397076, NaN, NaN, NaN, 0.0384545, "- N/A -   "
2.33, 87.75292, 0.0040013, NaN, NaN, NaN, 0.0384545, "- N/A -   "
2.35, 88.4606, 0.0040374, NaN, NaN, NaN, 0.0384545, "- N/A -   "
2.37, 89.40418, 0.00407349, NaN, NaN, NaN, 0.03601294, "- N/A -   "
2.39, 90.11186, 0.00410959, NaN, NaN, NaN, 0.0347922, "- N/A -   "
2.41, 90.81956, 0.00414291, NaN, NaN, NaN, 0.0347922, "- N/A -   "
2.43, 91.52724, 0.004176235, NaN, NaN, NaN, 0.0347922, "- N/A -   "
2.45, 92.23492, 0.00420956, NaN, NaN, NaN, 0.03601294, "- N/A -   "
2.47, 93.0606, 0.00424288, NaN, NaN, NaN, 0.0347922, "- N/A -   "
2.49, 93.76824, 0.00427897, NaN, NaN, NaN, 0.0347922, "- N/A -   "
2.51, 94.47592, 0.004312296, NaN, NaN, NaN, 0.0335714, "- N/A -   "
2.53, 95.30156, 0.00434839, NaN, NaN, NaN, 0.0323506, "- N/A -   "
2.55, 96.00924, 0.004384491, NaN, NaN, NaN, 0.03112983, "- N/A -   "
2.57, 96.95282, 0.00442059, NaN, NaN, NaN, 0.0299091, "- N/A -   "
2.59, 97.6605, 0.004456687, NaN, NaN, NaN, 0.0299091, "- N/A -   "
2.61, 98.3682, 0.00449001, NaN, NaN, NaN, 0.0286883, "- N/A -   "
2.63, 99.0759, 0.004520552, NaN, NaN, NaN, 0.0299091, "- N/A -   "
2.65, 99.7836, 0.004551096, NaN, NaN, NaN, 0.03112983, "- N/A -   "
2.67, 100.3733, 0.004581641, NaN, NaN, NaN, 0.0335714, "- N/A -   "
2.69, 101.081, 0.004612185, NaN, NaN, NaN, 0.0335714, "- N/A -   "
2.71, 101.671, 0.004645506, NaN, NaN, NaN, 0.0335714, "- N/A -   "
2.73, 102.496, 0.00467605, NaN, NaN, NaN, 0.0347922, "- N/A -   "
2.75, 103.322, 0.004712148, NaN, NaN, NaN, 0.0347922, "- N/A -   "
2.77, 104.03, 0.004745469, NaN, NaN, NaN, 0.0347922, "- N/A -   "
2.79, 104.855, 0.00477879, NaN, NaN, NaN, 0.0335714, "- N/A -   "
2.81, 105.445, 0.004814888, NaN, NaN, NaN, 0.0335714, "- N/A -   "
2.83, 106.153, 0.004845432, NaN, NaN, NaN, 0.0347922, "- N/A -   "
2.85, 106.86, 0.0048732, NaN, NaN, NaN, 0.0372337, "- N/A -   "
2.87, 107.3322, 0.00490097, NaN, NaN, NaN, 0.0384545, "- N/A -   "
2.89, 108.158, 0.00493151, NaN, NaN, NaN, 0.0396753, "- N/A -   "
2.91, 108.866, 0.004964832, NaN, NaN, NaN, 0.0396753, "- N/A -   "
2.93, 109.5732, 0.004998153, NaN, NaN, NaN, 0.04089605, "- N/A -   "
2.95, 110.281, 0.00503147, NaN, NaN, NaN, 0.04089605, "- N/A -   "
2.97, 110.989, 0.00505924, NaN, NaN, NaN, 0.04211683, "- N/A -   "
2.99, 111.696, 0.00508979, NaN, NaN, NaN, 0.0433376, "- N/A -   "
3.01, 112.286, 0.00511755, NaN, NaN, NaN, 0.04577916, "- N/A -   "
3.03, 112.994, 0.00515087, NaN, NaN, NaN, 0.04577916, "- N/A -   "
3.05, 113.819, 0.0051842, NaN, NaN, NaN, 0.04699994, "- N/A -   "
3.07, 114.645, 0.00521752, NaN, NaN, NaN, 0.04577916, "- N/A -   "
3.09, 115.589, 0.005256391, NaN, NaN, NaN, 0.0433376, "- N/A -   "
3.11, 116.414, 0.00529804, NaN, NaN, NaN, 0.0396753, "- N/A -   "
3.13, 117.358, 0.00533692, NaN, NaN, NaN, 0.0372337, "- N/A -   "
3.15, 118.183, 0.00537579, NaN, NaN, NaN, 0.03601294, "- N/A -   "
3.17, 119.127, 0.00541189, NaN, NaN, NaN, 0.0347922, "- N/A -   "
3.19, 119.953, 0.00544521, NaN, NaN, NaN, 0.0335714, "- N/A -   "
3.21, 120.542, 0.00547853, NaN, NaN, NaN, 0.0347922, "- N/A -   "
3.23, 121.368, 0.00550908, NaN, NaN, NaN, 0.0347922, "- N/A -   "
3.25, 122.194, 0.0055424, NaN, NaN, NaN, 0.0347922, "- N/A -   "
3.27, 122.901, 0.00557572, NaN, NaN, NaN, 0.0347922, "- N/A -   "
3.29, 123.7269, 0.00560904, NaN, NaN, NaN, 0.0347922, "- N/A -   "
3.31, 124.435, 0.00564236, NaN, NaN, NaN, 0.0347922, "- N/A -   "
3.33, 125.26, 0.005681234, NaN, NaN, NaN, 0.0335714, "- N/A -   "
3.35, 126.204, 0.00572011, NaN, NaN, NaN, 0.0299091, "- N/A -   "
3.37, 127.147, 0.00575343, NaN, NaN, NaN, 0.0299091, "- N/A -   "
3.39, 127.973, 0.005792304, NaN, NaN, NaN, 0.0274675, "- N/A -   "
3.41, 128.799, 0.005825625, NaN, NaN, NaN, 0.0274675, "- N/A -   "
3.43, 129.506, 0.00585617, NaN, NaN, NaN, 0.0286883, "- N/A -   "
3.45, 129.978, 0.005883937, NaN, NaN, NaN, 0.03112983, "- N/A -   "
3.47, 130.804, 0.0059117, NaN, NaN, NaN, 0.0335714, "- N/A -   "
3.49, 131.393, 0.00594225, NaN, NaN, NaN, 0.0347922, "- N/A -   "
3.51, 132.101, 0.005972793, NaN, NaN, NaN, 0.03601294, "- N/A -   "
3.53, 132.6909, 0.00600056, NaN, NaN, NaN, 0.0384545, "- N/A -   "
3.55, 133.399, 0.006028328, NaN, NaN, NaN, 0.04089605, "- N/A -   "
3.57, 133.988, 0.006056096, NaN, NaN, NaN, 0.0433376, "- N/A -   "
3.59, 134.696, 0.00608664, NaN, NaN, NaN, 0.0445584, "- N/A -   "
3.61, 135.4037, 0.006117184, NaN, NaN, NaN, 0.04577916, "- N/A -   "
3.63, 136.229, 0.006150505, NaN, NaN, NaN, 0.04699994, "- N/A -   "
3.65, 137.173, 0.00618383, NaN, NaN, NaN, 0.04699994, "- N/A -   "
3.67, 137.8806, 0.006217147, NaN, NaN, NaN, 0.0482207, "- N/A -   "
3.69, 138.706, 0.006250468, NaN, NaN, NaN, 0.04699994, "- N/A -   "
3.71, 139.65, 0.006289343, NaN, NaN, NaN, 0.04577916, "- N/A -   "
3.73, 140.475, 0.00632544, NaN, NaN, NaN, 0.0433376, "- N/A -   "
3.75, 141.419, 0.006361538, NaN, NaN, NaN, 0.04211683, "- N/A -   "
3.77, 142.3626, 0.006400413, NaN, NaN, NaN, 0.0396753, "- N/A -   "
3.79, 143.306, 0.00644206, NaN, NaN, NaN, 0.03601294, "- N/A -   "
3.81, 144.25, 0.006478162, NaN, NaN, NaN, 0.0347922, "- N/A -   "
3.83, 145.0754, 0.00651426, NaN, NaN, NaN, 0.0347922, "- N/A -   "
3.85, 145.783, 0.00654758, NaN, NaN, NaN, 0.0335714, "- N/A -   "
3.87, 146.727, 0.0065809, NaN, NaN, NaN, 0.0335714, "- N/A -   "
3.89, 147.434, 0.006617, NaN, NaN, NaN, 0.0323506, "- N/A -   "
3.91, 148.26, 0.006655874, NaN, NaN, NaN, 0.03112983, "- N/A -   "
3.93, 149.3215, 0.00669197, NaN, NaN, NaN, 0.0299091, "- N/A -   "
3.95, 150.147, 0.00672807, NaN, NaN, NaN, 0.0274675, "- N/A -   "
3.97, 150.855, 0.00676139, NaN, NaN, NaN, 0.0274675, "- N/A -   "
3.99, 151.798, 0.00679471, NaN, NaN, NaN, 0.0286883, "- N/A -   "
4.01, 152.624, 0.00682803, NaN, NaN, NaN, 0.0274675, "- N/A -   "
4.03, 153.332, 0.00686135, NaN, NaN, NaN, 0.0286883, "- N/A -   "
4.05, 154.0394, 0.00688912, NaN, NaN, NaN, 0.0299091, "- N/A -   "
4.07, 154.747, 0.00691967, NaN, NaN, NaN, 0.03112983, "- N/A -   "
4.09, 155.455, 0.006947433, NaN, NaN, NaN, 0.0335714, "- N/A -   "
4.11, 156.162, 0.006977977, NaN, NaN, NaN, 0.0347922, "- N/A -   "
4.13, 156.752, 0.00700852, NaN, NaN, NaN, 0.03601294, "- N/A -   "
4.15, 157.46, 0.00703907, NaN, NaN, NaN, 0.0372337, "- N/A -   "
4.17, 158.168, 0.00706961, NaN, NaN, NaN, 0.0384545, "- N/A -   "
4.19, 158.9932, 0.00709738, NaN, NaN, NaN, 0.04089605, "- N/A -   "
4.21, 159.701, 0.00712792, NaN, NaN, NaN, 0.04211683, "- N/A -   "
4.23, 160.2906, 0.00715847, NaN, NaN, NaN, 0.0433376, "- N/A -   "
4.25, 161.116, 0.00719179, NaN, NaN, NaN, 0.0433376, "- N/A -   "
4.27, 161.942, 0.00722233, NaN, NaN, NaN, 0.0445584, "- N/A -   "
4.29, 162.65, 0.00725565, NaN, NaN, NaN, 0.0445584, "- N/A -   "
4.31, 163.475, 0.007288974, NaN, NaN, NaN, 0.0445584, "- N/A -   "
4.33, 164.301, 0.00731674, NaN, NaN, NaN, 0.04699994, "- N/A -   "
4.35, 165.009, 0.00735284, NaN, NaN, NaN, 0.04699994, "- N/A -   "
4.37, 165.834, 0.00738616, NaN, NaN, NaN, 0.04577916, "- N/A -   "
4.39, 166.66, 0.007419481, NaN, NaN, NaN, 0.04577916, "- N/A -   "
4.41, 167.485, 0.007452802, NaN, NaN, NaN, 0.04577916, "- N/A -   "
4.43, 168.429, 0.0074889, NaN, NaN, NaN, 0.0445584, "- N/A -   "
4.45, 169.137, 0.00752222, NaN, NaN, NaN, 0.0445584, "- N/A -   "
4.47, 170.08, 0.007561095, NaN, NaN, NaN, 0.04211683, "- N/A -   "
4.49, 171.142, 0.00760275, NaN, NaN, NaN, 0.0384545, "- N/A -   "
4.51, 172.203, 0.0076444, NaN, NaN, NaN, 0.0347922, "- N/A -   "
4.53, 173.1469, 0.007683272, NaN, NaN, NaN, 0.0323506, "- N/A -   "
4.55, 174.09, 0.007722147, NaN, NaN, NaN, 0.0299091, "- N/A -   "
4.57, 174.9161, 0.007755468, NaN, NaN, NaN, 0.0299091, "- N/A -   "
4.59, 175.742, 0.007788789, NaN, NaN, NaN, 0.03112983, "- N/A -   "
4.61, 176.449, 0.00782211, NaN, NaN, NaN, 0.03112983, "- N/A -   "
4.63, 177.1571, 0.007852654, NaN, NaN, NaN, 0.03112983, "- N/A -   "
4.65, 177.865, 0.007883199, NaN, NaN, NaN, 0.0323506, "- N/A -   "
4.67, 178.69, 0.007913743, NaN, NaN, NaN, 0.0335714, "- N/A -   "
4.69, 179.516, 0.007947064, NaN, NaN, NaN, 0.0347922, "- N/A -   "
4.71, 180.342, 0.007977608, NaN, NaN, NaN, 0.0347922, "- N/A -   "
4.73, 181.167, 0.008010929, NaN, NaN, NaN, 0.03601294, "- N/A -   "
4.75, 181.875, 0.00804425, NaN, NaN, NaN, 0.03601294, "- N/A -   "
4.77, 182.701, 0.008074794, NaN, NaN, NaN, 0.03601294, "- N/A -   "
4.79, 183.526, 0.008108115, NaN, NaN, NaN, 0.03601294, "- N/A -   "
4.81, 184.3519, 0.008141437, NaN, NaN, NaN, 0.03601294, "- N/A -   "
4.83, 185.06, 0.008177535, NaN, NaN, NaN, 0.03601294, "- N/A -   "
4.85, 185.885, 0.008205301, NaN, NaN, NaN, 0.0372337, "- N/A -   "
4.87, 186.593, 0.008238623, NaN, NaN, NaN, 0.0372337, "- N/A -   "
4.89, 187.301, 0.00826917, NaN, NaN, NaN, 0.0384545, "- N/A -   "
4.91, 188.008, 0.008296934, NaN, NaN, NaN, 0.04089605, "- N/A -   "
4.93, 188.598, 0.008327479, NaN, NaN, NaN, 0.0433376, "- N/A -   "
4.95, 189.424, 0.008360799, NaN, NaN, NaN, 0.0433376, "- N/A -   "
4.97, 190.249, 0.008391344, NaN, NaN, NaN, 0.0433376, "- N/A -   "
4.99, 190.957, 0.008421889, NaN, NaN, NaN, 0.0445584, "- N/A -   "
5.01, 191.7826, 0.008455209, NaN, NaN, NaN, 0.0445584, "- N/A -   "
5.03, 192.49, 0.00848853, NaN, NaN, NaN, 0.0445584, "- N/A -   "
5.05, 193.434, 0.008524628, NaN, NaN, NaN, 0.0433376, "- N/A -   "
5.07, 194.495, 0.008563503, NaN, NaN, NaN, 0.04089605, "- N/A -   "
5.09, 195.321, 0.008602377, NaN, NaN, NaN, 0.0396753, "- N/A -   "
5.11, 196.147, 0.008638475, NaN, NaN, NaN, 0.0372337, "- N/A -   "
5.13, 197.09, 0.008674572, NaN, NaN, NaN, 0.03601294, "- N/A -   "
5.15, 197.916, 0.00871067, NaN, NaN, NaN, 0.0347922, "- N/A -   "
5.17, 198.977, 0.008752322, NaN, NaN, NaN, 0.0323506, "- N/A -   "
5.19, 199.921, 0.008791196, NaN, NaN, NaN, 0.0286883, "- N/A -   "
5.21, 200.7466, 0.008827294, NaN, NaN, NaN, 0.0274675, "- N/A -   "
5.23, 201.454, 0.008857839, NaN, NaN, NaN, 0.0286883, "- N/A -   "
5.25, 202.28, 0.00889116, NaN, NaN, NaN, 0.0299091, "- N/A -   "
5.27, 202.87, 0.008918927, NaN, NaN, NaN, 0.03112983, "- N/A -   "
5.29, 203.577, 0.008949471, NaN, NaN, NaN, 0.0323506, "- N/A -   "
5.31, 204.285, 0.008977239, NaN, NaN, NaN, 0.0347922, "- N/A -   "
5.33, 204.9927, 0.00901056, NaN, NaN, NaN, 0.03601294, "- N/A -   "
5.35, 205.818, 0.009043881, NaN, NaN, NaN, 0.0347922, "- N/A -   "
5.37, 206.644, 0.009077202, NaN, NaN, NaN, 0.0347922, "- N/A -   "
5.39, 207.4696, 0.0091133, NaN, NaN, NaN, 0.0347922, "- N/A -   "
5.41, 208.177, 0.009149397, NaN, NaN, NaN, 0.0335714, "- N/A -   "
5.43, 209.121, 0.009182718, NaN, NaN, NaN, 0.0323506, "- N/A -   "
5.45, 210.064, 0.009216039, NaN, NaN, NaN, 0.0323506, "- N/A -   "
5.47, 210.536, 0.009246584, NaN, NaN, NaN, 0.0335714, "- N/A -   "
5.49, 211.244, 0.009274351, NaN, NaN, NaN, 0.03601294, "- N/A -   "
5.51, 211.9516, 0.009304895, NaN, NaN, NaN, 0.0372337, "- N/A -   "
5.53, 212.895, 0.009338216, NaN, NaN, NaN, 0.0372337, "- N/A -   "
5.55, 213.485, 0.009371537, NaN, NaN, NaN, 0.0372337, "- N/A -   "
5.57, 214.1926, 0.009399305, NaN, NaN, NaN, 0.0396753, "- N/A -   "
5.59, 214.782, 0.009429849, NaN, NaN, NaN, 0.04089605, "- N/A -   "
5.61, 215.608, 0.009463171, NaN, NaN, NaN, 0.04089605, "- N/A -   "
5.63, 216.434, 0.009496491, NaN, NaN, NaN, 0.04089605, "- N/A -   "
5.65, 217.259, 0.009532589, NaN, NaN, NaN, 0.0396753, "- N/A -   "
5.67, 218.085, 0.00956591, NaN, NaN, NaN, 0.0396753, "- N/A -   "
5.69, 218.793, 0.009599231, NaN, NaN, NaN, 0.0396753, "- N/A -   "
5.71, 219.6182, 0.009635329, NaN, NaN, NaN, 0.0396753, "- N/A -   "
5.73, 220.326, 0.00966865, NaN, NaN, NaN, 0.0384545, "- N/A -   "
5.75, 221.152, 0.009701972, NaN, NaN, NaN, 0.0396753, "- N/A -   "
5.77, 221.977, 0.009735292, NaN, NaN, NaN, 0.0384545, "- N/A -   "
5.79, 222.803, 0.00977139, NaN, NaN, NaN, 0.0384545, "- N/A -   "
5.81, 223.51, 0.009804712, NaN, NaN, NaN, 0.0384545, "- N/A -   "
5.83, 224.336, 0.009838033, NaN, NaN, NaN, 0.0372337, "- N/A -   "
5.85, 225.044, 0.00987413, NaN, NaN, NaN, 0.0372337, "- N/A -   "
5.87, 225.8694, 0.009907451, NaN, NaN, NaN, 0.0372337, "- N/A -   "
5.89, 226.577, 0.009937996, NaN, NaN, NaN, 0.0372337, "- N/A -   "
5.91, 227.167, 0.009971316, NaN, NaN, NaN, 0.0384545, "- N/A -   "
5.93, 228.11, 0.0100046, NaN, NaN, NaN, 0.0372337, "- N/A -   "
5.95, 228.818, 0.0100407, NaN, NaN, NaN, 0.0372337, "- N/A -   "
5.97, 229.526, 0.0100713, NaN, NaN, NaN, 0.0384545, "- N/A -   "
5.99, 230.233, 0.0101046, NaN, NaN, NaN, 0.0372337, "- N/A -   "
6.01, 230.941, 0.0101379, NaN, NaN, NaN, 0.0384545, "- N/A -   "
6.03, 231.649, 0.0101712, NaN, NaN, NaN, 0.0372337, "- N/A -   "
6.05, 232.357, 0.0102046, NaN, NaN, NaN, 0.0372337, "- N/A -   "
6.07, 233.182, 0.0102379, NaN, NaN, NaN, 0.0372337, "- N/A -   "
6.09, 234.008, 0.0102768, NaN, NaN, NaN, 0.0347922, "- N/A -   "
6.11, 234.715, 0.01031008, NaN, NaN, NaN, 0.03601294, "- N/A -   "
6.13, 235.423, 0.0103434, NaN, NaN, NaN, 0.0347922, "- N/A -   "
6.15, 236.131, 0.0103795, NaN, NaN, NaN, 0.0347922, "- N/A -   "
6.17, 237.074, 0.01041282, NaN, NaN, NaN, 0.0335714, "- N/A -   "
6.19, 237.7821, 0.0104517, NaN, NaN, NaN, 0.0323506, "- N/A -   "
6.21, 238.49, 0.0104878, NaN, NaN, NaN, 0.0299091, "- N/A -   "
6.23, 239.315, 0.0105211, NaN, NaN, NaN, 0.03112983, "- N/A -   "
6.25, 239.905, 0.0105517, NaN, NaN, NaN, 0.0323506, "- N/A -   "
6.27, 240.495, 0.0105794, NaN, NaN, NaN, 0.0335714, "- N/A -   "
6.29, 241.203, 0.01061, NaN, NaN, NaN, 0.03601294, "- N/A -   "
6.31, 241.792, 0.0106377, NaN, NaN, NaN, 0.0372337, "- N/A -   "
6.33, 242.5, 0.0106711, NaN, NaN, NaN, 0.0372337, "- N/A -   "
6.35, 243.207, 0.0106988, NaN, NaN, NaN, 0.0396753, "- N/A -   "
6.37, 243.7961, 0.01072937, NaN, NaN, NaN, 0.04089605, "- N/A -   "
6.39, 244.385, 0.0107599, NaN, NaN, NaN, 0.04211683, "- N/A -   "
6.41, 245.092, 0.0107905, NaN, NaN, NaN, 0.0433376, "- N/A -   "
6.43, 245.917, 0.0108238, NaN, NaN, NaN, 0.0433376, "- N/A -   "
6.45, 246.624, 0.0108571, NaN, NaN, NaN, 0.0433376, "- N/A -   "
6.47, 247.331, 0.0108904, NaN, NaN, NaN, 0.0433376, "- N/A -   "
6.49, 248.038, 0.0109265, NaN, NaN, NaN, 0.04211683, "- N/A -   "
6.51, 248.98, 0.0109626, NaN, NaN, NaN, 0.04089605, "- N/A -   "
6.53, 249.805, 0.0110043, NaN, NaN, NaN, 0.0384545, "- N/A -   "
6.55, 250.748, 0.0110459, NaN, NaN, NaN, 0.0347922, "- N/A -   "
6.57, 251.5726, 0.0110848, NaN, NaN, NaN, 0.0323506, "- N/A -   "
6.59, 252.28, 0.0111181, NaN, NaN, NaN, 0.03112983, "- N/A -   "
6.61, 252.987, 0.0111514, NaN, NaN, NaN, 0.03112983, "- N/A -   "
6.63, 253.811, 0.0111875, NaN, NaN, NaN, 0.03112983, "- N/A -   "
6.65, 254.4, 0.0112181, NaN, NaN, NaN, 0.03112983, "- N/A -   "
6.67, 254.99, 0.0112514, NaN, NaN, NaN, 0.03112983, "- N/A -   "
6.69, 255.814, 0.0112819, NaN, NaN, NaN, 0.0323506, "- N/A -   "
6.71, 256.5213, 0.0113125, NaN, NaN, NaN, 0.0335714, "- N/A -   "
6.73, 257.11, 0.0113486, NaN, NaN, NaN, 0.0323506, "- N/A -   "
6.75, 257.9352, 0.0113819, NaN, NaN, NaN, 0.0323506, "- N/A -   "
6.77, 258.76, 0.0114208, NaN, NaN, NaN, 0.0299091, "- N/A -   "
6.79, 259.585, 0.0114541, NaN, NaN, NaN, 0.0299091, "- N/A -   "
6.81, 260.174, 0.0114874, NaN, NaN, NaN, 0.0299091, "- N/A -   "
6.83, 260.8809, 0.0115207, NaN, NaN, NaN, 0.0299091, "- N/A -   "
6.85, 261.588, 0.0115513, NaN, NaN, NaN, 0.03112983, "- N/A -   "
6.87, 262.295, 0.0115818, NaN, NaN, NaN, 0.0323506, "- N/A -   "
6.89, 263.002, 0.0116152, NaN, NaN, NaN, 0.0323506, "- N/A -   "
6.91, 263.473, 0.0116457, NaN, NaN, NaN, 0.0335714, "- N/A -   "
6.93, 264.18, 0.0116762, NaN, NaN, NaN, 0.0347922, "- N/A -   "
6.95, 264.769, 0.0117012, NaN, NaN, NaN, 0.0384545, "- N/A -   "
6.97, 265.358, 0.0117318, NaN, NaN, NaN, 0.04089605, "- N/A -   "
6.99, 266.065, 0.0117623, NaN, NaN, NaN, 0.04089605, "- N/A -   "
7.01, 266.7722, 0.0117929, NaN, NaN, NaN, 0.04211683, "- N/A -   "
7.03, 267.3613, 0.0118206, NaN, NaN, NaN, 0.0445584, "- N/A -   "
7.05, 268.1861, 0.011854, NaN, NaN, NaN, 0.0445584, "- N/A -   "
7.07, 268.7752, 0.0118873, NaN, NaN, NaN, 0.0445584, "- N/A -   "
7.09, 269.6, 0.0119234, NaN, NaN, NaN, 0.0433376, "- N/A -   "
7.11, 270.5426, 0.0119595, NaN, NaN, NaN, 0.04211683, "- N/A -   "
7.13, 271.25, 0.0119956, NaN, NaN, NaN, 0.04089605, "- N/A -   "
7.15, 271.9565, 0.0120317, NaN, NaN, NaN, 0.0396753, "- N/A -   "
7.17, 272.663, 0.012065, NaN, NaN, NaN, 0.0396753, "- N/A -   "
7.19, 273.37, 0.0120983, NaN, NaN, NaN, 0.0396753, "- N/A -   "
7.21, 274.195, 0.0121316, NaN, NaN, NaN, 0.0396753, "- N/A -   "
7.23, 274.784, 0.0121649, NaN, NaN, NaN, 0.0396753, "- N/A -   "
7.25, 275.727, 0.0122038, NaN, NaN, NaN, 0.0372337, "- N/A -   "
7.27, 276.3161, 0.0122371, NaN, NaN, NaN, 0.0372337, "- N/A -   "
7.29, 277.141, 0.0122732, NaN, NaN, NaN, 0.0372337, "- N/A -   "
7.31, 278.0835, 0.0123121, NaN, NaN, NaN, 0.0335714, "- N/A -   "
7.33, 278.908, 0.012351, NaN, NaN, NaN, 0.0323506, "- N/A -   "
7.35, 279.733, 0.01238709, NaN, NaN, NaN, 0.0299091, "- N/A -   "
7.37, 280.558, 0.0124204, NaN, NaN, NaN, 0.0299091, "- N/A -   "
7.39, 281.147, 0.0124537, NaN, NaN, NaN, 0.0299091, "- N/A -   "
7.41, 281.8539, 0.0124871, NaN, NaN, NaN, 0.0299091, "- N/A -   "
7.43, 282.561, 0.0125204, NaN, NaN, NaN, 0.0299091, "- N/A -   "
7.45, 283.268, 0.0125537, NaN, NaN, NaN, 0.0299091, "- N/A -   "
7.47, 283.9748, 0.0125898, NaN, NaN, NaN, 0.0286883, "- N/A -   "
7.49, 284.917, 0.0126231, NaN, NaN, NaN, 0.0286883, "- N/A -   "
7.51, 285.5065, 0.0126537, NaN, NaN, NaN, 0.0299091, "- N/A -   "
7.53, 286.096, 0.0126842, NaN, NaN, NaN, 0.03112983, "- N/A -   "
7.55, 286.8026, 0.0127147, NaN, NaN, NaN, 0.0323506, "- N/A -   "
7.57, 287.392, 0.0127425, NaN, NaN, NaN, 0.0347922, "- N/A -   "
7.59, 287.863, 0.0127731, NaN, NaN, NaN, 0.03601294, "- N/A -   "
7.61, 288.452, 0.012798, NaN, NaN, NaN, 0.0396753, "- N/A -   "
7.63, 289.041, 0.0128258, NaN, NaN, NaN, 0.04211683, "- N/A -   "
7.65, 289.748, 0.0128591, NaN, NaN, NaN, 0.0433376, "- N/A -   "
7.67, 290.3374, 0.0128897, NaN, NaN, NaN, 0.0433376, "- N/A -   "
7.69, 291.28, 0.012923, NaN, NaN, NaN, 0.0445584, "- N/A -   "
7.71, 291.8691, 0.0129535, NaN, NaN, NaN, 0.0445584, "- N/A -   "
7.73, 292.6939, 0.0129924, NaN, NaN, NaN, 0.0433376, "- N/A -   "
7.75, 293.401, 0.0130257, NaN, NaN, NaN, 0.0433376, "- N/A -   "
7.77, 294.108, 0.0130563, NaN, NaN, NaN, 0.0433376, "- N/A -   "
7.79, 294.8148, 0.0130896, NaN, NaN, NaN, 0.0433376, "- N/A -   "
7.81, 295.6396, 0.0131257, NaN, NaN, NaN, 0.04211683, "- N/A -   "
7.83, 296.347, 0.0131618, NaN, NaN, NaN, 0.04089605, "- N/A -   "
7.85, 297.407, 0.0132007, NaN, NaN, NaN, 0.0384545, "- N/A -   "
7.87, 298.114, 0.0132396, NaN, NaN, NaN, 0.0372337, "- N/A -   "
7.89, 299.057, 0.0132757, NaN, NaN, NaN, 0.0347922, "- N/A -   "
7.91, 299.7635, 0.0133145, NaN, NaN, NaN, 0.0323506, "- N/A -   "
7.93, 300.8239, 0.0133562, NaN, NaN, NaN, 0.0299091, "- N/A -   "
7.95, 301.6487, 0.0133923, NaN, NaN, NaN, 0.0274675, "- N/A -   "
7.97, 302.356, 0.0134284, NaN, NaN, NaN, 0.0274675, "- N/A -   "
7.99, 302.945, 0.0134589, NaN, NaN, NaN, 0.0274675, "- N/A -   "
8.01, 303.77, 0.0134922, NaN, NaN, NaN, 0.0274675, "- N/A -   "
8.03, 304.3587, 0.0135228, NaN, NaN, NaN, 0.0286883, "- N/A -   "
8.05, 305.066, 0.0135561, NaN, NaN, NaN, 0.0299091, "- N/A -   "
8.07, 305.8904, 0.0135866, NaN, NaN, NaN, 0.0299091, "- N/A -   "
8.09, 306.362, 0.0136172, NaN, NaN, NaN, 0.03112983, "- N/A -   "
8.11, 307.0687, 0.013645, NaN, NaN, NaN, 0.0335714, "- N/A -   "
8.13, 307.776, 0.0136783, NaN, NaN, NaN, 0.0335714, "- N/A -   "
8.15, 308.6, 0.0137088, NaN, NaN, NaN, 0.03601294, "- N/A -   "
8.17, 309.19, 0.0137449, NaN, NaN, NaN, 0.03601294, "- N/A -   "
8.19, 309.8965, 0.0137755, NaN, NaN, NaN, 0.03601294, "- N/A -   "
8.21, 310.486, 0.013806, NaN, NaN, NaN, 0.0372337, "- N/A -   "
8.23, 311.31, 0.0138393, NaN, NaN, NaN, 0.0372337, "- N/A -   "
8.25, 312.0174, 0.0138727, NaN, NaN, NaN, 0.0384545, "- N/A -   "
8.27, 312.724, 0.0139032, NaN, NaN, NaN, 0.0384545, "- N/A -   "
8.29, 313.4313, 0.0139365, NaN, NaN, NaN, 0.0384545, "- N/A -   "
8.31, 314.138, 0.0139671, NaN, NaN, NaN, 0.0396753, "- N/A -   "
8.33, 314.7274, 0.0139976, NaN, NaN, NaN, 0.04211683, "- N/A -   "
8.35, 315.317, 0.0140254, NaN, NaN, NaN, 0.0433376, "- N/A -   "
8.37, 316.1413, 0.0140587, NaN, NaN, NaN, 0.0433376, "- N/A -   "
8.39, 316.73, 0.014092, NaN, NaN, NaN, 0.0433376, "- N/A -   "
8.41, 317.4374, 0.0141226, NaN, NaN, NaN, 0.0445584, "- N/A -   "
8.43, 318.144, 0.0141531, NaN, NaN, NaN, 0.04577916, "- N/A -   "
8.45, 318.8513, 0.0141864, NaN, NaN, NaN, 0.04577916, "- N/A -   "
8.47, 319.558, 0.0142225, NaN, NaN, NaN, 0.0445584, "- N/A -   "
8.49, 320.501, 0.0142614, NaN, NaN, NaN, 0.04211683, "- N/A -   "
8.51, 321.326, 0.0143058, NaN, NaN, NaN, 0.0384545, "- N/A -   "
8.53, 322.3861, 0.0143419, NaN, NaN, NaN, 0.03601294, "- N/A -   "
8.55, 323.093, 0.014378, NaN, NaN, NaN, 0.0347922, "- N/A -   "
8.57, 323.8, 0.0144141, NaN, NaN, NaN, 0.0347922, "- N/A -   "
8.59, 324.507, 0.01444744, NaN, NaN, NaN, 0.0335714, "- N/A -   "
8.61, 325.332, 0.0144808, NaN, NaN, NaN, 0.0335714, "- N/A -   "
8.63, 326.0387, 0.0145141, NaN, NaN, NaN, 0.0335714, "- N/A -   "
8.65, 326.6278, 0.0145474, NaN, NaN, NaN, 0.0347922, "- N/A -   "
8.67, 327.3348, 0.0145779, NaN, NaN, NaN, 0.03601294, "- N/A -   "
8.69, 328.042, 0.0146085, NaN, NaN, NaN, 0.03601294, "- N/A -   "
8.71, 328.7487, 0.0146418, NaN, NaN, NaN, 0.03601294, "- N/A -   "
8.73, 329.573, 0.0146779, NaN, NaN, NaN, 0.0347922, "- N/A -   "
8.75, 330.28, 0.0147085, NaN, NaN, NaN, 0.03601294, "- N/A -   "
8.77, 330.87, 0.0147418, NaN, NaN, NaN, 0.0372337, "- N/A -   "
8.79, 331.4587, 0.0147723, NaN, NaN, NaN, 0.0372337, "- N/A -   "
8.81, 332.283, 0.0148084, NaN, NaN, NaN, 0.03601294, "- N/A -   "
8.83, 333.108, 0.0148445, NaN, NaN, NaN, 0.03601294, "- N/A -   "
8.85, 334.051, 0.0148806, NaN, NaN, NaN, 0.0335714, "- N/A -   "
8.87, 334.758, 0.0149167, NaN, NaN, NaN, 0.0323506, "- N/A -   "
8.89, 335.465, 0.01495, NaN, NaN, NaN, 0.0323506, "- N/A -   "
8.9, 335.7, 0.0149667, NaN, NaN, NaN, 0.0335714, "- N/A -   "
8.91, 336.054, 0.0149806, NaN, NaN, NaN, 0.0335714, "- N/A -   "
8.94, 336.997, 0.015025, NaN, NaN, NaN, 0.03601294, "- N/A -   "
8.97, 338.057, 0.01507221, NaN, NaN, NaN, 0.0372337, "- N/A -   "
9, 338.882, 0.0151139, NaN, NaN, NaN, 0.04089605, "- N/A -   "
9.03, 340.06, 0.0151638, NaN, NaN, NaN, 0.04089605, "- N/A -   "
9.06, 341.12, 0.0152138, NaN, NaN, NaN, 0.04089605, "- N/A -   "
9.09, 342.299, 0.0152666, NaN, NaN, NaN, 0.0396753, "- N/A -   "
9.12, 343.3591, 0.0153166, NaN, NaN, NaN, 0.0396753, "- N/A -   "
9.15, 344.537, 0.0153693, NaN, NaN, NaN, 0.0384545, "- N/A -   "
9.18, 345.5978, 0.01542208, NaN, NaN, NaN, 0.0372337, "- N/A -   "
9.21, 346.894, 0.0154748, NaN, NaN, NaN, 0.03601294, "- N/A -   "
9.24, 347.954, 0.0155248, NaN, NaN, NaN, 0.03601294, "- N/A -   "
9.27, 348.897, 0.015572, NaN, NaN, NaN, 0.0372337, "- N/A -   "
9.3, 349.84, 0.0156192, NaN, NaN, NaN, 0.0384545, "- N/A -   "
9.33, 351.018, 0.015672, NaN, NaN, NaN, 0.0372337, "- N/A -   "
9.36, 352.3139, 0.0157275, NaN, NaN, NaN, 0.03601294, "- N/A -   "
9.39, 353.4922, 0.0157803, NaN, NaN, NaN, 0.0335714, "- N/A -   "
9.42, 354.435, 0.0158303, NaN, NaN, NaN, 0.0335714, "- N/A -   "
9.45, 355.613, 0.015883, NaN, NaN, NaN, 0.0335714, "- N/A -   "
9.48, 356.673, 0.0159302, NaN, NaN, NaN, 0.0347922, "- N/A -   "
9.51, 357.852, 0.0159802, NaN, NaN, NaN, 0.0335714, "- N/A -   "
9.54, 358.912, 0.0160302, NaN, NaN, NaN, 0.0335714, "- N/A -   "
9.57, 360.09, 0.01608017, NaN, NaN, NaN, 0.0335714, "- N/A -   "
9.6, 361.151, 0.0161302, NaN, NaN, NaN, 0.0335714, "- N/A -   "
9.63, 362.2113, 0.0161801, NaN, NaN, NaN, 0.0335714, "- N/A -   "
9.66, 363.154, 0.0162301, NaN, NaN, NaN, 0.0347922, "- N/A -   "
9.69, 364.214, 0.0162745, NaN, NaN, NaN, 0.03601294, "- N/A -   "
9.72, 365.157, 0.016319, NaN, NaN, NaN, 0.0384545, "- N/A -   "
9.75, 366.1, 0.0163662, NaN, NaN, NaN, 0.0396753, "- N/A -   "
9.78, 367.042, 0.01641338, NaN, NaN, NaN, 0.04211683, "- N/A -   "
9.81, 368.103, 0.01645781, NaN, NaN, NaN, 0.0433376, "- N/A -   "
9.84, 369.163, 0.016505, NaN, NaN, NaN, 0.0445584, "- N/A -   "
9.87, 370.3413, 0.0165578, NaN, NaN, NaN, 0.0445584, "- N/A -   "
9.9, 371.52, 0.0166133, NaN, NaN, NaN, 0.04211683, "- N/A -   "
9.93, 372.816, 0.0166716, NaN, NaN, NaN, 0.0372337, "- N/A -   "
9.96, 374.112, 0.0167272, NaN, NaN, NaN, 0.03601294, "- N/A -   "
9.99, 375.172, 0.0167771, NaN, NaN, NaN, 0.0347922, "- N/A -   "
10.02, 376.2326, 0.0168271, NaN, NaN, NaN, 0.03601294, "- N/A -   "
10.05, 377.4109, 0.0168771, NaN, NaN, NaN, 0.0347922, "- N/A -   "
10.08, 378.4713, 0.0169299, NaN, NaN, NaN, 0.0347922, "- N/A -   "
10.11, 379.65, 0.01697706, NaN, NaN, NaN, 0.0347922, "- N/A -   "
10.14, 380.828, 0.01702982, NaN, NaN, NaN, 0.0335714, "- N/A -   "
10.17, 382.006, 0.0170826, NaN, NaN, NaN, 0.0323506, "- N/A -   "
10.2, 383.184, 0.0171381, NaN, NaN, NaN, 0.03112983, "- N/A -   "
10.23, 384.245, 0.0171881, NaN, NaN, NaN, 0.0299091, "- N/A -   "
10.26, 385.541, 0.0172381, NaN, NaN, NaN, 0.0299091, "- N/A -   "
10.29, 386.4835, 0.0172825, NaN, NaN, NaN, 0.0323506, "- N/A -   "
10.32, 387.308, 0.0173242, NaN, NaN, NaN, 0.03601294, "- N/A -   "
10.35, 388.369, 0.01737136, NaN, NaN, NaN, 0.0372337, "- N/A -   "
10.38, 389.3113, 0.0174158, NaN, NaN, NaN, 0.0396753, "- N/A -   "
10.41, 390.2539, 0.0174602, NaN, NaN, NaN, 0.04211683, "- N/A -   "
10.44, 391.079, 0.0175019, NaN, NaN, NaN, 0.04577916, "- N/A -   "
10.47, 392.139, 0.0175491, NaN, NaN, NaN, 0.04699994, "- N/A -   "
10.5, 393.435, 0.01760183, NaN, NaN, NaN, 0.04577916, "- N/A -   "
10.53, 394.7313, 0.0176601, NaN, NaN, NaN, 0.0433376, "- N/A -   "
10.56, 396.145, 0.0177185, NaN, NaN, NaN, 0.0396753, "- N/A -   "
10.59, 397.3235, 0.0177712, NaN, NaN, NaN, 0.0372337, "- N/A -   "
10.62, 398.502, 0.0178267, NaN, NaN, NaN, 0.0347922, "- N/A -   "
10.65, 399.562, 0.01787673, NaN, NaN, NaN, 0.0347922, "- N/A -   "
10.68, 400.74, 0.0179267, NaN, NaN, NaN, 0.0347922, "- N/A -   "
10.71, 402.0365, 0.017985, NaN, NaN, NaN, 0.0323506, "- N/A -   "
10.74, 403.4504, 0.01804611, NaN, NaN, NaN, 0.0274675, "- N/A -   "
10.77, 404.6287, 0.0180989, NaN, NaN, NaN, 0.0250259, "- N/A -   "
10.8, 405.689, 0.0181461, NaN, NaN, NaN, 0.0262467, "- N/A -   "
10.83, 406.514, 0.0181905, NaN, NaN, NaN, 0.0286883, "- N/A -   "
10.86, 407.692, 0.0182377, NaN, NaN, NaN, 0.0299091, "- N/A -   "
10.89, 408.7526, 0.0182849, NaN, NaN, NaN, 0.03112983, "- N/A -   "
10.92, 409.695, 0.01832934, NaN, NaN, NaN, 0.0347922, "- N/A -   "
10.95, 410.638, 0.018371, NaN, NaN, NaN, 0.0372337, "- N/A -   "
10.98, 411.58, 0.01841542, NaN, NaN, NaN, 0.04089605, "- N/A -   "
11.01, 412.4052, 0.01845707, NaN, NaN, NaN, 0.0433376, "- N/A -   "
11.04, 413.3478, 0.0185015, NaN, NaN, NaN, 0.04577916, "- N/A -   "
11.07, 414.408, 0.01854315, NaN, NaN, NaN, 0.0494415, "- N/A -   "
11.1, 415.469, 0.0185904, NaN, NaN, NaN, 0.05066227, "- N/A -   "
11.13, 416.647, 0.0186431, NaN, NaN, NaN, 0.0494415, "- N/A -   "
11.16, 418.061, 0.0187014, NaN, NaN, NaN, 0.04699994, "- N/A -   "
11.19, 419.357, 0.01875696, NaN, NaN, NaN, 0.0433376, "- N/A -   "
11.22, 420.653, 0.0188125, NaN, NaN, NaN, 0.04089605, "- N/A -   "
11.25, 421.831, 0.01886803, NaN, NaN, NaN, 0.0384545, "- N/A -   "
11.28, 423.127, 0.0189263, NaN, NaN, NaN, 0.03601294, "- N/A -   "
11.31, 424.423, 0.0189819, NaN, NaN, NaN, 0.0323506, "- N/A -   "
11.34, 425.8374, 0.0190402, NaN, NaN, NaN, 0.0286883, "- N/A -   "
11.37, 426.898, 0.01909017, NaN, NaN, NaN, 0.0286883, "- N/A -   "
11.4, 427.958, 0.0191374, NaN, NaN, NaN, 0.03112983, "- N/A -   "
11.43, 429.0187, 0.01918458, NaN, NaN, NaN, 0.03112983, "- N/A -   "
11.46, 430.197, 0.0192373, NaN, NaN, NaN, 0.0299091, "- N/A -   "
11.49, 431.2574, 0.0192873, NaN, NaN, NaN, 0.03112983, "- N/A -   "
11.52, 432.2, 0.0193317, NaN, NaN, NaN, 0.0323506, "- N/A -   "
11.55, 433.378, 0.01937895, NaN, NaN, NaN, 0.0335714, "- N/A -   "
11.58, 434.4387, 0.0194234, NaN, NaN, NaN, 0.03601294, "- N/A -   "
11.61, 435.4991, 0.0194734, NaN, NaN, NaN, 0.0372337, "- N/A -   "
11.64, 436.6774, 0.0195178, NaN, NaN, NaN, 0.0384545, "- N/A -   "
11.67, 437.856, 0.0195705, NaN, NaN, NaN, 0.0372337, "- N/A -   "
11.7, 438.798, 0.0196178, NaN, NaN, NaN, 0.0384545, "- N/A -   "
11.73, 439.977, 0.0196622, NaN, NaN, NaN, 0.04089605, "- N/A -   "
11.76, 440.919, 0.0197066, NaN, NaN, NaN, 0.0433376, "- N/A -   "
11.79, 441.862, 0.0197538, NaN, NaN, NaN, 0.0445584, "- N/A -   "
11.82, 443.1578, 0.0198038, NaN, NaN, NaN, 0.0445584, "- N/A -   "
11.85, 444.218, 0.0198566, NaN, NaN, NaN, 0.0445584, "- N/A -   "
11.88, 445.632, 0.0199121, NaN, NaN, NaN, 0.04089605, "- N/A -   "
11.91, 446.928, 0.0199704, NaN, NaN, NaN, 0.0384545, "- N/A -   "
11.94, 448.342, 0.0200259, NaN, NaN, NaN, 0.0347922, "- N/A -   "
11.97, 449.638, 0.02008147, NaN, NaN, NaN, 0.0323506, "- N/A -   "
12, 451.0522, 0.020137, NaN, NaN, NaN, 0.0299091, "- N/A -   "
12.03, 452.23, 0.0201925, NaN, NaN, NaN, 0.0286883, "- N/A -   "
12.06, 453.0552, 0.0202342, NaN, NaN, NaN, 0.03112983, "- N/A -   "
12.09, 454.2335, 0.0202814, NaN, NaN, NaN, 0.0323506, "- N/A -   "
12.12, 455.2939, 0.0203286, NaN, NaN, NaN, 0.0335714, "- N/A -   "
12.15, 456.472, 0.02037858, NaN, NaN, NaN, 0.0347922, "- N/A -   "
12.18, 457.768, 0.0204286, NaN, NaN, NaN, 0.0335714, "- N/A -   "
12.21, 458.947, 0.0204841, NaN, NaN, NaN, 0.03112983, "- N/A -   "
12.24, 460.1248, 0.02053408, NaN, NaN, NaN, 0.03112983, "- N/A -   "
12.27, 461.303, 0.02058406, NaN, NaN, NaN, 0.03112983, "- N/A -   "
12.3, 462.3635, 0.0206285, NaN, NaN, NaN, 0.0335714, "- N/A -   "
12.33, 463.3061, 0.0206757, NaN, NaN, NaN, 0.03601294, "- N/A -   "
12.36, 464.249, 0.0207201, NaN, NaN, NaN, 0.0372337, "- N/A -   "
12.39, 465.309, 0.02076455, NaN, NaN, NaN, 0.0396753, "- N/A -   "
12.42, 466.252, 0.020809, NaN, NaN, NaN, 0.04211683, "- N/A -   "
12.45, 467.43, 0.020859, NaN, NaN, NaN, 0.04211683, "- N/A -   "
12.48, 468.726, 0.0209117, NaN, NaN, NaN, 0.04089605, "- N/A -   "
12.51, 469.904, 0.0209617, NaN, NaN, NaN, 0.04089605, "- N/A -   "
12.54, 471.0826, 0.02101168, NaN, NaN, NaN, 0.04089605, "- N/A -   "
12.57, 472.2609, 0.0210617, NaN, NaN, NaN, 0.04089605, "- N/A -   "
12.6, 473.557, 0.0211144, NaN, NaN, NaN, 0.0396753, "- N/A -   "
12.63, 474.735, 0.02117, NaN, NaN, NaN, 0.0384545, "- N/A -   "
12.66, 476.149, 0.0212227, NaN, NaN, NaN, 0.03601294, "- N/A -   "
12.69, 477.3274, 0.0212755, NaN, NaN, NaN, 0.03601294, "- N/A -   "
12.72, 478.388, 0.0213255, NaN, NaN, NaN, 0.03601294, "- N/A -   "
[...]
42.98, 1806.03, 0.071779, NaN, NaN, NaN, 0.0262467, "- N/A -   "
43.01, 1806.98, 0.0718207, NaN, NaN, NaN, 0.0299091, "- N/A -   "
43.04, 1808.05, 0.07186233, NaN, NaN, NaN, 0.0335714, "- N/A -   "
43.07, 1809.01, 0.07190399, NaN, NaN, NaN, 0.0384545, "- N/A -   "
43.1, 1809.96, 0.0719456, NaN, NaN, NaN, 0.04211683, "- N/A -   "
43.13, 1811.15, 0.0719873, NaN, NaN, NaN, 0.0445584, "- N/A -   "
43.16, 1812.47, 0.07203727, NaN, NaN, NaN, 0.0445584, "- N/A -   "
43.19, 1813.9, 0.07209003, NaN, NaN, NaN, 0.0433376, "- N/A -   "
43.22, 1815.208, 0.0721428, NaN, NaN, NaN, 0.04211683, "- N/A -   "
43.25, 1816.64, 0.07219, NaN, NaN, NaN, 0.0433376, "- N/A -   "
43.28, 1817.83, 0.07223997, NaN, NaN, NaN, 0.0433376, "- N/A -   "
43.31, 1819.14, 0.07229551, NaN, NaN, NaN, 0.04211683, "- N/A -   "
43.34, 1820.69, 0.072351, NaN, NaN, NaN, 0.0396753, "- N/A -   "
43.37, 1822.12, 0.0724038, NaN, NaN, NaN, 0.0384545, "- N/A -   "
43.4, 1823.56, 0.07245378, NaN, NaN, NaN, 0.0372337, "- N/A -   "
43.43, 1824.99, 0.07250655, NaN, NaN, NaN, 0.03601294, "- N/A -   "
43.46, 1826.42, 0.0725649, NaN, NaN, NaN, 0.0323506, "- N/A -   "
43.49, 1827.97, 0.07262039, NaN, NaN, NaN, 0.0299091, "- N/A -   "
43.52, 1829.4, 0.07267593, NaN, NaN, NaN, 0.0274675, "- N/A -   "
43.55, 1830.59, 0.07272036, NaN, NaN, NaN, 0.0299091, "- N/A -   "
43.58, 1831.66, 0.07276756, NaN, NaN, NaN, 0.03112983, "- N/A -   "
43.61, 1832.98, 0.07281476, NaN, NaN, NaN, 0.0323506, "- N/A -   "
43.64, 1834.41, 0.07286475, NaN, NaN, NaN, 0.0323506, "- N/A -   "
43.67, 1835.72, 0.0729175, NaN, NaN, NaN, 0.0323506, "- N/A -   "
43.7, 1836.91, 0.0729675, NaN, NaN, NaN, 0.03112983, "- N/A -   "
43.73, 1838.22, 0.07302024, NaN, NaN, NaN, 0.03112983, "- N/A -   "
43.76, 1839.65, 0.07307022, NaN, NaN, NaN, 0.0299091, "- N/A -   "
43.79, 1840.61, 0.0731091, NaN, NaN, NaN, 0.0347922, "- N/A -   "
43.82, 1841.56, 0.0731508, NaN, NaN, NaN, 0.0384545, "- N/A -   "
43.85, 1842.87, 0.07319795, NaN, NaN, NaN, 0.0396753, "- N/A -   "
43.88, 1844.19, 0.07324793, NaN, NaN, NaN, 0.0396753, "- N/A -   "
43.91, 1845.14, 0.07328959, NaN, NaN, NaN, 0.0433376, "- N/A -   "
43.94, 1846.33, 0.07333679, NaN, NaN, NaN, 0.04577916, "- N/A -   "
43.97, 1847.64, 0.07338677, NaN, NaN, NaN, 0.0445584, "- N/A -   "
44, 1849.08, 0.07343676, NaN, NaN, NaN, 0.0445584, "- N/A -   "
44.03, 1850.51, 0.0734923, NaN, NaN, NaN, 0.0433376, "- N/A -   "
44.06, 1851.94, 0.0735478, NaN, NaN, NaN, 0.04089605, "- N/A -   "
44.09, 1853.49, 0.07360613, NaN, NaN, NaN, 0.0372337, "- N/A -   "
44.12, 1855.04, 0.07366167, NaN, NaN, NaN, 0.0335714, "- N/A -   "
44.15, 1856.35, 0.07371443, NaN, NaN, NaN, 0.0335714, "- N/A -   "
44.18, 1857.66, 0.0737616, NaN, NaN, NaN, 0.0335714, "- N/A -   "
44.21, 1858.85, 0.07380884, NaN, NaN, NaN, 0.0347922, "- N/A -   "
44.24, 1860.05, 0.07385604, NaN, NaN, NaN, 0.03601294, "- N/A -   "
44.27, 1861.24, 0.0739088, NaN, NaN, NaN, 0.0347922, "- N/A -   "
44.3, 1862.79, 0.0739643, NaN, NaN, NaN, 0.0323506, "- N/A -   "
44.33, 1864.34, 0.07402265, NaN, NaN, NaN, 0.0286883, "- N/A -   "
44.36, 1865.77, 0.07407263, NaN, NaN, NaN, 0.0299091, "- N/A -   "
44.39, 1866.844, 0.0741198, NaN, NaN, NaN, 0.03112983, "- N/A -   "
44.42, 1868.04, 0.07416704, NaN, NaN, NaN, 0.0335714, "- N/A -   "
44.45, 1869.11, 0.07420869, NaN, NaN, NaN, 0.03601294, "- N/A -   "
44.48, 1870.064, 0.07425312, NaN, NaN, NaN, 0.0384545, "- N/A -   "
44.51, 1871.14, 0.074292, NaN, NaN, NaN, 0.0433376, "- N/A -   "
44.54, 1872.21, 0.0743364, NaN, NaN, NaN, 0.04577916, "- N/A -   "
44.57, 1873.52, 0.0743864, NaN, NaN, NaN, 0.04699994, "- N/A -   "
44.6, 1874.83, 0.07443361, NaN, NaN, NaN, 0.04699994, "- N/A -   "
44.63, 1876.26, 0.07448915, NaN, NaN, NaN, 0.04577916, "- N/A -   "
44.66, 1877.696, 0.07454468, NaN, NaN, NaN, 0.04211683, "- N/A -   "
44.69, 1879.25, 0.07460299, NaN, NaN, NaN, 0.0384545, "- N/A -   "
44.72, 1880.68, 0.07465853, NaN, NaN, NaN, 0.03601294, "- N/A -   "
44.75, 1882.23, 0.0747141, NaN, NaN, NaN, 0.0335714, "- N/A -   "
44.78, 1883.42, 0.07476404, NaN, NaN, NaN, 0.0335714, "- N/A -   "
44.81, 1884.73, 0.07481125, NaN, NaN, NaN, 0.0347922, "- N/A -   "
44.84, 1886.04, 0.07486401, NaN, NaN, NaN, 0.0335714, "- N/A -   "
44.87, 1887.47, 0.0749223, NaN, NaN, NaN, 0.03112983, "- N/A -   "
44.9, 1889.14, 0.07497507, NaN, NaN, NaN, 0.0286883, "- N/A -   "
44.93, 1890.456, 0.07502783, NaN, NaN, NaN, 0.0274675, "- N/A -   "
44.96, 1891.53, 0.07507782, NaN, NaN, NaN, 0.0274675, "- N/A -   "
44.99, 1892.72, 0.07512502, NaN, NaN, NaN, 0.0286883, "- N/A -   "
45.02, 1893.91, 0.07517222, NaN, NaN, NaN, 0.0299091, "- N/A -   "
45.05, 1895.11, 0.07521388, NaN, NaN, NaN, 0.0335714, "- N/A -   "
45.08, 1896.06, 0.07525831, NaN, NaN, NaN, 0.0372337, "- N/A -   "
45.11, 1897.134, 0.0753, NaN, NaN, NaN, 0.0396753, "- N/A -   "
45.14, 1898.33, 0.07534716, NaN, NaN, NaN, 0.04089605, "- N/A -   "
45.17, 1899.4, 0.07539159, NaN, NaN, NaN, 0.0433376, "- N/A -   "
45.2, 1900.59, 0.07543879, NaN, NaN, NaN, 0.0445584, "- N/A -   "
45.23, 1901.9, 0.0754888, NaN, NaN, NaN, 0.0445584, "- N/A -   "
45.26, 1903.22, 0.07553876, NaN, NaN, NaN, 0.0445584, "- N/A -   "
45.29, 1904.53, 0.07558874, NaN, NaN, NaN, 0.0445584, "- N/A -   "
45.32, 1905.72, 0.07563872, NaN, NaN, NaN, 0.0445584, "- N/A -   "
45.35, 1907.15, 0.0756887, NaN, NaN, NaN, 0.0445584, "- N/A -   "
45.38, 1908.463, 0.0757442, NaN, NaN, NaN, 0.0433376, "- N/A -   "
45.41, 1910.01, 0.07579977, NaN, NaN, NaN, 0.0396753, "- N/A -   "
45.44, 1911.56, 0.07586086, NaN, NaN, NaN, 0.03601294, "- N/A -   "
45.47, 1912.99, 0.07591917, NaN, NaN, NaN, 0.0323506, "- N/A -   "
45.5, 1914.54, 0.07596915, NaN, NaN, NaN, 0.03112983, "- N/A -   "
45.53, 1915.618, 0.07601636, NaN, NaN, NaN, 0.0335714, "- N/A -   "
45.56, 1916.69, 0.0760636, NaN, NaN, NaN, 0.0335714, "- N/A -   "
45.59, 1918.12, 0.0761135, NaN, NaN, NaN, 0.0335714, "- N/A -   "
45.62, 1919.2, 0.07616075, NaN, NaN, NaN, 0.0347922, "- N/A -   "
45.65, 1920.51, 0.07621073, NaN, NaN, NaN, 0.03601294, "- N/A -   "
45.68, 1921.58, 0.07625794, NaN, NaN, NaN, 0.03601294, "- N/A -   "
45.71, 1922.89, 0.0763024, NaN, NaN, NaN, 0.0384545, "- N/A -   "
45.74, 1924.085, 0.07635234, NaN, NaN, NaN, 0.0384545, "- N/A -   "
45.77, 1925.516, 0.07640511, NaN, NaN, NaN, 0.0372337, "- N/A -   "
45.8, 1926.71, 0.0764579, NaN, NaN, NaN, 0.0372337, "- N/A -   "
45.83, 1927.9, 0.0765023, NaN, NaN, NaN, 0.0384545, "- N/A -   "
45.86, 1928.97, 0.07654672, NaN, NaN, NaN, 0.04211683, "- N/A -   "
45.89, 1930.05, 0.07659114, NaN, NaN, NaN, 0.0433376, "- N/A -   "
45.92, 1931.24, 0.07663558, NaN, NaN, NaN, 0.04577916, "- N/A -   "
45.95, 1932.43, 0.0766828, NaN, NaN, NaN, 0.04699994, "- N/A -   "
45.98, 1933.74, 0.07673831, NaN, NaN, NaN, 0.0445584, "- N/A -   "
46.01, 1935.18, 0.07679663, NaN, NaN, NaN, 0.04089605, "- N/A -   "
46.04, 1936.845, 0.07685494, NaN, NaN, NaN, 0.0372337, "- N/A -   "
46.07, 1938.276, 0.07691047, NaN, NaN, NaN, 0.0347922, "- N/A -   "
46.1, 1939.83, 0.07696879, NaN, NaN, NaN, 0.03112983, "- N/A -   "
46.13, 1941.14, 0.0770216, NaN, NaN, NaN, 0.03112983, "- N/A -   "
46.16, 1942.09, 0.077066, NaN, NaN, NaN, 0.0323506, "- N/A -   "
46.19, 1943.28, 0.0771104, NaN, NaN, NaN, 0.0347922, "- N/A -   "
46.22, 1944.477, 0.07716039, NaN, NaN, NaN, 0.03601294, "- N/A -   "
46.25, 1945.789, 0.07721037, NaN, NaN, NaN, 0.0347922, "- N/A -   "
46.28, 1947.1, 0.07726035, NaN, NaN, NaN, 0.0347922, "- N/A -   "
46.31, 1948.41, 0.07731588, NaN, NaN, NaN, 0.0323506, "- N/A -   "
46.34, 1949.96, 0.07736864, NaN, NaN, NaN, 0.03112983, "- N/A -   "
46.37, 1950.92, 0.07741862, NaN, NaN, NaN, 0.03112983, "- N/A -   "
46.4, 1952.23, 0.0774658, NaN, NaN, NaN, 0.0323506, "- N/A -   "
46.43, 1953.18, 0.07751026, NaN, NaN, NaN, 0.0347922, "- N/A -   "
46.46, 1954.26, 0.07755746, NaN, NaN, NaN, 0.0372337, "- N/A -   "
46.49, 1955.329, 0.07760189, NaN, NaN, NaN, 0.0384545, "- N/A -   "
46.52, 1956.4, 0.0776491, NaN, NaN, NaN, 0.04089605, "- N/A -   "
46.55, 1957.59, 0.0776963, NaN, NaN, NaN, 0.04211683, "- N/A -   "
46.58, 1958.67, 0.07774628, NaN, NaN, NaN, 0.04089605, "- N/A -   "
46.61, 1960.1, 0.0778018, NaN, NaN, NaN, 0.0384545, "- N/A -   "
46.64, 1961.17, 0.0778518, NaN, NaN, NaN, 0.0396753, "- N/A -   "
46.67, 1962.13, 0.077899, NaN, NaN, NaN, 0.04089605, "- N/A -   "
46.7, 1963.08, 0.07794621, NaN, NaN, NaN, 0.04089605, "- N/A -   "
46.73, 1964.03, 0.077999, NaN, NaN, NaN, 0.04089605, "- N/A -   "
46.76, 1964.63, 0.07805172, NaN, NaN, NaN, 0.0396753, "- N/A -   "
46.79, 1965.11, 0.0781017, NaN, NaN, NaN, 0.0384545, "- N/A -   "
46.82, 1964.63, 0.07815724, NaN, NaN, NaN, 0.03601294, "- N/A -   "
46.85, 23.4715, 0.07826553, NaN, NaN, NaN, 6.103888E-4, "- N/A -   "
46.88, -0.235895, 0.0786459, NaN, NaN, NaN, -0.277727, "- N/A -   "
46.91, 2.712792, 0.0786182, NaN, NaN, NaN, -0.353415, "- N/A -   "
46.93, -2.476897, 0.07852099, NaN, NaN, NaN, -0.3338827, "- N/A -   "
46.94, 0.0, 0.07846268, NaN, NaN, NaN, -0.307026, "- N/A -   "
46.95, -2.94869, 0.07840715, NaN, NaN, NaN, -0.271623, "- N/A -   "
46.96, 0.3538424, 0.07835439, NaN, NaN, NaN, -0.237441, "- N/A -   "
46.97, -3.06663, 0.07831273, NaN, NaN, NaN, -0.206922, "- N/A -   "
46.98, 0.825632, 0.0782766, NaN, NaN, NaN, -0.177623, "- N/A -   "
46.99, -1.76921, 0.0782433, NaN, NaN, NaN, -0.141, "- N/A -   "
47, -0.94358, 0.0782183, NaN, NaN, NaN, -0.11048, "- N/A -   "
47.01, -1.29742, 0.07820444, NaN, NaN, NaN, -0.08118171, "- N/A -   "
47.02, -1.53332, 0.07819334, NaN, NaN, NaN, -0.04577916, "- N/A -   "
47.03, -0.7076848, 0.0781961, NaN, NaN, NaN, -0.0128182, "- N/A -   "
47.04, -1.53332, 0.07820167, NaN, NaN, NaN, 0.0164805, "- N/A -   "
47.05, -1.17947, 0.0782128, NaN, NaN, NaN, 0.0433376, "- N/A -   "
47.06, -1.29742, 0.0782294, NaN, NaN, NaN, 0.06653238, "- N/A -   "
47.07, -1.41537, 0.0782544, NaN, NaN, NaN, 0.0872856, "- N/A -   "
47.08, -1.17947, 0.07828497, NaN, NaN, NaN, 0.106818, "- N/A -   "
47.09, -1.17947, 0.07832107, NaN, NaN, NaN, 0.122688, "- N/A -   "
47.1, -1.17947, 0.0783655, NaN, NaN, NaN, 0.133675, "- N/A -   "
47.11, -1.29742, 0.0784127, NaN, NaN, NaN, 0.132454, "- N/A -   "
47.12, -1.29742, 0.0784571, NaN, NaN, NaN, 0.1312336, "- N/A -   "
47.13, -1.17947, 0.07850433, NaN, NaN, NaN, 0.130013, "- N/A -   "
47.14, -1.41537, 0.07854877, NaN, NaN, NaN, 0.12635, "- N/A -   "
47.15, -1.29742, 0.07859319, NaN, NaN, NaN, 0.115363, "- N/A -   "
47.16, -1.29742, 0.0786348, NaN, NaN, NaN, 0.104376, "- N/A -   "
47.17, -1.17947, 0.07866816, NaN, NaN, NaN, 0.095831, "- N/A -   "
47.18, -1.29742, 0.07870426, NaN, NaN, NaN, 0.08850638, "- N/A -   "
47.19, -1.41537, 0.07873758, NaN, NaN, NaN, 0.08118171, "- N/A -   "
47.2, -1.17947, 0.0787654, NaN, NaN, NaN, 0.0750778, "- N/A -   "
47.21, -1.41537, 0.0787931, NaN, NaN, NaN, 0.07141549, "- N/A -   "
47.22, -1.17947, 0.0788153, NaN, NaN, NaN, 0.06775316, "- N/A -   "
47.23, -1.29742, 0.07883754, NaN, NaN, NaN, 0.0653116, "- N/A -   "
47.24, -1.29742, 0.07885976, NaN, NaN, NaN, 0.0640908, "- N/A -   "
47.25, -1.29742, 0.07887919, NaN, NaN, NaN, 0.06164927, "- N/A -   "
47.26, -1.29742, 0.07890141, NaN, NaN, NaN, 0.0592077, "- N/A -   "
47.27, -1.29742, 0.07892362, NaN, NaN, NaN, 0.0579869, "- N/A -   "
47.28, -1.29742, 0.07894307, NaN, NaN, NaN, 0.0555454, "- N/A -   "
47.29, -1.29742, 0.0789625, NaN, NaN, NaN, 0.0543246, "- N/A -   "
47.3, -1.29742, 0.07898193, NaN, NaN, NaN, 0.0543246, "- N/A -   "
47.31, -1.41537, 0.0790014, NaN, NaN, NaN, 0.0531038, "- N/A -   "
47.32, -1.29742, 0.07901803, NaN, NaN, NaN, 0.05188305, "- N/A -   "
47.33, -1.29742, 0.07903469, NaN, NaN, NaN, 0.05188305, "- N/A -   "
47.34, -1.29742, 0.0790541, NaN, NaN, NaN, 0.05188305, "- N/A -   "
47.35, -1.29742, 0.07907357, NaN, NaN, NaN, 0.05066227, "- N/A -   "
47.36, -1.29742, 0.07909022, NaN, NaN, NaN, 0.0494415, "- N/A -   "
47.37, -1.29742, 0.07910967, NaN, NaN, NaN, 0.0482207, "- N/A -   "
47.38, -1.29742, 0.0791291, NaN, NaN, NaN, 0.0482207, "- N/A -   "
47.39, -1.29742, 0.07914854, NaN, NaN, NaN, 0.04699994, "- N/A -   "
47.4, -1.29742, 0.07916798, NaN, NaN, NaN, 0.0445584, "- N/A -   "
47.41, -1.29742, 0.0791902, NaN, NaN, NaN, 0.0433376, "- N/A -   "
47.42, -1.29742, 0.0792096, NaN, NaN, NaN, 0.04089605, "- N/A -   "
47.43, -1.29742, 0.0792291, NaN, NaN, NaN, 0.0396753, "- N/A -   "
47.44, -1.29742, 0.07925128, NaN, NaN, NaN, 0.0384545, "- N/A -   "
47.45, -1.29742, 0.07927071, NaN, NaN, NaN, 0.03601294, "- N/A -   "
47.46, -1.29742, 0.07929016, NaN, NaN, NaN, 0.0347922, "- N/A -   "
47.47, -1.29742, 0.07930959, NaN, NaN, NaN, 0.0335714, "- N/A -   "
47.48, -1.29742, 0.07932903, NaN, NaN, NaN, 0.0335714, "- N/A -   "
47.49, -1.29742, 0.07934569, NaN, NaN, NaN, 0.0323506, "- N/A -   "
47.5, -1.29742, 0.0793624, NaN, NaN, NaN, 0.0323506, "- N/A -   "
47.51, -1.29742, 0.07937901, NaN, NaN, NaN, 0.0323506, "- N/A -   "
47.52, -1.29742, 0.0793957, NaN, NaN, NaN, 0.0323506, "- N/A -   "
47.53, -1.29742, 0.07940955, NaN, NaN, NaN, 0.0335714, "- N/A -   "
47.54, -1.29742, 0.0794262, NaN, NaN, NaN, 0.0347922, "- N/A -   "
47.55, -1.29742, 0.0794401, NaN, NaN, NaN, 0.0347922, "- N/A -   "
47.56, -1.29742, 0.07945676, NaN, NaN, NaN, 0.0347922, "- N/A -   "
47.57, -1.29742, 0.0794762, NaN, NaN, NaN, 0.0347922, "- N/A -   "
47.58, -1.17947, 0.07949286, NaN, NaN, NaN, 0.0347922, "- N/A -   "
47.59, -1.17947, 0.07950952, NaN, NaN, NaN, 0.0335714, "- N/A -   "
47.6, -1.17947, 0.07952618, NaN, NaN, NaN, 0.0335714, "- N/A -   "
47.61, -1.17947, 0.07954284, NaN, NaN, NaN, 0.0347922, "- N/A -   "
47.62, -1.17947, 0.0795595, NaN, NaN, NaN, 0.0335714, "- N/A -   "
47.63, -1.29742, 0.0795762, NaN, NaN, NaN, 0.0335714, "- N/A -   "
47.64, -1.17947, 0.0795956, NaN, NaN, NaN, 0.0335714, "- N/A -   "
47.65, -1.29742, 0.07961226, NaN, NaN, NaN, 0.0323506, "- N/A -   "
47.66, -1.17947, 0.0796289, NaN, NaN, NaN, 0.0335714, "- N/A -   "
47.67, -1.29742, 0.07964558, NaN, NaN, NaN, 0.0323506, "- N/A -   "
47.68, -1.29742, 0.07966501, NaN, NaN, NaN, 0.03112983, "- N/A -   "
47.69, -1.29742, 0.07968446, NaN, NaN, NaN, 0.0274675, "- N/A -   "
47.7, -1.17947, 0.07970111, NaN, NaN, NaN, 0.0189221, "- N/A -   "
47.71, -1.17947, 0.07971222, NaN, NaN, NaN, 0.0213636, "- N/A -   "
47.72, -1.29742, 0.0797261, NaN, NaN, NaN, 0.0225844, "- N/A -   "
47.73, -1.29742, 0.07973721, NaN, NaN, NaN, 0.0250259, "- N/A -   "
47.74, -1.29742, 0.0797511, NaN, NaN, NaN, 0.0262467, "- N/A -   "
47.75, -1.29742, 0.07976498, NaN, NaN, NaN, 0.0274675, "- N/A -   "
47.76, -1.17947, 0.0797789, NaN, NaN, NaN, 0.0286883, "- N/A -   "
47.77, -1.17947, 0.0797955, NaN, NaN, NaN, 0.0299091, "- N/A -   "
47.78, -1.17947, 0.0798094, NaN, NaN, NaN, 0.0299091, "- N/A -   "
47.79, -1.17947, 0.07982329, NaN, NaN, NaN, 0.03112983, "- N/A -   "
47.8, -1.17947, 0.0798399, NaN, NaN, NaN, 0.03112983, "- N/A -   "
47.81, -1.17947, 0.07985661, NaN, NaN, NaN, 0.0323506, "- N/A -   "
47.82, -1.29742, 0.07987327, NaN, NaN, NaN, 0.0323506, "- N/A -   "
47.83, -1.17947, 0.07988716, NaN, NaN, NaN, 0.0323506, "- N/A -   "
47.84, -1.17947, 0.07990104, NaN, NaN, NaN, 0.0335714, "- N/A -   "
47.85, -1.17947, 0.07991492, NaN, NaN, NaN, 0.0347922, "- N/A -   "
47.86, -1.17947, 0.07992881, NaN, NaN, NaN, 0.03601294, "- N/A -   "
47.87, -1.17947, 0.07994269, NaN, NaN, NaN, 0.0372337, "- N/A -   "
47.88, -1.17947, 0.0799566, NaN, NaN, NaN, 0.0384545, "- N/A -   "
47.89, -1.17947, 0.0799705, NaN, NaN, NaN, 0.0396753, "- N/A -   "
47.9, -1.17947, 0.07998434, NaN, NaN, NaN, 0.04089605, "- N/A -   "
47.91, -1.17947, 0.0799982, NaN, NaN, NaN, 0.04211683, "- N/A -   "
47.92, -1.17947, 0.0800121, NaN, NaN, NaN, 0.0433376, "- N/A -   "
47.93, -1.17947, 0.08002877, NaN, NaN, NaN, 0.0433376, "- N/A -   "
47.94, -1.17947, 0.08004543, NaN, NaN, NaN, 0.0433376, "- N/A -   "
47.95, -1.17947, 0.08006209, NaN, NaN, NaN, 0.0445584, "- N/A -   "
47.96, -1.17947, 0.08007876, NaN, NaN, NaN, 0.0445584, "- N/A -   "
47.97, -1.17947, 0.08009263, NaN, NaN, NaN, 0.0445584, "- N/A -   "
47.98, -1.17947, 0.0801093, NaN, NaN, NaN, 0.0445584, "- N/A -   "
47.99, -1.29742, 0.08012595, NaN, NaN, NaN, 0.04577916, "- N/A -   "
48, -1.17947, 0.08014262, NaN, NaN, NaN, 0.04577916, "- N/A -   "
48.01, -1.29742, 0.08015928, NaN, NaN, NaN, 0.04577916, "- N/A -   "
48.02, -1.06153, 0.0801759, NaN, NaN, NaN, 0.0445584, "- N/A -   "
48.03, -1.17947, 0.0801954, NaN, NaN, NaN, 0.0445584, "- N/A -   "
48.04, -1.17947, 0.08021481, NaN, NaN, NaN, 0.04211683, "- N/A -   "
48.05, -1.17947, 0.08023702, NaN, NaN, NaN, 0.04089605, "- N/A -   "
48.06, -1.17947, 0.08025369, NaN, NaN, NaN, 0.0396753, "- N/A -   "
48.07, -1.17947, 0.08027312, NaN, NaN, NaN, 0.0396753, "- N/A -   "
48.08, -1.17947, 0.08028979, NaN, NaN, NaN, 0.0384545, "- N/A -   "
48.09, -1.17947, 0.08030922, NaN, NaN, NaN, 0.0372337, "- N/A -   "
48.1, -1.17947, 0.0803287, NaN, NaN, NaN, 0.0372337, "- N/A -   "
48.11, -1.17947, 0.08034532, NaN, NaN, NaN, 0.0372337, "- N/A -   "
48.12, -1.06153, 0.0803592, NaN, NaN, NaN, 0.0372337, "- N/A -   "
48.13, -1.17947, 0.08037864, NaN, NaN, NaN, 0.03601294, "- N/A -   "
48.14, -1.06153, 0.0803953, NaN, NaN, NaN, 0.03601294, "- N/A -   "
48.15, -1.17947, 0.0804147, NaN, NaN, NaN, 0.03601294, "- N/A -   "
48.16, -1.17947, 0.08043418, NaN, NaN, NaN, 0.0347922, "- N/A -   "
48.17, -1.17947, 0.08045083, NaN, NaN, NaN, 0.0335714, "- N/A -   "
48.18, -1.17947, 0.0804675, NaN, NaN, NaN, 0.0335714, "- N/A -   "
48.19, -1.17947, 0.08048415, NaN, NaN, NaN, 0.0335714, "- N/A -   "
48.2, -1.17947, 0.08050082, NaN, NaN, NaN, 0.0347922, "- N/A -   "
48.21, -1.17947, 0.08051748, NaN, NaN, NaN, 0.0335714, "- N/A -   "
48.22, -1.17947, 0.08053692, NaN, NaN, NaN, 0.0323506, "- N/A -   "
48.23, -1.17947, 0.08055358, NaN, NaN, NaN, 0.0323506, "- N/A -   "
48.24, -1.29742, 0.0805702, NaN, NaN, NaN, 0.0323506, "- N/A -   "
48.25, -1.17947, 0.0805869, NaN, NaN, NaN, 0.0323506, "- N/A -   "
48.26, -1.17947, 0.0806063, NaN, NaN, NaN, 0.0323506, "- N/A -   "
48.27, -1.17947, 0.08062577, NaN, NaN, NaN, 0.03112983, "- N/A -   "
48.28, -1.17947, 0.08064243, NaN, NaN, NaN, 0.03112983, "- N/A -   "
48.29, -1.06153, 0.08065909, NaN, NaN, NaN, 0.0299091, "- N/A -   "
48.3, -1.17947, 0.08067576, NaN, NaN, NaN, 0.0299091, "- N/A -   "
48.31, -1.17947, 0.08069241, NaN, NaN, NaN, 0.0299091, "- N/A -   "
48.32, -1.17947, 0.08070908, NaN, NaN, NaN, 0.0299091, "- N/A -   "
48.33, -1.17947, 0.08072573, NaN, NaN, NaN, 0.03112983, "- N/A -   "
48.34, -1.17947, 0.08073962, NaN, NaN, NaN, 0.03112983, "- N/A -   "
48.35, -1.17947, 0.0807563, NaN, NaN, NaN, 0.03112983, "- N/A -   "
48.36, -1.17947, 0.08077294, NaN, NaN, NaN, 0.03112983, "- N/A -   "
48.37, -1.17947, 0.0807896, NaN, NaN, NaN, 0.03112983, "- N/A -   "
48.38, -1.17947, 0.080809, NaN, NaN, NaN, 0.0299091, "- N/A -   "
48.39, -1.06153, 0.08082847, NaN, NaN, NaN, 0.0299091, "- N/A -   "
48.4, -1.17947, 0.08084235, NaN, NaN, NaN, 0.0299091, "- N/A -   "
48.41, -1.17947, 0.0808618, NaN, NaN, NaN, 0.0299091, "- N/A -   "
48.42, -1.17947, 0.08087568, NaN, NaN, NaN, 0.0299091, "- N/A -   "
48.43, -1.17947, 0.08088957, NaN, NaN, NaN, 0.03112983, "- N/A -   "
48.44, -1.06153, 0.08090622, NaN, NaN, NaN, 0.03112983, "- N/A -   "
48.45, -1.17947, 0.08092011, NaN, NaN, NaN, 0.0323506, "- N/A -   "
48.46, -1.17947, 0.08093677, NaN, NaN, NaN, 0.0335714, "- N/A -   "
48.47, -1.17947, 0.08095065, NaN, NaN, NaN, 0.0335714, "- N/A -   "
48.48, -1.06153, 0.0809673, NaN, NaN, NaN, 0.0335714, "- N/A -   "
48.49, -1.17947, 0.0809812, NaN, NaN, NaN, 0.0347922, "- N/A -   "
48.5, -1.17947, 0.08099508, NaN, NaN, NaN, 0.03601294, "- N/A -   "
48.51, -1.17947, 0.081009, NaN, NaN, NaN, 0.0372337, "- N/A -   "
48.52, -1.06153, 0.08102562, NaN, NaN, NaN, 0.0384545, "- N/A -   "
48.53, -1.06153, 0.08103951, NaN, NaN, NaN, 0.0396753, "- N/A -   "
48.54, -1.17947, 0.08105339, NaN, NaN, NaN, 0.04089605, "- N/A -   "
48.55, -1.06153, 0.0810645, NaN, NaN, NaN, 0.04211683, "- N/A -   "
48.56, -1.06153, 0.08107838, NaN, NaN, NaN, 0.0433376, "- N/A -   "
48.563, -1.06153, 0.08108393, NaN, NaN, NaN, 0.0445584, "- N/A -   "