File: 2_Tensile_Data/Hamel_ForceTest_Bolt5_Test7.csv
Time, Load (lb), Position (in), AxialStrain (in), TransverseStrain (in), Auxiliary (), Control Out (V), Stress (psi)
0.0, 12.6204, 0.0, NaN, NaN, NaN, -0.006714277, "- N/A -   "
0.01, 12.7383, 2.776752E-6, NaN, NaN, NaN, -6.103888E-4, "- N/A -   "
0.02, 12.7383, 2.776752E-6, NaN, NaN, NaN, 0.006714277, "- N/A -   "
0.03, 12.7383, 5.553504E-6, NaN, NaN, NaN, 0.01525972, "- N/A -   "
0.04, 12.7383, 5.553504E-6, NaN, NaN, NaN, 0.0347922, "- N/A -   "
0.05, 12.8563, 1.38838e-05, NaN, NaN, NaN, 0.05066227, "- N/A -   "
0.06, 13.09217, 2.49908e-05, NaN, NaN, NaN, 0.0653116, "- N/A -   "
0.07, 13.446, 4.16513e-05, NaN, NaN, NaN, 0.07751938, "- N/A -   "
0.08, 13.7999, 6.386529E-5, NaN, NaN, NaN, 0.0872856, "- N/A -   "
0.09, 14.2716, 8.885606E-5, NaN, NaN, NaN, 0.095831, "- N/A -   "
0.1, 14.8614, 0.0001194, NaN, NaN, NaN, 0.103156, "- N/A -   "
0.11, 15.4511, 1.499446E-4, NaN, NaN, NaN, 0.100714, "- N/A -   "
0.12, 16.0409, 0.000180489, NaN, NaN, NaN, 0.09461027, "- N/A -   "
0.13, 16.6306, 0.00020548, NaN, NaN, NaN, 0.0897272, "- N/A -   "
0.14, 16.9844, 0.000233247, NaN, NaN, NaN, 0.08606482, "- N/A -   "
0.15, 17.5742, 2.582379E-4, NaN, NaN, NaN, 0.08240249, "- N/A -   "
0.16, 18.046, 0.000280452, NaN, NaN, NaN, 0.07874016, "- N/A -   "
0.17, 18.3998, 0.000302666, NaN, NaN, NaN, 0.0762986, "- N/A -   "
0.18, 18.8716, 0.00032488, NaN, NaN, NaN, 0.07385705, "- N/A -   "
0.19, 19.2254, 0.000349871, NaN, NaN, NaN, 0.0701947, "- N/A -   "
0.2, 19.8152, 0.000372085, NaN, NaN, NaN, 0.0689739, "- N/A -   "
0.21, 20.169, 0.000391522, NaN, NaN, NaN, 0.06653238, "- N/A -   "
0.22, 20.52286, 0.000410959, NaN, NaN, NaN, 0.0653116, "- N/A -   "
0.23, 20.7588, 4.276198E-4, NaN, NaN, NaN, 0.0653116, "- N/A -   "
0.24, 21.2305, 0.000449834, NaN, NaN, NaN, 0.0640908, "- N/A -   "
0.25, 21.5844, 0.000469271, NaN, NaN, NaN, 0.06287005, "- N/A -   "
0.26, 22.0562, 4.887083E-4, NaN, NaN, NaN, 0.0604285, "- N/A -   "
0.27, 22.41, 5.081456E-4, NaN, NaN, NaN, 0.0592077, "- N/A -   "
0.28, 22.6459, 0.00053036, NaN, NaN, NaN, 0.05676616, "- N/A -   "
0.29, 23.1177, 0.000549797, NaN, NaN, NaN, 0.0555454, "- N/A -   "
0.3, 23.4715, 0.000569234, NaN, NaN, NaN, 0.0543246, "- N/A -   "
0.31, 23.9433, 0.000591448, NaN, NaN, NaN, 0.05188305, "- N/A -   "
0.32, 24.1792, 6.136621E-4, NaN, NaN, NaN, 0.0494415, "- N/A -   "
0.33, 24.65102, 0.000635876, NaN, NaN, NaN, 0.04699994, "- N/A -   "
0.34, 25.1228, 0.00065809, NaN, NaN, NaN, 0.0445584, "- N/A -   "
0.35, 25.4767, 0.000677527, NaN, NaN, NaN, 0.0433376, "- N/A -   "
0.36, 25.8305, 6.969647E-4, NaN, NaN, NaN, 0.04211683, "- N/A -   "
0.37, 26.18434, 0.000716402, NaN, NaN, NaN, 0.04089605, "- N/A -   "
0.38, 26.5382, 0.000735839, NaN, NaN, NaN, 0.0396753, "- N/A -   "
0.39, 26.892, 7.552765E-4, NaN, NaN, NaN, 0.0396753, "- N/A -   "
0.4, 27.1279, 7.71937E-4, NaN, NaN, NaN, 0.0384545, "- N/A -   "
0.41, 27.4818, 7.885975E-4, NaN, NaN, NaN, 0.0384545, "- N/A -   "
0.42, 27.7177, 0.000805258, NaN, NaN, NaN, 0.0384545, "- N/A -   "
0.43, 28.0715, 8.246953E-4, NaN, NaN, NaN, 0.0372337, "- N/A -   "
0.44, 28.42534, 8.413558E-4, NaN, NaN, NaN, 0.0372337, "- N/A -   "
0.45, 28.7792, 8.580163E-4, NaN, NaN, NaN, 0.0372337, "- N/A -   "
0.46, 29.0151, 8.746768E-4, NaN, NaN, NaN, 0.0372337, "- N/A -   "
0.47, 29.251, 8.941141E-4, NaN, NaN, NaN, 0.0372337, "- N/A -   "
0.48, 29.7228, 9.107746E-4, NaN, NaN, NaN, 0.03601294, "- N/A -   "
0.5, 30.3125, 0.000946872, NaN, NaN, NaN, 0.0347922, "- N/A -   "
0.52, 31.0202, 9.829701E-4, NaN, NaN, NaN, 0.0335714, "- N/A -   "
0.54, 31.72787, 0.00102184, NaN, NaN, NaN, 0.03112983, "- N/A -   "
0.56, 32.1997, 0.00105517, NaN, NaN, NaN, 0.03112983, "- N/A -   "
0.58, 32.9073, 0.00109126, NaN, NaN, NaN, 0.0299091, "- N/A -   "
0.6, 33.49708, 0.00112736, NaN, NaN, NaN, 0.0286883, "- N/A -   "
0.62, 34.08682, 0.00115791, NaN, NaN, NaN, 0.0299091, "- N/A -   "
0.64, 34.6766, 0.00118845, NaN, NaN, NaN, 0.0323506, "- N/A -   "
0.66, 35.1483, 0.00121622, NaN, NaN, NaN, 0.0335714, "- N/A -   "
0.68, 35.7381, 0.00124676, NaN, NaN, NaN, 0.0347922, "- N/A -   "
0.7, 36.2099, 0.00127731, NaN, NaN, NaN, 0.03601294, "- N/A -   "
0.72, 36.6817, 0.00130507, NaN, NaN, NaN, 0.0384545, "- N/A -   "
0.74, 37.15345, 0.00133562, NaN, NaN, NaN, 0.0396753, "- N/A -   "
0.76, 37.74319, 0.00136339, NaN, NaN, NaN, 0.0433376, "- N/A -   "
0.78, 38.215, 0.00139115, NaN, NaN, NaN, 0.04577916, "- N/A -   "
0.8, 38.8047, 0.00141892, NaN, NaN, NaN, 0.04699994, "- N/A -   "
0.82, 39.3945, 0.00145224, NaN, NaN, NaN, 0.04699994, "- N/A -   "
0.84, 39.8662, 0.00148279, NaN, NaN, NaN, 0.0482207, "- N/A -   "
0.86, 40.456, 0.00151611, NaN, NaN, NaN, 0.0482207, "- N/A -   "
0.88, 41.04572, 0.0015522, NaN, NaN, NaN, 0.0482207, "- N/A -   "
0.9, 41.7534, 0.0015883, NaN, NaN, NaN, 0.04577916, "- N/A -   "
0.92, 42.579, 0.00162995, NaN, NaN, NaN, 0.04211683, "- N/A -   "
0.94, 43.2867, 0.00166883, NaN, NaN, NaN, 0.0396753, "- N/A -   "
0.96, 43.9944, 0.0017077, NaN, NaN, NaN, 0.0372337, "- N/A -   "
0.98, 44.70209, 0.00174658, NaN, NaN, NaN, 0.0347922, "- N/A -   "
1, 45.29183, 0.00178267, NaN, NaN, NaN, 0.0335714, "- N/A -   "
1.02, 45.8816, 0.001816, NaN, NaN, NaN, 0.0335714, "- N/A -   "
1.04, 46.4713, 0.00184932, NaN, NaN, NaN, 0.0335714, "- N/A -   "
1.06, 47.179, 0.00188819, NaN, NaN, NaN, 0.0323506, "- N/A -   "
1.08, 47.5328, 0.00192151, NaN, NaN, NaN, 0.03112983, "- N/A -   "
1.1, 48.2405, 0.00195761, NaN, NaN, NaN, 0.0299091, "- N/A -   "
1.12, 48.9482, 0.00199371, NaN, NaN, NaN, 0.0286883, "- N/A -   "
1.14, 49.41999, 0.002024252, NaN, NaN, NaN, 0.0299091, "- N/A -   "
1.16, 49.8918, 0.002057573, NaN, NaN, NaN, 0.0299091, "- N/A -   "
1.18, 50.5995, 0.00209089, NaN, NaN, NaN, 0.0299091, "- N/A -   "
1.2, 51.0713, 0.00212422, NaN, NaN, NaN, 0.0299091, "- N/A -   "
1.22, 51.66099, 0.00216031, NaN, NaN, NaN, 0.0286883, "- N/A -   "
1.24, 52.25073, 0.00219641, NaN, NaN, NaN, 0.0286883, "- N/A -   "
1.26, 52.84047, 0.002226955, NaN, NaN, NaN, 0.0286883, "- N/A -   "
1.28, 53.3123, 0.0022575, NaN, NaN, NaN, 0.0299091, "- N/A -   "
1.3, 53.902, 0.00228804, NaN, NaN, NaN, 0.0323506, "- N/A -   "
1.32, 54.3738, 0.00231303, NaN, NaN, NaN, 0.0347922, "- N/A -   "
1.34, 54.7276, 0.0023408, NaN, NaN, NaN, 0.0372337, "- N/A -   "
1.36, 55.1994, 0.00236857, NaN, NaN, NaN, 0.0396753, "- N/A -   "
1.38, 55.7892, 0.00239634, NaN, NaN, NaN, 0.04211683, "- N/A -   "
1.4, 56.2609, 0.002426881, NaN, NaN, NaN, 0.0433376, "- N/A -   "
1.42, 56.73273, 0.00245743, NaN, NaN, NaN, 0.0445584, "- N/A -   "
1.44, 57.20452, 0.00248797, NaN, NaN, NaN, 0.04577916, "- N/A -   "
1.46, 57.91221, 0.00252129, NaN, NaN, NaN, 0.04577916, "- N/A -   "
1.48, 58.5019, 0.00255739, NaN, NaN, NaN, 0.04577916, "- N/A -   "
1.5, 59.2096, 0.00259071, NaN, NaN, NaN, 0.0445584, "- N/A -   "
1.52, 59.68142, 0.00262403, NaN, NaN, NaN, 0.0445584, "- N/A -   "
1.54, 60.27116, 0.00265735, NaN, NaN, NaN, 0.0445584, "- N/A -   "
1.56, 60.8609, 0.00269067, NaN, NaN, NaN, 0.0445584, "- N/A -   "
1.58, 61.56858, 0.00272677, NaN, NaN, NaN, 0.0433376, "- N/A -   "
1.6, 62.2763, 0.00276287, NaN, NaN, NaN, 0.04211683, "- N/A -   "
1.62, 62.866, 0.002798966, NaN, NaN, NaN, 0.04211683, "- N/A -   "
1.64, 63.45574, 0.00283506, NaN, NaN, NaN, 0.04089605, "- N/A -   "
1.66, 64.16342, 0.00287116, NaN, NaN, NaN, 0.0384545, "- N/A -   "
1.68, 64.87111, 0.00291281, NaN, NaN, NaN, 0.0347922, "- N/A -   "
1.7, 65.69674, 0.002954464, NaN, NaN, NaN, 0.0323506, "- N/A -   "
1.72, 66.2865, 0.00299334, NaN, NaN, NaN, 0.0299091, "- N/A -   "
1.74, 66.99416, 0.00302388, NaN, NaN, NaN, 0.0299091, "- N/A -   "
1.76, 67.46596, 0.003057204, NaN, NaN, NaN, 0.03112983, "- N/A -   "
1.78, 68.05569, 0.00309052, NaN, NaN, NaN, 0.0299091, "- N/A -   "
1.8, 68.7634, 0.003123846, NaN, NaN, NaN, 0.0299091, "- N/A -   "
1.82, 69.23517, 0.003157167, NaN, NaN, NaN, 0.0299091, "- N/A -   "
1.84, 69.707, 0.00318771, NaN, NaN, NaN, 0.0323506, "- N/A -   "
1.86, 70.17874, 0.00321548, NaN, NaN, NaN, 0.0335714, "- N/A -   "
1.88, 70.7685, 0.0032488, NaN, NaN, NaN, 0.0335714, "- N/A -   "
1.9, 71.4762, 0.003279344, NaN, NaN, NaN, 0.0347922, "- N/A -   "
1.92, 72.06591, 0.003309888, NaN, NaN, NaN, 0.03601294, "- N/A -   "
1.94, 72.77359, 0.00334599, NaN, NaN, NaN, 0.03601294, "- N/A -   "
1.96, 73.36333, 0.003379307, NaN, NaN, NaN, 0.0347922, "- N/A -   "
1.98, 73.9531, 0.003409851, NaN, NaN, NaN, 0.03601294, "- N/A -   "
2, 74.5428, 0.00344317, NaN, NaN, NaN, 0.03601294, "- N/A -   "
2.02, 75.0146, 0.00347649, NaN, NaN, NaN, 0.03601294, "- N/A -   "
2.04, 75.7223, 0.00350981, NaN, NaN, NaN, 0.03601294, "- N/A -   "
2.06, 76.31202, 0.00354036, NaN, NaN, NaN, 0.0372337, "- N/A -   "
2.08, 76.7838, 0.0035709, NaN, NaN, NaN, 0.0396753, "- N/A -   "
2.1, 77.25559, 0.00360145, NaN, NaN, NaN, 0.04089605, "- N/A -   "
2.12, 77.96328, 0.00362921, NaN, NaN, NaN, 0.04211683, "- N/A -   "
2.14, 78.55301, 0.00366254, NaN, NaN, NaN, 0.0433376, "- N/A -   "
2.16, 79.14275, 0.00369308, NaN, NaN, NaN, 0.0433376, "- N/A -   "
2.18, 79.61454, 0.00372085, NaN, NaN, NaN, 0.04577916, "- N/A -   "
2.2, 80.20428, 0.00375417, NaN, NaN, NaN, 0.04699994, "- N/A -   "
2.22, 80.794, 0.00378749, NaN, NaN, NaN, 0.04577916, "- N/A -   "
2.24, 81.5017, 0.00382081, NaN, NaN, NaN, 0.04577916, "- N/A -   "
2.26, 82.32734, 0.003859685, NaN, NaN, NaN, 0.0433376, "- N/A -   "
2.28, 83.03502, 0.00390134, NaN, NaN, NaN, 0.0396753, "- N/A -   "
2.3, 83.86065, 0.00394299, NaN, NaN, NaN, 0.0372337, "- N/A -   "
2.32, 84.45039, 0.003981862, NaN, NaN, NaN, 0.0335714, "- N/A -   "
2.34, 85.276, 0.00402074, NaN, NaN, NaN, 0.0323506, "- N/A -   "
2.36, 85.86576, 0.00405961, NaN, NaN, NaN, 0.0299091, "- N/A -   "
2.38, 86.57345, 0.004092932, NaN, NaN, NaN, 0.0286883, "- N/A -   "
2.4, 87.16318, 0.00412903, NaN, NaN, NaN, 0.0286883, "- N/A -   "
2.42, 87.63497, 0.00415957, NaN, NaN, NaN, 0.0299091, "- N/A -   "
2.44, 88.10676, 0.004187342, NaN, NaN, NaN, 0.03112983, "- N/A -   "
2.46, 88.8144, 0.00422066, NaN, NaN, NaN, 0.03112983, "- N/A -   "
2.48, 89.40418, 0.004251207, NaN, NaN, NaN, 0.0323506, "- N/A -   "
2.5, 89.99392, 0.00428175, NaN, NaN, NaN, 0.0335714, "- N/A -   "
2.52, 90.4657, 0.004312296, NaN, NaN, NaN, 0.0347922, "- N/A -   "
2.54, 91.05545, 0.00434284, NaN, NaN, NaN, 0.03601294, "- N/A -   "
2.56, 91.64519, 0.004376161, NaN, NaN, NaN, 0.03601294, "- N/A -   "
2.58, 92.35287, 0.004412259, NaN, NaN, NaN, 0.0347922, "- N/A -   "
2.6, 93.1785, 0.00445113, NaN, NaN, NaN, 0.0335714, "- N/A -   "
2.62, 93.8862, 0.00449001, NaN, NaN, NaN, 0.03112983, "- N/A -   "
2.64, 94.59387, 0.004523329, NaN, NaN, NaN, 0.0299091, "- N/A -   "
2.66, 95.06567, 0.004553873, NaN, NaN, NaN, 0.03112983, "- N/A -   "
2.68, 95.6554, 0.004584417, NaN, NaN, NaN, 0.0323506, "- N/A -   "
2.7, 96.12719, 0.00461774, NaN, NaN, NaN, 0.0335714, "- N/A -   "
2.72, 96.71693, 0.004645506, NaN, NaN, NaN, 0.0347922, "- N/A -   "
2.74, 97.18872, 0.00467327, NaN, NaN, NaN, 0.0372337, "- N/A -   "
2.76, 97.6605, 0.004698264, NaN, NaN, NaN, 0.04089605, "- N/A -   "
2.78, 98.13229, 0.00472881, NaN, NaN, NaN, 0.04211683, "- N/A -   "
2.8, 98.72203, 0.00475935, NaN, NaN, NaN, 0.0433376, "- N/A -   "
2.82, 99.3118, 0.00479545, NaN, NaN, NaN, 0.0433376, "- N/A -   "
2.84, 100.019, 0.00483155, NaN, NaN, NaN, 0.04211683, "- N/A -   "
2.86, 100.727, 0.004864869, NaN, NaN, NaN, 0.04089605, "- N/A -   "
2.88, 101.435, 0.00489819, NaN, NaN, NaN, 0.04089605, "- N/A -   "
2.9, 102.143, 0.004934288, NaN, NaN, NaN, 0.0396753, "- N/A -   "
2.92, 102.732, 0.004967609, NaN, NaN, NaN, 0.0396753, "- N/A -   "
2.94, 103.44, 0.005003707, NaN, NaN, NaN, 0.0384545, "- N/A -   "
2.96, 104.148, 0.0050398, NaN, NaN, NaN, 0.0372337, "- N/A -   "
2.98, 104.737, 0.005075902, NaN, NaN, NaN, 0.03601294, "- N/A -   "
3, 105.327, 0.00510645, NaN, NaN, NaN, 0.0372337, "- N/A -   "
3.02, 105.917, 0.00514254, NaN, NaN, NaN, 0.03601294, "- N/A -   "
3.04, 106.625, 0.00517587, NaN, NaN, NaN, 0.03601294, "- N/A -   "
3.06, 107.214, 0.00520919, NaN, NaN, NaN, 0.03601294, "- N/A -   "
3.08, 107.804, 0.00524251, NaN, NaN, NaN, 0.03601294, "- N/A -   "
3.1, 108.276, 0.00527305, NaN, NaN, NaN, 0.0372337, "- N/A -   "
3.12, 108.866, 0.00530637, NaN, NaN, NaN, 0.0372337, "- N/A -   "
3.14, 109.5732, 0.00534247, NaN, NaN, NaN, 0.0372337, "- N/A -   "
3.16, 110.399, 0.00538135, NaN, NaN, NaN, 0.0335714, "- N/A -   "
3.18, 110.989, 0.00541744, NaN, NaN, NaN, 0.0323506, "- N/A -   "
3.2, 111.696, 0.00545354, NaN, NaN, NaN, 0.03112983, "- N/A -   "
3.22, 112.404, 0.00548964, NaN, NaN, NaN, 0.0299091, "- N/A -   "
3.24, 112.876, 0.00552018, NaN, NaN, NaN, 0.0323506, "- N/A -   "
3.26, 113.348, 0.005550727, NaN, NaN, NaN, 0.0323506, "- N/A -   "
3.28, 114.055, 0.00558405, NaN, NaN, NaN, 0.0323506, "- N/A -   "
3.3, 114.645, 0.00562015, NaN, NaN, NaN, 0.03112983, "- N/A -   "
3.32, 115.235, 0.00565069, NaN, NaN, NaN, 0.0323506, "- N/A -   "
3.34, 115.706, 0.00568123, NaN, NaN, NaN, 0.0335714, "- N/A -   "
3.36, 116.296, 0.00571456, NaN, NaN, NaN, 0.0335714, "- N/A -   "
3.38, 116.886, 0.00574788, NaN, NaN, NaN, 0.0335714, "- N/A -   "
3.4, 117.476, 0.0057812, NaN, NaN, NaN, 0.0335714, "- N/A -   "
3.42, 118.065, 0.005814519, NaN, NaN, NaN, 0.0335714, "- N/A -   "
3.44, 118.655, 0.00584784, NaN, NaN, NaN, 0.0335714, "- N/A -   "
3.46, 119.127, 0.005875607, NaN, NaN, NaN, 0.03601294, "- N/A -   "
3.48, 119.717, 0.00590337, NaN, NaN, NaN, 0.0384545, "- N/A -   "
3.5, 120.188, 0.0059367, NaN, NaN, NaN, 0.0384545, "- N/A -   "
3.52, 120.778, 0.00597002, NaN, NaN, NaN, 0.0396753, "- N/A -   "
3.54, 121.486, 0.005997784, NaN, NaN, NaN, 0.04089605, "- N/A -   "
3.56, 121.958, 0.006028328, NaN, NaN, NaN, 0.04211683, "- N/A -   "
3.58, 122.547, 0.00605887, NaN, NaN, NaN, 0.0445584, "- N/A -   "
3.6, 123.137, 0.006089417, NaN, NaN, NaN, 0.0445584, "- N/A -   "
3.62, 123.845, 0.00612274, NaN, NaN, NaN, 0.04577916, "- N/A -   "
3.64, 124.435, 0.006156059, NaN, NaN, NaN, 0.04577916, "- N/A -   "
3.66, 125.024, 0.006192157, NaN, NaN, NaN, 0.0445584, "- N/A -   "
3.68, 125.732, 0.006231031, NaN, NaN, NaN, 0.0433376, "- N/A -   "
3.7, 126.44, 0.006267129, NaN, NaN, NaN, 0.04089605, "- N/A -   "
3.72, 127.147, 0.006303227, NaN, NaN, NaN, 0.0396753, "- N/A -   "
3.74, 127.855, 0.006344878, NaN, NaN, NaN, 0.03601294, "- N/A -   "
3.76, 128.563, 0.00638375, NaN, NaN, NaN, 0.0347922, "- N/A -   "
3.78, 129.27, 0.00641707, NaN, NaN, NaN, 0.0335714, "- N/A -   "
3.8, 129.742, 0.006450394, NaN, NaN, NaN, 0.0335714, "- N/A -   "
3.82, 130.332, 0.006480939, NaN, NaN, NaN, 0.0347922, "- N/A -   "
3.84, 130.922, 0.00651704, NaN, NaN, NaN, 0.0347922, "- N/A -   "
3.86, 131.511, 0.006550357, NaN, NaN, NaN, 0.0347922, "- N/A -   "
3.88, 132.101, 0.0065809, NaN, NaN, NaN, 0.0347922, "- N/A -   "
3.9, 132.6909, 0.006617, NaN, NaN, NaN, 0.0347922, "- N/A -   "
3.92, 133.399, 0.006650321, NaN, NaN, NaN, 0.0335714, "- N/A -   "
3.94, 134.106, 0.006683642, NaN, NaN, NaN, 0.0335714, "- N/A -   "
3.96, 134.814, 0.00672252, NaN, NaN, NaN, 0.0323506, "- N/A -   "
3.98, 135.4037, 0.006758614, NaN, NaN, NaN, 0.03112983, "- N/A -   "
4, 135.993, 0.00679194, NaN, NaN, NaN, 0.0299091, "- N/A -   "
4.02, 136.583, 0.006825256, NaN, NaN, NaN, 0.0299091, "- N/A -   "
4.04, 137.291, 0.00685858, NaN, NaN, NaN, 0.0299091, "- N/A -   "
4.06, 137.999, 0.0068919, NaN, NaN, NaN, 0.0299091, "- N/A -   "
4.08, 138.47, 0.00691967, NaN, NaN, NaN, 0.0323506, "- N/A -   "
4.1, 138.824, 0.00695021, NaN, NaN, NaN, 0.0335714, "- N/A -   "
4.12, 139.414, 0.006977977, NaN, NaN, NaN, 0.03601294, "- N/A -   "
4.14, 139.768, 0.00700297, NaN, NaN, NaN, 0.0396753, "- N/A -   "
4.16, 140.24, 0.00702796, NaN, NaN, NaN, 0.0433376, "- N/A -   "
4.18, 140.829, 0.0070585, NaN, NaN, NaN, 0.04577916, "- N/A -   "
4.2, 141.301, 0.00708905, NaN, NaN, NaN, 0.04577916, "- N/A -   "
4.22, 142.009, 0.00712237, NaN, NaN, NaN, 0.04699994, "- N/A -   "
4.24, 142.5985, 0.00715291, NaN, NaN, NaN, 0.04699994, "- N/A -   "
4.26, 143.188, 0.00718623, NaN, NaN, NaN, 0.04699994, "- N/A -   "
4.28, 143.896, 0.00722511, NaN, NaN, NaN, 0.0445584, "- N/A -   "
4.3, 144.604, 0.00726121, NaN, NaN, NaN, 0.0433376, "- N/A -   "
4.32, 145.429, 0.0072973, NaN, NaN, NaN, 0.04211683, "- N/A -   "
4.34, 146.137, 0.00733896, NaN, NaN, NaN, 0.0396753, "- N/A -   "
4.36, 146.8446, 0.00737505, NaN, NaN, NaN, 0.0372337, "- N/A -   "
4.38, 147.316, 0.00741115, NaN, NaN, NaN, 0.03601294, "- N/A -   "
4.4, 148.024, 0.00744447, NaN, NaN, NaN, 0.03601294, "- N/A -   "
4.42, 148.732, 0.007477793, NaN, NaN, NaN, 0.03601294, "- N/A -   "
4.44, 149.3215, 0.007511114, NaN, NaN, NaN, 0.03601294, "- N/A -   "
4.46, 149.911, 0.00754443, NaN, NaN, NaN, 0.03601294, "- N/A -   "
4.48, 150.501, 0.007577756, NaN, NaN, NaN, 0.03601294, "- N/A -   "
4.5, 151.209, 0.00761385, NaN, NaN, NaN, 0.0347922, "- N/A -   "
4.52, 151.68, 0.00764995, NaN, NaN, NaN, 0.0347922, "- N/A -   "
4.54, 152.506, 0.007688826, NaN, NaN, NaN, 0.0323506, "- N/A -   "
4.56, 153.332, 0.007724924, NaN, NaN, NaN, 0.03112983, "- N/A -   "
4.58, 154.0394, 0.007758245, NaN, NaN, NaN, 0.0299091, "- N/A -   "
4.6, 154.511, 0.00779157, NaN, NaN, NaN, 0.0299091, "- N/A -   "
4.62, 155.101, 0.007824887, NaN, NaN, NaN, 0.0299091, "- N/A -   "
4.64, 155.809, 0.007860985, NaN, NaN, NaN, 0.0286883, "- N/A -   "
4.66, 156.398, 0.007897082, NaN, NaN, NaN, 0.0286883, "- N/A -   "
4.68, 157.224, 0.007930404, NaN, NaN, NaN, 0.0274675, "- N/A -   "
4.7, 157.814, 0.007960948, NaN, NaN, NaN, 0.0286883, "- N/A -   "
4.72, 158.168, 0.007988716, NaN, NaN, NaN, 0.03112983, "- N/A -   "
4.74, 158.639, 0.008016483, NaN, NaN, NaN, 0.0335714, "- N/A -   "
4.76, 159.229, 0.00804425, NaN, NaN, NaN, 0.03601294, "- N/A -   "
4.78, 159.583, 0.008069241, NaN, NaN, NaN, 0.0396753, "- N/A -   "
4.8, 160.173, 0.008099785, NaN, NaN, NaN, 0.04211683, "- N/A -   "
4.82, 160.644, 0.008127553, NaN, NaN, NaN, 0.0433376, "- N/A -   "
4.84, 161.352, 0.008158097, NaN, NaN, NaN, 0.0445584, "- N/A -   "
4.86, 161.942, 0.008188642, NaN, NaN, NaN, 0.04577916, "- N/A -   "
4.88, 162.532, 0.008224739, NaN, NaN, NaN, 0.0445584, "- N/A -   "
4.9, 163.121, 0.008260837, NaN, NaN, NaN, 0.0433376, "- N/A -   "
4.92, 163.829, 0.008294158, NaN, NaN, NaN, 0.0433376, "- N/A -   "
4.94, 164.537, 0.00832748, NaN, NaN, NaN, 0.0433376, "- N/A -   "
4.96, 165.009, 0.008358023, NaN, NaN, NaN, 0.0445584, "- N/A -   "
4.98, 165.598, 0.008391344, NaN, NaN, NaN, 0.0445584, "- N/A -   "
5, 166.306, 0.008424665, NaN, NaN, NaN, 0.0445584, "- N/A -   "
5.02, 167.014, 0.008460763, NaN, NaN, NaN, 0.0433376, "- N/A -   "
5.04, 167.603, 0.008499637, NaN, NaN, NaN, 0.04211683, "- N/A -   "
5.06, 168.429, 0.008532958, NaN, NaN, NaN, 0.04089605, "- N/A -   "
5.08, 169.137, 0.00857461, NaN, NaN, NaN, 0.0372337, "- N/A -   "
5.1, 169.844, 0.008616261, NaN, NaN, NaN, 0.0335714, "- N/A -   "
5.12, 170.67, 0.008657913, NaN, NaN, NaN, 0.0299091, "- N/A -   "
5.14, 171.26, 0.008691234, NaN, NaN, NaN, 0.0299091, "- N/A -   "
5.16, 171.9674, 0.008727332, NaN, NaN, NaN, 0.0286883, "- N/A -   "
5.18, 172.6751, 0.00876065, NaN, NaN, NaN, 0.0286883, "- N/A -   "
5.2, 173.265, 0.008791196, NaN, NaN, NaN, 0.0299091, "- N/A -   "
5.22, 173.855, 0.008827294, NaN, NaN, NaN, 0.0286883, "- N/A -   "
5.24, 174.4443, 0.008860615, NaN, NaN, NaN, 0.0286883, "- N/A -   "
5.26, 175.034, 0.008893937, NaN, NaN, NaN, 0.0286883, "- N/A -   "
5.28, 175.742, 0.00892448, NaN, NaN, NaN, 0.0299091, "- N/A -   "
5.3, 176.214, 0.008955025, NaN, NaN, NaN, 0.0323506, "- N/A -   "
5.32, 176.6853, 0.00898279, NaN, NaN, NaN, 0.0335714, "- N/A -   "
5.34, 177.393, 0.009013337, NaN, NaN, NaN, 0.0347922, "- N/A -   "
5.36, 177.865, 0.009043881, NaN, NaN, NaN, 0.03601294, "- N/A -   "
5.38, 178.455, 0.009071649, NaN, NaN, NaN, 0.0384545, "- N/A -   "
5.4, 179.044, 0.009107746, NaN, NaN, NaN, 0.0372337, "- N/A -   "
5.42, 179.634, 0.009141067, NaN, NaN, NaN, 0.0372337, "- N/A -   "
5.44, 180.46, 0.009177165, NaN, NaN, NaN, 0.03601294, "- N/A -   "
5.46, 181.049, 0.009210486, NaN, NaN, NaN, 0.03601294, "- N/A -   "
5.48, 181.639, 0.009243807, NaN, NaN, NaN, 0.03601294, "- N/A -   "
5.5, 182.229, 0.009274351, NaN, NaN, NaN, 0.0372337, "- N/A -   "
5.52, 182.701, 0.009304896, NaN, NaN, NaN, 0.0396753, "- N/A -   "
5.54, 183.172, 0.009332663, NaN, NaN, NaN, 0.04089605, "- N/A -   "
5.56, 183.8801, 0.009363207, NaN, NaN, NaN, 0.04211683, "- N/A -   "
5.58, 184.47, 0.009393752, NaN, NaN, NaN, 0.0433376, "- N/A -   "
5.6, 184.942, 0.009424296, NaN, NaN, NaN, 0.0445584, "- N/A -   "
5.62, 185.531, 0.009457617, NaN, NaN, NaN, 0.0445584, "- N/A -   "
5.64, 186.357, 0.009493715, NaN, NaN, NaN, 0.0433376, "- N/A -   "
5.66, 186.947, 0.009527036, NaN, NaN, NaN, 0.0433376, "- N/A -   "
5.68, 187.772, 0.00956591, NaN, NaN, NaN, 0.04089605, "- N/A -   "
5.7, 188.598, 0.009607561, NaN, NaN, NaN, 0.0372337, "- N/A -   "
5.72, 189.3057, 0.00964921, NaN, NaN, NaN, 0.0347922, "- N/A -   "
5.74, 189.895, 0.009685311, NaN, NaN, NaN, 0.0323506, "- N/A -   "
5.76, 190.603, 0.009721409, NaN, NaN, NaN, 0.0323506, "- N/A -   "
5.78, 191.311, 0.009754729, NaN, NaN, NaN, 0.03112983, "- N/A -   "
5.8, 191.7826, 0.009790827, NaN, NaN, NaN, 0.0299091, "- N/A -   "
5.82, 192.49, 0.009821372, NaN, NaN, NaN, 0.03112983, "- N/A -   "
5.84, 192.962, 0.009851916, NaN, NaN, NaN, 0.0323506, "- N/A -   "
5.86, 193.5518, 0.00988246, NaN, NaN, NaN, 0.0335714, "- N/A -   "
5.88, 194.259, 0.009913004, NaN, NaN, NaN, 0.0347922, "- N/A -   "
5.9, 194.849, 0.009946325, NaN, NaN, NaN, 0.0347922, "- N/A -   "
5.92, 195.439, 0.00997687, NaN, NaN, NaN, 0.03601294, "- N/A -   "
5.94, 196.0287, 0.01001019, NaN, NaN, NaN, 0.03601294, "- N/A -   "
5.96, 196.736, 0.0100435, NaN, NaN, NaN, 0.03601294, "- N/A -   "
5.98, 197.444, 0.0100796, NaN, NaN, NaN, 0.0347922, "- N/A -   "
6, 198.034, 0.0101157, NaN, NaN, NaN, 0.0347922, "- N/A -   "
6.02, 198.741, 0.010149, NaN, NaN, NaN, 0.0335714, "- N/A -   "
6.04, 199.331, 0.0101851, NaN, NaN, NaN, 0.0323506, "- N/A -   "
6.06, 200.039, 0.0102184, NaN, NaN, NaN, 0.0323506, "- N/A -   "
6.08, 200.7466, 0.0102518, NaN, NaN, NaN, 0.0323506, "- N/A -   "
6.1, 201.336, 0.0102851, NaN, NaN, NaN, 0.0335714, "- N/A -   "
6.12, 201.808, 0.0103129, NaN, NaN, NaN, 0.0347922, "- N/A -   "
6.14, 202.516, 0.0103434, NaN, NaN, NaN, 0.03601294, "- N/A -   "
6.16, 202.9876, 0.0103712, NaN, NaN, NaN, 0.0384545, "- N/A -   "
6.18, 203.459, 0.0103989, NaN, NaN, NaN, 0.04211683, "- N/A -   "
6.2, 204.049, 0.01042948, NaN, NaN, NaN, 0.0433376, "- N/A -   "
6.22, 204.639, 0.01046, NaN, NaN, NaN, 0.0433376, "- N/A -   "
6.24, 205.347, 0.0104933, NaN, NaN, NaN, 0.0433376, "- N/A -   "
6.26, 206.172, 0.0105294, NaN, NaN, NaN, 0.04211683, "- N/A -   "
6.28, 206.88, 0.0105655, NaN, NaN, NaN, 0.04089605, "- N/A -   "
6.3, 207.4696, 0.0106016, NaN, NaN, NaN, 0.0396753, "- N/A -   "
6.32, 208.177, 0.010635, NaN, NaN, NaN, 0.0396753, "- N/A -   "
6.34, 208.767, 0.0106683, NaN, NaN, NaN, 0.0396753, "- N/A -   "
6.36, 209.593, 0.0107072, NaN, NaN, NaN, 0.0372337, "- N/A -   "
6.38, 210.182, 0.0107433, NaN, NaN, NaN, 0.0372337, "- N/A -   "
6.4, 210.89, 0.0107766, NaN, NaN, NaN, 0.0372337, "- N/A -   "
6.42, 211.48, 0.0108099, NaN, NaN, NaN, 0.03601294, "- N/A -   "
6.44, 212.1875, 0.0108432, NaN, NaN, NaN, 0.03601294, "- N/A -   "
6.46, 212.895, 0.0108765, NaN, NaN, NaN, 0.03601294, "- N/A -   "
6.48, 213.485, 0.0109126, NaN, NaN, NaN, 0.03601294, "- N/A -   "
6.5, 214.075, 0.0109404, NaN, NaN, NaN, 0.0372337, "- N/A -   "
6.52, 214.6644, 0.0109765, NaN, NaN, NaN, 0.03601294, "- N/A -   "
6.54, 215.372, 0.0110126, NaN, NaN, NaN, 0.03601294, "- N/A -   "
6.56, 216.08, 0.0110459, NaN, NaN, NaN, 0.0347922, "- N/A -   "
6.58, 216.67, 0.01107924, NaN, NaN, NaN, 0.0347922, "- N/A -   "
6.6, 217.495, 0.0111153, NaN, NaN, NaN, 0.0335714, "- N/A -   "
6.62, 218.085, 0.0111514, NaN, NaN, NaN, 0.0335714, "- N/A -   "
6.64, 218.9105, 0.0111875, NaN, NaN, NaN, 0.0323506, "- N/A -   "
6.66, 219.5, 0.0112209, NaN, NaN, NaN, 0.03112983, "- N/A -   "
6.68, 220.09, 0.0112542, NaN, NaN, NaN, 0.03112983, "- N/A -   "
6.7, 220.68, 0.0112847, NaN, NaN, NaN, 0.0323506, "- N/A -   "
6.72, 221.269, 0.0113153, NaN, NaN, NaN, 0.0335714, "- N/A -   "
6.74, 221.977, 0.0113458, NaN, NaN, NaN, 0.0347922, "- N/A -   "
6.76, 222.685, 0.0113819, NaN, NaN, NaN, 0.0335714, "- N/A -   "
6.78, 223.157, 0.01141245, NaN, NaN, NaN, 0.0347922, "- N/A -   "
6.8, 223.8643, 0.0114458, NaN, NaN, NaN, 0.0347922, "- N/A -   "
6.82, 224.454, 0.0114819, NaN, NaN, NaN, 0.0347922, "- N/A -   "
6.84, 225.162, 0.0115124, NaN, NaN, NaN, 0.0347922, "- N/A -   "
6.86, 225.751, 0.011543, NaN, NaN, NaN, 0.03601294, "- N/A -   "
6.88, 226.459, 0.0115735, NaN, NaN, NaN, 0.0372337, "- N/A -   "
6.9, 226.931, 0.0116068, NaN, NaN, NaN, 0.0372337, "- N/A -   "
6.92, 227.521, 0.0116401, NaN, NaN, NaN, 0.0384545, "- N/A -   "
6.94, 228.228, 0.0116707, NaN, NaN, NaN, 0.0396753, "- N/A -   "
6.96, 228.818, 0.0116985, NaN, NaN, NaN, 0.04089605, "- N/A -   "
6.98, 229.408, 0.011729, NaN, NaN, NaN, 0.04211683, "- N/A -   "
7, 229.998, 0.0117623, NaN, NaN, NaN, 0.0433376, "- N/A -   "
7.02, 230.587, 0.0117929, NaN, NaN, NaN, 0.0433376, "- N/A -   "
7.04, 231.177, 0.0118234, NaN, NaN, NaN, 0.0445584, "- N/A -   "
7.06, 232.003, 0.0118595, NaN, NaN, NaN, 0.0433376, "- N/A -   "
7.08, 232.828, 0.0118956, NaN, NaN, NaN, 0.04211683, "- N/A -   "
7.1, 233.536, 0.01193448, NaN, NaN, NaN, 0.0396753, "- N/A -   "
7.12, 234.126, 0.0119734, NaN, NaN, NaN, 0.0372337, "- N/A -   "
7.14, 234.951, 0.0120122, NaN, NaN, NaN, 0.03601294, "- N/A -   "
7.16, 235.777, 0.0120483, NaN, NaN, NaN, 0.0335714, "- N/A -   "
7.18, 236.485, 0.0120844, NaN, NaN, NaN, 0.0323506, "- N/A -   "
7.2, 237.192, 0.0121177, NaN, NaN, NaN, 0.0323506, "- N/A -   "
7.22, 237.9, 0.0121511, NaN, NaN, NaN, 0.0323506, "- N/A -   "
7.24, 238.372, 0.01218161, NaN, NaN, NaN, 0.0335714, "- N/A -   "
7.26, 239.197, 0.0122149, NaN, NaN, NaN, 0.0335714, "- N/A -   "
7.28, 239.787, 0.0122483, NaN, NaN, NaN, 0.0335714, "- N/A -   "
7.3, 240.377, 0.0122788, NaN, NaN, NaN, 0.0347922, "- N/A -   "
7.32, 240.967, 0.0123149, NaN, NaN, NaN, 0.0335714, "- N/A -   "
7.34, 241.792, 0.012351, NaN, NaN, NaN, 0.0335714, "- N/A -   "
7.36, 242.5, 0.0123843, NaN, NaN, NaN, 0.0323506, "- N/A -   "
7.38, 243.207, 0.0124232, NaN, NaN, NaN, 0.0299091, "- N/A -   "
7.4, 244.032, 0.0124593, NaN, NaN, NaN, 0.0286883, "- N/A -   "
7.42, 244.621, 0.0124926, NaN, NaN, NaN, 0.0286883, "- N/A -   "
7.44, 245.21, 0.0125259, NaN, NaN, NaN, 0.0299091, "- N/A -   "
7.46, 245.917, 0.0125565, NaN, NaN, NaN, 0.03112983, "- N/A -   "
7.48, 246.388, 0.012587, NaN, NaN, NaN, 0.03112983, "- N/A -   "
7.5, 247.095, 0.0126148, NaN, NaN, NaN, 0.0335714, "- N/A -   "
7.52, 247.684, 0.0126453, NaN, NaN, NaN, 0.0347922, "- N/A -   "
7.54, 248.156, 0.0126759, NaN, NaN, NaN, 0.03601294, "- N/A -   "
7.56, 248.745, 0.01270364, NaN, NaN, NaN, 0.0384545, "- N/A -   "
7.58, 249.334, 0.0127314, NaN, NaN, NaN, 0.04089605, "- N/A -   "
7.6, 249.923, 0.012762, NaN, NaN, NaN, 0.04211683, "- N/A -   "
7.62, 250.512, 0.0127925, NaN, NaN, NaN, 0.0433376, "- N/A -   "
7.64, 251.219, 0.012823, NaN, NaN, NaN, 0.0445584, "- N/A -   "
7.66, 251.808, 0.0128536, NaN, NaN, NaN, 0.04577916, "- N/A -   "
7.68, 252.397, 0.0128869, NaN, NaN, NaN, 0.04577916, "- N/A -   "
7.7, 253.104, 0.01292578, NaN, NaN, NaN, 0.0445584, "- N/A -   "
7.72, 254.047, 0.0129647, NaN, NaN, NaN, 0.04211683, "- N/A -   "
7.74, 254.7539, 0.012998, NaN, NaN, NaN, 0.04089605, "- N/A -   "
7.76, 255.461, 0.0130341, NaN, NaN, NaN, 0.0396753, "- N/A -   "
7.78, 256.286, 0.0130674, NaN, NaN, NaN, 0.0396753, "- N/A -   "
7.8, 256.8748, 0.0131063, NaN, NaN, NaN, 0.0372337, "- N/A -   "
7.82, 257.582, 0.0131424, NaN, NaN, NaN, 0.03601294, "- N/A -   "
7.84, 258.407, 0.0131757, NaN, NaN, NaN, 0.03601294, "- N/A -   "
7.86, 258.996, 0.0132118, NaN, NaN, NaN, 0.0347922, "- N/A -   "
7.88, 259.82, 0.0132479, NaN, NaN, NaN, 0.0335714, "- N/A -   "
7.9, 260.6452, 0.013284, NaN, NaN, NaN, 0.0323506, "- N/A -   "
7.92, 261.352, 0.0133229, NaN, NaN, NaN, 0.0299091, "- N/A -   "
7.94, 262.059, 0.013359, NaN, NaN, NaN, 0.0286883, "- N/A -   "
7.96, 262.766, 0.0133951, NaN, NaN, NaN, 0.0274675, "- N/A -   "
7.98, 263.591, 0.0134311, NaN, NaN, NaN, 0.0262467, "- N/A -   "
8, 264.18, 0.01346447, NaN, NaN, NaN, 0.0262467, "- N/A -   "
8.02, 264.769, 0.013495, NaN, NaN, NaN, 0.0274675, "- N/A -   "
8.04, 265.476, 0.0135283, NaN, NaN, NaN, 0.0274675, "- N/A -   "
8.06, 266.065, 0.0135617, NaN, NaN, NaN, 0.0274675, "- N/A -   "
8.08, 266.7722, 0.0135922, NaN, NaN, NaN, 0.0286883, "- N/A -   "
8.1, 267.243, 0.0136227, NaN, NaN, NaN, 0.0299091, "- N/A -   "
8.12, 267.715, 0.0136505, NaN, NaN, NaN, 0.0323506, "- N/A -   "
8.14, 268.422, 0.0136783, NaN, NaN, NaN, 0.0347922, "- N/A -   "
8.16, 269.011, 0.0137088, NaN, NaN, NaN, 0.0384545, "- N/A -   "
8.18, 269.482, 0.0137366, NaN, NaN, NaN, 0.0396753, "- N/A -   "
8.2, 270.189, 0.0137644, NaN, NaN, NaN, 0.04211683, "- N/A -   "
8.22, 270.5426, 0.0137949, NaN, NaN, NaN, 0.0433376, "- N/A -   "
8.24, 271.25, 0.0138254, NaN, NaN, NaN, 0.0445584, "- N/A -   "
8.26, 272.192, 0.0138615, NaN, NaN, NaN, 0.0445584, "- N/A -   "
8.28, 272.7813, 0.0138949, NaN, NaN, NaN, 0.0433376, "- N/A -   "
8.3, 273.488, 0.013931, NaN, NaN, NaN, 0.0433376, "- N/A -   "
8.32, 274.0774, 0.0139615, NaN, NaN, NaN, 0.0433376, "- N/A -   "
8.34, 274.784, 0.0139948, NaN, NaN, NaN, 0.0433376, "- N/A -   "
8.36, 275.4913, 0.0140254, NaN, NaN, NaN, 0.0445584, "- N/A -   "
8.38, 276.08, 0.0140559, NaN, NaN, NaN, 0.04577916, "- N/A -   "
8.4, 276.9052, 0.0140948, NaN, NaN, NaN, 0.0433376, "- N/A -   "
8.42, 277.73, 0.01413089, NaN, NaN, NaN, 0.04211683, "- N/A -   "
8.44, 278.437, 0.0141642, NaN, NaN, NaN, 0.04211683, "- N/A -   "
8.46, 279.144, 0.0142003, NaN, NaN, NaN, 0.04089605, "- N/A -   "
8.48, 280.087, 0.014242, NaN, NaN, NaN, 0.0372337, "- N/A -   "
8.5, 280.7935, 0.0142836, NaN, NaN, NaN, 0.0335714, "- N/A -   "
8.52, 281.618, 0.0143225, NaN, NaN, NaN, 0.03112983, "- N/A -   "
8.54, 282.443, 0.0143614, NaN, NaN, NaN, 0.0286883, "- N/A -   "
8.56, 283.15, 0.0143975, NaN, NaN, NaN, 0.0274675, "- N/A -   "
8.58, 283.739, 0.014428, NaN, NaN, NaN, 0.0286883, "- N/A -   "
8.6, 284.446, 0.0144613, NaN, NaN, NaN, 0.0286883, "- N/A -   "
8.61, 284.8, 0.014478, NaN, NaN, NaN, 0.0286883, "- N/A -   "
8.62, 285.153, 0.0144946, NaN, NaN, NaN, 0.0286883, "- N/A -   "
8.64, 285.7422, 0.0145224, NaN, NaN, NaN, 0.03112983, "- N/A -   "
8.66, 286.213, 0.014553, NaN, NaN, NaN, 0.0335714, "- N/A -   "
8.68, 287.038, 0.0145835, NaN, NaN, NaN, 0.0335714, "- N/A -   "
8.7, 287.6274, 0.0146168, NaN, NaN, NaN, 0.0335714, "- N/A -   "
8.72, 288.334, 0.0146474, NaN, NaN, NaN, 0.0347922, "- N/A -   "
8.74, 288.9235, 0.0146779, NaN, NaN, NaN, 0.03601294, "- N/A -   "
8.76, 289.63, 0.0147112, NaN, NaN, NaN, 0.03601294, "- N/A -   "
8.78, 290.22, 0.0147418, NaN, NaN, NaN, 0.0384545, "- N/A -   "
8.8, 290.8087, 0.0147695, NaN, NaN, NaN, 0.0396753, "- N/A -   "
8.82, 291.516, 0.0148029, NaN, NaN, NaN, 0.0396753, "- N/A -   "
8.84, 292.2226, 0.0148334, NaN, NaN, NaN, 0.04089605, "- N/A -   "
8.86, 292.93, 0.0148695, NaN, NaN, NaN, 0.0396753, "- N/A -   "
8.88, 293.754, 0.0149056, NaN, NaN, NaN, 0.0384545, "- N/A -   "
8.9, 294.4613, 0.0149361, NaN, NaN, NaN, 0.0396753, "- N/A -   "
8.92, 294.9326, 0.0149667, NaN, NaN, NaN, 0.04089605, "- N/A -   "
8.94, 295.6396, 0.0149972, NaN, NaN, NaN, 0.04211683, "- N/A -   "
8.96, 296.111, 0.0150278, NaN, NaN, NaN, 0.0433376, "- N/A -   "
8.98, 296.936, 0.0150611, NaN, NaN, NaN, 0.0433376, "- N/A -   "
9, 297.6426, 0.0150944, NaN, NaN, NaN, 0.0433376, "- N/A -   "
9.02, 298.232, 0.015125, NaN, NaN, NaN, 0.0445584, "- N/A -   "
9.04, 298.939, 0.0151555, NaN, NaN, NaN, 0.04577916, "- N/A -   "
9.06, 299.646, 0.01519161, NaN, NaN, NaN, 0.0445584, "- N/A -   "
9.08, 300.47, 0.0152305, NaN, NaN, NaN, 0.04211683, "- N/A -   "
9.1, 301.295, 0.0152694, NaN, NaN, NaN, 0.0396753, "- N/A -   "
9.12, 302.12, 0.0153082, NaN, NaN, NaN, 0.0384545, "- N/A -   "
9.14, 303.063, 0.0153443, NaN, NaN, NaN, 0.03601294, "- N/A -   "
9.16, 303.77, 0.0153804, NaN, NaN, NaN, 0.0347922, "- N/A -   "
9.18, 304.594, 0.0154193, NaN, NaN, NaN, 0.0323506, "- N/A -   "
9.2, 305.301, 0.0154554, NaN, NaN, NaN, 0.03112983, "- N/A -   "
9.22, 306.1261, 0.0154915, NaN, NaN, NaN, 0.0299091, "- N/A -   "
9.24, 306.833, 0.0155248, NaN, NaN, NaN, 0.0299091, "- N/A -   "
9.26, 307.54, 0.0155609, NaN, NaN, NaN, 0.0286883, "- N/A -   "
9.28, 308.011, 0.0155887, NaN, NaN, NaN, 0.03112983, "- N/A -   "
9.3, 308.718, 0.0156192, NaN, NaN, NaN, 0.0323506, "- N/A -   "
9.32, 309.3074, 0.0156498, NaN, NaN, NaN, 0.0335714, "- N/A -   "
9.34, 309.8965, 0.0156803, NaN, NaN, NaN, 0.03601294, "- N/A -   "
9.36, 310.603, 0.0157136, NaN, NaN, NaN, 0.0347922, "- N/A -   "
9.38, 311.31, 0.01574696, NaN, NaN, NaN, 0.0347922, "- N/A -   "
9.4, 312.135, 0.0157831, NaN, NaN, NaN, 0.0335714, "- N/A -   "
9.42, 312.96, 0.0158219, NaN, NaN, NaN, 0.03112983, "- N/A -   "
9.44, 313.7848, 0.0158608, NaN, NaN, NaN, 0.0286883, "- N/A -   "
9.46, 314.492, 0.0158941, NaN, NaN, NaN, 0.0286883, "- N/A -   "
9.48, 314.963, 0.0159219, NaN, NaN, NaN, 0.03112983, "- N/A -   "
9.5, 315.67, 0.01595244, NaN, NaN, NaN, 0.0335714, "- N/A -   "
9.52, 316.1413, 0.0159774, NaN, NaN, NaN, 0.03601294, "- N/A -   "
9.54, 316.73, 0.016008, NaN, NaN, NaN, 0.0372337, "- N/A -   "
9.56, 317.4374, 0.0160357, NaN, NaN, NaN, 0.0396753, "- N/A -   "
9.58, 317.9087, 0.0160663, NaN, NaN, NaN, 0.04089605, "- N/A -   "
9.6, 318.616, 0.0160941, NaN, NaN, NaN, 0.0433376, "- N/A -   "
9.62, 319.323, 0.0161274, NaN, NaN, NaN, 0.0433376, "- N/A -   "
9.64, 320.03, 0.0161635, NaN, NaN, NaN, 0.04211683, "- N/A -   "
9.66, 320.854, 0.01619957, NaN, NaN, NaN, 0.04089605, "- N/A -   "
9.68, 321.5613, 0.0162329, NaN, NaN, NaN, 0.04089605, "- N/A -   "
9.7, 322.15, 0.0162634, NaN, NaN, NaN, 0.04211683, "- N/A -   "
9.72, 322.8574, 0.01629398, NaN, NaN, NaN, 0.0433376, "- N/A -   "
9.74, 323.564, 0.0163301, NaN, NaN, NaN, 0.0433376, "- N/A -   "
9.76, 324.389, 0.0163634, NaN, NaN, NaN, 0.04211683, "- N/A -   "
9.78, 325.2139, 0.0164023, NaN, NaN, NaN, 0.0396753, "- N/A -   "
9.8, 326.0387, 0.01643837, NaN, NaN, NaN, 0.0384545, "- N/A -   "
9.82, 326.9813, 0.0164772, NaN, NaN, NaN, 0.03601294, "- N/A -   "
9.84, 327.57, 0.0165133, NaN, NaN, NaN, 0.03601294, "- N/A -   "
9.86, 328.395, 0.01654944, NaN, NaN, NaN, 0.0335714, "- N/A -   "
9.88, 328.984, 0.0165828, NaN, NaN, NaN, 0.0347922, "- N/A -   "
9.9, 329.809, 0.0166161, NaN, NaN, NaN, 0.0335714, "- N/A -   "
9.92, 330.516, 0.0166494, NaN, NaN, NaN, 0.0347922, "- N/A -   "
9.94, 331.223, 0.0166827, NaN, NaN, NaN, 0.0335714, "- N/A -   "
9.96, 331.93, 0.016716, NaN, NaN, NaN, 0.0335714, "- N/A -   "
9.98, 332.7548, 0.0167521, NaN, NaN, NaN, 0.0323506, "- N/A -   "
10, 333.462, 0.0167855, NaN, NaN, NaN, 0.0323506, "- N/A -   "
10.02, 334.2865, 0.0168188, NaN, NaN, NaN, 0.0323506, "- N/A -   "
10.04, 334.876, 0.0168521, NaN, NaN, NaN, 0.0323506, "- N/A -   "
10.06, 335.5826, 0.0168854, NaN, NaN, NaN, 0.0323506, "- N/A -   "
10.08, 336.29, 0.0169132, NaN, NaN, NaN, 0.0347922, "- N/A -   "
10.1, 336.8787, 0.01694374, NaN, NaN, NaN, 0.03601294, "- N/A -   "
10.12, 337.586, 0.01697706, NaN, NaN, NaN, 0.03601294, "- N/A -   "
10.14, 338.2926, 0.0170104, NaN, NaN, NaN, 0.03601294, "- N/A -   "
10.16, 339, 0.0170409, NaN, NaN, NaN, 0.0372337, "- N/A -   "
10.18, 339.707, 0.017077, NaN, NaN, NaN, 0.0372337, "- N/A -   "
10.2, 340.413, 0.0171131, NaN, NaN, NaN, 0.03601294, "- N/A -   "
10.22, 341.238, 0.01714922, NaN, NaN, NaN, 0.0347922, "- N/A -   "
10.24, 341.945, 0.0171798, NaN, NaN, NaN, 0.0347922, "- N/A -   "
10.26, 342.652, 0.0172131, NaN, NaN, NaN, 0.0347922, "- N/A -   "
10.28, 343.2413, 0.01724363, NaN, NaN, NaN, 0.03601294, "- N/A -   "
10.3, 343.83, 0.0172714, NaN, NaN, NaN, 0.0384545, "- N/A -   "
10.32, 344.4196, 0.0172992, NaN, NaN, NaN, 0.04089605, "- N/A -   "
10.34, 345.127, 0.01732971, NaN, NaN, NaN, 0.04211683, "- N/A -   "
10.36, 345.833, 0.017363, NaN, NaN, NaN, 0.04211683, "- N/A -   "
10.38, 346.658, 0.0173964, NaN, NaN, NaN, 0.04211683, "- N/A -   "
10.4, 347.13, 0.0174241, NaN, NaN, NaN, 0.0445584, "- N/A -   "
10.42, 347.719, 0.0174547, NaN, NaN, NaN, 0.04577916, "- N/A -   "
10.44, 348.6613, 0.017488, NaN, NaN, NaN, 0.04577916, "- N/A -   "
10.46, 349.486, 0.01752408, NaN, NaN, NaN, 0.0445584, "- N/A -   "
10.48, 350.311, 0.0175602, NaN, NaN, NaN, 0.0433376, "- N/A -   "
10.5, 351.018, 0.0175963, NaN, NaN, NaN, 0.04211683, "- N/A -   "
10.52, 351.843, 0.0176352, NaN, NaN, NaN, 0.0396753, "- N/A -   "
10.54, 352.6674, 0.01767125, NaN, NaN, NaN, 0.0384545, "- N/A -   "
10.56, 353.4922, 0.0177101, NaN, NaN, NaN, 0.0372337, "- N/A -   "
10.58, 354.435, 0.0177462, NaN, NaN, NaN, 0.0347922, "- N/A -   "
10.6, 355.142, 0.01778232, NaN, NaN, NaN, 0.0335714, "- N/A -   "
10.62, 355.8487, 0.01781564, NaN, NaN, NaN, 0.0335714, "- N/A -   "
10.64, 356.673, 0.017849, NaN, NaN, NaN, 0.0335714, "- N/A -   "
10.66, 357.38, 0.01788506, NaN, NaN, NaN, 0.0323506, "- N/A -   "
10.68, 357.97, 0.0179156, NaN, NaN, NaN, 0.0335714, "- N/A -   "
10.7, 358.794, 0.0179489, NaN, NaN, NaN, 0.0335714, "- N/A -   "
10.72, 359.5013, 0.0179822, NaN, NaN, NaN, 0.0335714, "- N/A -   "
10.74, 360.208, 0.01802112, NaN, NaN, NaN, 0.03112983, "- N/A -   "
10.76, 361.033, 0.01805444, NaN, NaN, NaN, 0.03112983, "- N/A -   "
10.78, 361.858, 0.0180933, NaN, NaN, NaN, 0.0286883, "- N/A -   "
10.8, 362.8, 0.01813219, NaN, NaN, NaN, 0.0262467, "- N/A -   "
10.82, 363.6252, 0.0181655, NaN, NaN, NaN, 0.0262467, "- N/A -   "
10.84, 364.097, 0.0181961, NaN, NaN, NaN, 0.0274675, "- N/A -   "
10.86, 364.9213, 0.0182266, NaN, NaN, NaN, 0.0286883, "- N/A -   "
10.88, 365.51, 0.01825992, NaN, NaN, NaN, 0.0299091, "- N/A -   "
10.9, 366.217, 0.0182877, NaN, NaN, NaN, 0.03112983, "- N/A -   "
10.92, 366.6887, 0.0183155, NaN, NaN, NaN, 0.0347922, "- N/A -   "
10.94, 367.278, 0.0183432, NaN, NaN, NaN, 0.03601294, "- N/A -   "
10.96, 367.867, 0.0183738, NaN, NaN, NaN, 0.0372337, "- N/A -   "
10.98, 368.5739, 0.0184015, NaN, NaN, NaN, 0.0396753, "- N/A -   "
11, 369.163, 0.0184293, NaN, NaN, NaN, 0.04211683, "- N/A -   "
11.02, 369.87, 0.0184598, NaN, NaN, NaN, 0.0433376, "- N/A -   "
11.04, 370.577, 0.01849039, NaN, NaN, NaN, 0.0445584, "- N/A -   "
11.06, 371.2839, 0.0185209, NaN, NaN, NaN, 0.04577916, "- N/A -   "
11.08, 371.991, 0.018557, NaN, NaN, NaN, 0.04577916, "- N/A -   "
11.1, 372.6978, 0.0185876, NaN, NaN, NaN, 0.04699994, "- N/A -   "
11.12, 373.5226, 0.0186209, NaN, NaN, NaN, 0.04577916, "- N/A -   "
11.14, 374.23, 0.0186598, NaN, NaN, NaN, 0.0445584, "- N/A -   "
11.16, 375.172, 0.01869587, NaN, NaN, NaN, 0.04211683, "- N/A -   "
11.18, 376.1148, 0.0187347, NaN, NaN, NaN, 0.0396753, "- N/A -   "
11.2, 376.94, 0.01877362, NaN, NaN, NaN, 0.0372337, "- N/A -   "
11.22, 377.764, 0.0188097, NaN, NaN, NaN, 0.03601294, "- N/A -   "
11.24, 378.589, 0.0188458, NaN, NaN, NaN, 0.0347922, "- N/A -   "
11.26, 379.414, 0.0188819, NaN, NaN, NaN, 0.0335714, "- N/A -   "
11.28, 380.2387, 0.0189152, NaN, NaN, NaN, 0.0335714, "- N/A -   "
11.3, 380.828, 0.0189486, NaN, NaN, NaN, 0.0335714, "- N/A -   "
11.32, 381.5348, 0.0189819, NaN, NaN, NaN, 0.0335714, "- N/A -   "
11.34, 382.36, 0.019018, NaN, NaN, NaN, 0.0323506, "- N/A -   "
11.36, 383.302, 0.0190568, NaN, NaN, NaN, 0.03112983, "- N/A -   "
11.38, 384.127, 0.0190929, NaN, NaN, NaN, 0.0286883, "- N/A -   "
11.4, 384.834, 0.0191263, NaN, NaN, NaN, 0.0286883, "- N/A -   "
11.42, 385.6587, 0.0191596, NaN, NaN, NaN, 0.0286883, "- N/A -   "
11.44, 386.366, 0.0191929, NaN, NaN, NaN, 0.0286883, "- N/A -   "
11.46, 387.0726, 0.0192262, NaN, NaN, NaN, 0.0286883, "- N/A -   "
11.48, 387.662, 0.0192568, NaN, NaN, NaN, 0.0299091, "- N/A -   "
11.5, 388.487, 0.01928732, NaN, NaN, NaN, 0.03112983, "- N/A -   "
11.52, 389.193, 0.01932064, NaN, NaN, NaN, 0.03112983, "- N/A -   "
11.54, 390.018, 0.01935396, NaN, NaN, NaN, 0.0323506, "- N/A -   "
[...]
28.23, 1091.83, 0.0471548, NaN, NaN, NaN, 0.0396753, "- N/A -   "
28.26, 1093.5, 0.0472103, NaN, NaN, NaN, 0.03601294, "- N/A -   "
28.29, 1094.81, 0.04726587, NaN, NaN, NaN, 0.0347922, "- N/A -   "
28.32, 1096.36, 0.0473186, NaN, NaN, NaN, 0.0323506, "- N/A -   "
28.35, 1097.79, 0.0473686, NaN, NaN, NaN, 0.0323506, "- N/A -   "
28.38, 1099.1, 0.04742137, NaN, NaN, NaN, 0.03112983, "- N/A -   "
28.41, 1100.41, 0.0474741, NaN, NaN, NaN, 0.0299091, "- N/A -   "
28.44, 1101.96, 0.0475269, NaN, NaN, NaN, 0.0286883, "- N/A -   "
28.47, 1103.15, 0.0475769, NaN, NaN, NaN, 0.0286883, "- N/A -   "
28.5, 1104.47, 0.0476268, NaN, NaN, NaN, 0.0286883, "- N/A -   "
28.53, 1105.78, 0.0476768, NaN, NaN, NaN, 0.0286883, "- N/A -   "
28.56, 1107.09, 0.047724, NaN, NaN, NaN, 0.0299091, "- N/A -   "
28.59, 1108.04, 0.0477685, NaN, NaN, NaN, 0.0323506, "- N/A -   "
28.62, 1109.24, 0.0478101, NaN, NaN, NaN, 0.03601294, "- N/A -   "
28.65, 1110.31, 0.04785454, NaN, NaN, NaN, 0.0384545, "- N/A -   "
28.68, 1111.5, 0.04789619, NaN, NaN, NaN, 0.04211683, "- N/A -   "
28.71, 1112.58, 0.04793784, NaN, NaN, NaN, 0.04577916, "- N/A -   "
28.74, 1113.89, 0.0479878, NaN, NaN, NaN, 0.04577916, "- N/A -   "
28.77, 1115.2, 0.04803781, NaN, NaN, NaN, 0.04577916, "- N/A -   "
28.8, 1116.63, 0.04809334, NaN, NaN, NaN, 0.0433376, "- N/A -   "
28.83, 1118.061, 0.0481433, NaN, NaN, NaN, 0.0433376, "- N/A -   "
28.86, 1119.49, 0.04819608, NaN, NaN, NaN, 0.0433376, "- N/A -   "
28.89, 1120.923, 0.0482461, NaN, NaN, NaN, 0.04211683, "- N/A -   "
28.92, 1122.12, 0.04829882, NaN, NaN, NaN, 0.04089605, "- N/A -   "
28.95, 1123.67, 0.0483544, NaN, NaN, NaN, 0.0384545, "- N/A -   "
28.98, 1125.22, 0.04841267, NaN, NaN, NaN, 0.0347922, "- N/A -   "
29.01, 1126.77, 0.048471, NaN, NaN, NaN, 0.03112983, "- N/A -   "
29.04, 1128.08, 0.04852374, NaN, NaN, NaN, 0.03112983, "- N/A -   "
29.07, 1129.51, 0.04857372, NaN, NaN, NaN, 0.0299091, "- N/A -   "
29.1, 1130.821, 0.04862648, NaN, NaN, NaN, 0.0286883, "- N/A -   "
29.13, 1132.13, 0.04867646, NaN, NaN, NaN, 0.0299091, "- N/A -   "
29.16, 1133.44, 0.0487209, NaN, NaN, NaN, 0.03112983, "- N/A -   "
29.19, 1134.4, 0.0487653, NaN, NaN, NaN, 0.0347922, "- N/A -   "
29.22, 1135.591, 0.04880974, NaN, NaN, NaN, 0.03601294, "- N/A -   "
29.25, 1136.9, 0.0488542, NaN, NaN, NaN, 0.0384545, "- N/A -   "
29.28, 1138.21, 0.04890415, NaN, NaN, NaN, 0.0384545, "- N/A -   "
29.31, 1139.65, 0.0489541, NaN, NaN, NaN, 0.0384545, "- N/A -   "
29.34, 1140.96, 0.04900689, NaN, NaN, NaN, 0.0372337, "- N/A -   "
29.37, 1142.15, 0.0490541, NaN, NaN, NaN, 0.0384545, "- N/A -   "
29.4, 1143.34, 0.0490985, NaN, NaN, NaN, 0.04089605, "- N/A -   "
29.43, 1144.53, 0.049143, NaN, NaN, NaN, 0.0433376, "- N/A -   "
29.46, 1145.61, 0.04918738, NaN, NaN, NaN, 0.04577916, "- N/A -   "
29.49, 1147.04, 0.04924014, NaN, NaN, NaN, 0.0445584, "- N/A -   "
29.52, 1148.47, 0.04929012, NaN, NaN, NaN, 0.0445584, "- N/A -   "
29.55, 1149.9, 0.0493484, NaN, NaN, NaN, 0.04089605, "- N/A -   "
29.58, 1151.69, 0.0494095, NaN, NaN, NaN, 0.03601294, "- N/A -   "
29.61, 1153.36, 0.04947061, NaN, NaN, NaN, 0.03112983, "- N/A -   "
29.64, 1154.79, 0.0495261, NaN, NaN, NaN, 0.0286883, "- N/A -   "
29.67, 1156.22, 0.0495789, NaN, NaN, NaN, 0.0286883, "- N/A -   "
29.7, 1157.53, 0.0496289, NaN, NaN, NaN, 0.0274675, "- N/A -   "
29.73, 1158.85, 0.04967609, NaN, NaN, NaN, 0.0299091, "- N/A -   "
29.76, 1159.92, 0.04972052, NaN, NaN, NaN, 0.0323506, "- N/A -   "
29.79, 1160.99, 0.0497649, NaN, NaN, NaN, 0.0335714, "- N/A -   "
29.82, 1162.3, 0.04981493, NaN, NaN, NaN, 0.0347922, "- N/A -   "
29.85, 1163.62, 0.04986491, NaN, NaN, NaN, 0.0335714, "- N/A -   "
29.88, 1165.17, 0.0499177, NaN, NaN, NaN, 0.0323506, "- N/A -   "
29.91, 1166.6, 0.0499704, NaN, NaN, NaN, 0.03112983, "- N/A -   "
29.94, 1167.91, 0.05001763, NaN, NaN, NaN, 0.0323506, "- N/A -   "
29.97, 1168.98, 0.0500648, NaN, NaN, NaN, 0.0335714, "- N/A -   "
30, 1170.29, 0.05011204, NaN, NaN, NaN, 0.0347922, "- N/A -   "
30.03, 1171.37, 0.05015647, NaN, NaN, NaN, 0.0372337, "- N/A -   "
30.06, 1172.56, 0.05019812, NaN, NaN, NaN, 0.04089605, "- N/A -   "
30.09, 1173.63, 0.05023977, NaN, NaN, NaN, 0.0445584, "- N/A -   "
30.12, 1174.94, 0.05028975, NaN, NaN, NaN, 0.0445584, "- N/A -   "
30.15, 1176.38, 0.0503425, NaN, NaN, NaN, 0.0433376, "- N/A -   "
30.18, 1177.93, 0.050398, NaN, NaN, NaN, 0.04089605, "- N/A -   "
30.21, 1179.118, 0.050448, NaN, NaN, NaN, 0.04089605, "- N/A -   "
30.24, 1180.67, 0.0505008, NaN, NaN, NaN, 0.0396753, "- N/A -   "
30.27, 1181.98, 0.05055354, NaN, NaN, NaN, 0.0396753, "- N/A -   "
30.3, 1183.53, 0.05060908, NaN, NaN, NaN, 0.0372337, "- N/A -   "
30.33, 1184.96, 0.0506591, NaN, NaN, NaN, 0.03601294, "- N/A -   "
30.36, 1186.27, 0.050709, NaN, NaN, NaN, 0.03601294, "- N/A -   "
30.39, 1187.47, 0.050759, NaN, NaN, NaN, 0.0372337, "- N/A -   "
30.42, 1188.66, 0.0508062, NaN, NaN, NaN, 0.0372337, "- N/A -   "
30.45, 1190.21, 0.050859, NaN, NaN, NaN, 0.03601294, "- N/A -   "
30.48, 1191.52, 0.0509145, NaN, NaN, NaN, 0.0347922, "- N/A -   "
30.51, 1193.07, 0.0509645, NaN, NaN, NaN, 0.0335714, "- N/A -   "
30.54, 1194.38, 0.05101726, NaN, NaN, NaN, 0.0323506, "- N/A -   "
30.57, 1195.81, 0.05107002, NaN, NaN, NaN, 0.0323506, "- N/A -   "
30.6, 1196.89, 0.0511144, NaN, NaN, NaN, 0.0335714, "- N/A -   "
30.63, 1198.2, 0.05116165, NaN, NaN, NaN, 0.0347922, "- N/A -   "
30.66, 1199.51, 0.0512144, NaN, NaN, NaN, 0.0335714, "- N/A -   "
30.69, 1200.82, 0.05126717, NaN, NaN, NaN, 0.0323506, "- N/A -   "
30.72, 1202.25, 0.0513199, NaN, NaN, NaN, 0.0323506, "- N/A -   "
30.75, 1203.56, 0.0513671, NaN, NaN, NaN, 0.0335714, "- N/A -   "
30.78, 1204.88, 0.0514171, NaN, NaN, NaN, 0.0347922, "- N/A -   "
30.81, 1206.069, 0.05146154, NaN, NaN, NaN, 0.0372337, "- N/A -   "
30.84, 1207.14, 0.05150597, NaN, NaN, NaN, 0.0384545, "- N/A -   "
30.87, 1208.33, 0.0515504, NaN, NaN, NaN, 0.04089605, "- N/A -   "
30.9, 1209.53, 0.05159205, NaN, NaN, NaN, 0.0445584, "- N/A -   "
30.93, 1210.84, 0.05164203, NaN, NaN, NaN, 0.0445584, "- N/A -   "
30.96, 1212.15, 0.0516948, NaN, NaN, NaN, 0.0433376, "- N/A -   "
30.99, 1213.58, 0.05174477, NaN, NaN, NaN, 0.0433376, "- N/A -   "
31.02, 1215.13, 0.0518031, NaN, NaN, NaN, 0.0396753, "- N/A -   "
31.05, 1216.56, 0.0518614, NaN, NaN, NaN, 0.0372337, "- N/A -   "
31.08, 1217.99, 0.0519086, NaN, NaN, NaN, 0.0372337, "- N/A -   "
31.11, 1219.19, 0.0519614, NaN, NaN, NaN, 0.03601294, "- N/A -   "
31.14, 1220.5, 0.0520086, NaN, NaN, NaN, 0.0372337, "- N/A -   "
31.17, 1221.81, 0.05206132, NaN, NaN, NaN, 0.03601294, "- N/A -   "
31.2, 1223.24, 0.0521169, NaN, NaN, NaN, 0.0335714, "- N/A -   "
31.23, 1224.79, 0.05217239, NaN, NaN, NaN, 0.03112983, "- N/A -   "
31.26, 1226.34, 0.05223348, NaN, NaN, NaN, 0.0262467, "- N/A -   "
31.29, 1227.89, 0.0522862, NaN, NaN, NaN, 0.0250259, "- N/A -   "
31.32, 1228.97, 0.05233066, NaN, NaN, NaN, 0.0274675, "- N/A -   "
31.35, 1230.16, 0.0523751, NaN, NaN, NaN, 0.03112983, "- N/A -   "
31.38, 1231.23, 0.05241952, NaN, NaN, NaN, 0.0323506, "- N/A -   "
31.41, 1232.42, 0.0524612, NaN, NaN, NaN, 0.03601294, "- N/A -   "
31.44, 1233.38, 0.0525, NaN, NaN, NaN, 0.04089605, "- N/A -   "
31.47, 1234.33, 0.0525417, NaN, NaN, NaN, 0.0445584, "- N/A -   "
31.5, 1235.52, 0.0525889, NaN, NaN, NaN, 0.04577916, "- N/A -   "
31.53, 1236.84, 0.05263333, NaN, NaN, NaN, 0.0482207, "- N/A -   "
31.56, 1238.03, 0.0526805, NaN, NaN, NaN, 0.0494415, "- N/A -   "
31.59, 1239.46, 0.0527333, NaN, NaN, NaN, 0.0482207, "- N/A -   "
31.62, 1241.01, 0.0527916, NaN, NaN, NaN, 0.0445584, "- N/A -   "
31.65, 1242.56, 0.05284992, NaN, NaN, NaN, 0.04089605, "- N/A -   "
31.68, 1244.23, 0.05290823, NaN, NaN, NaN, 0.0384545, "- N/A -   "
31.71, 1245.54, 0.0529638, NaN, NaN, NaN, 0.0347922, "- N/A -   "
31.74, 1246.85, 0.0530137, NaN, NaN, NaN, 0.03601294, "- N/A -   "
31.77, 1248.16, 0.05306095, NaN, NaN, NaN, 0.03601294, "- N/A -   "
31.8, 1249.48, 0.0531137, NaN, NaN, NaN, 0.0347922, "- N/A -   "
31.83, 1250.91, 0.0531692, NaN, NaN, NaN, 0.0335714, "- N/A -   "
31.86, 1252.46, 0.05322478, NaN, NaN, NaN, 0.0299091, "- N/A -   "
31.89, 1253.89, 0.0532775, NaN, NaN, NaN, 0.0299091, "- N/A -   "
31.92, 1255.32, 0.0533303, NaN, NaN, NaN, 0.0274675, "- N/A -   "
31.95, 1256.75, 0.0533831, NaN, NaN, NaN, 0.0262467, "- N/A -   "
31.98, 1257.71, 0.0534247, NaN, NaN, NaN, 0.0299091, "- N/A -   "
32.01, 1258.9, 0.0534691, NaN, NaN, NaN, 0.0323506, "- N/A -   "
32.04, 1259.97, 0.053508, NaN, NaN, NaN, 0.0372337, "- N/A -   "
32.07, 1261.04, 0.05355799, NaN, NaN, NaN, 0.0384545, "- N/A -   "
32.1, 1262.12, 0.05359964, NaN, NaN, NaN, 0.04089605, "- N/A -   "
32.13, 1263.31, 0.0536441, NaN, NaN, NaN, 0.0433376, "- N/A -   "
32.16, 1264.741, 0.05369405, NaN, NaN, NaN, 0.0433376, "- N/A -   "
32.19, 1266.172, 0.0537496, NaN, NaN, NaN, 0.04089605, "- N/A -   "
32.22, 1267.48, 0.05379679, NaN, NaN, NaN, 0.04211683, "- N/A -   "
32.25, 1268.68, 0.053844, NaN, NaN, NaN, 0.0433376, "- N/A -   "
32.28, 1269.99, 0.05389675, NaN, NaN, NaN, 0.04211683, "- N/A -   "
32.31, 1271.419, 0.05394951, NaN, NaN, NaN, 0.04211683, "- N/A -   "
32.34, 1272.85, 0.0540023, NaN, NaN, NaN, 0.0396753, "- N/A -   "
32.37, 1274.4, 0.0540606, NaN, NaN, NaN, 0.0372337, "- N/A -   "
32.4, 1275.83, 0.0541161, NaN, NaN, NaN, 0.0335714, "- N/A -   "
32.43, 1277.501, 0.05417443, NaN, NaN, NaN, 0.0299091, "- N/A -   "
32.46, 1278.93, 0.05422719, NaN, NaN, NaN, 0.0286883, "- N/A -   "
32.49, 1280.24, 0.05427717, NaN, NaN, NaN, 0.0286883, "- N/A -   "
32.52, 1281.56, 0.0543299, NaN, NaN, NaN, 0.0274675, "- N/A -   "
32.55, 1282.75, 0.0543799, NaN, NaN, NaN, 0.0286883, "- N/A -   "
32.58, 1283.94, 0.0544243, NaN, NaN, NaN, 0.0299091, "- N/A -   "
32.61, 1284.89, 0.0544632, NaN, NaN, NaN, 0.0347922, "- N/A -   "
32.64, 1286.21, 0.0545104, NaN, NaN, NaN, 0.03601294, "- N/A -   "
32.67, 1287.4, 0.0545576, NaN, NaN, NaN, 0.0384545, "- N/A -   "
32.7, 1288.71, 0.0546048, NaN, NaN, NaN, 0.0384545, "- N/A -   "
32.73, 1290.14, 0.0546576, NaN, NaN, NaN, 0.0372337, "- N/A -   "
32.76, 1291.33, 0.0547076, NaN, NaN, NaN, 0.0372337, "- N/A -   "
32.79, 1292.53, 0.0547548, NaN, NaN, NaN, 0.0384545, "- N/A -   "
32.82, 1293.72, 0.0547964, NaN, NaN, NaN, 0.04211683, "- N/A -   "
32.85, 1294.91, 0.0548436, NaN, NaN, NaN, 0.0433376, "- N/A -   "
32.88, 1296.1, 0.05489083, NaN, NaN, NaN, 0.04577916, "- N/A -   "
32.91, 1297.3, 0.0549353, NaN, NaN, NaN, 0.04699994, "- N/A -   "
32.94, 1298.85, 0.0549908, NaN, NaN, NaN, 0.04577916, "- N/A -   "
32.97, 1300.278, 0.05504633, NaN, NaN, NaN, 0.04211683, "- N/A -   "
33, 1301.95, 0.0551074, NaN, NaN, NaN, 0.0372337, "- N/A -   "
33.03, 1303.38, 0.05516295, NaN, NaN, NaN, 0.0347922, "- N/A -   "
33.06, 1304.93, 0.05521571, NaN, NaN, NaN, 0.0335714, "- N/A -   "
33.09, 1306.36, 0.0552712, NaN, NaN, NaN, 0.03112983, "- N/A -   "
33.12, 1307.67, 0.0553212, NaN, NaN, NaN, 0.0323506, "- N/A -   "
33.15, 1308.86, 0.0553657, NaN, NaN, NaN, 0.0335714, "- N/A -   "
33.18, 1309.94, 0.0554101, NaN, NaN, NaN, 0.03601294, "- N/A -   "
33.21, 1311.13, 0.0554573, NaN, NaN, NaN, 0.0372337, "- N/A -   "
33.24, 1312.44, 0.0555073, NaN, NaN, NaN, 0.0372337, "- N/A -   "
33.27, 1313.87, 0.0555628, NaN, NaN, NaN, 0.0347922, "- N/A -   "
33.3, 1315.423, 0.0556211, NaN, NaN, NaN, 0.03112983, "- N/A -   "
33.33, 1316.854, 0.05567387, NaN, NaN, NaN, 0.0299091, "- N/A -   "
33.36, 1318.05, 0.0557183, NaN, NaN, NaN, 0.0323506, "- N/A -   "
33.39, 1319.239, 0.05575995, NaN, NaN, NaN, 0.03601294, "- N/A -   "
33.42, 1320.193, 0.0558044, NaN, NaN, NaN, 0.0384545, "- N/A -   "
33.45, 1321.5, 0.05585436, NaN, NaN, NaN, 0.0384545, "- N/A -   "
33.48, 1322.82, 0.0559016, NaN, NaN, NaN, 0.0396753, "- N/A -   "
33.51, 1324.13, 0.0559488, NaN, NaN, NaN, 0.04089605, "- N/A -   "
33.54, 1325.44, 0.0560015, NaN, NaN, NaN, 0.0396753, "- N/A -   "
33.57, 1326.87, 0.05605429, NaN, NaN, NaN, 0.0384545, "- N/A -   "
33.6, 1328.3, 0.05610427, NaN, NaN, NaN, 0.0384545, "- N/A -   "
33.63, 1329.49, 0.0561515, NaN, NaN, NaN, 0.0396753, "- N/A -   "
33.66, 1330.81, 0.0562042, NaN, NaN, NaN, 0.0384545, "- N/A -   "
33.69, 1332.24, 0.05625699, NaN, NaN, NaN, 0.0384545, "- N/A -   "
33.72, 1333.67, 0.05630975, NaN, NaN, NaN, 0.03601294, "- N/A -   "
33.75, 1334.98, 0.056357, NaN, NaN, NaN, 0.0372337, "- N/A -   "
33.78, 1336.17, 0.0564069, NaN, NaN, NaN, 0.0372337, "- N/A -   "
33.81, 1337.6, 0.0564597, NaN, NaN, NaN, 0.03601294, "- N/A -   "
33.84, 1339.03, 0.0565125, NaN, NaN, NaN, 0.0347922, "- N/A -   "
33.87, 1340.23, 0.0565624, NaN, NaN, NaN, 0.0347922, "- N/A -   "
33.9, 1341.78, 0.0566152, NaN, NaN, NaN, 0.0335714, "- N/A -   "
33.93, 1343.21, 0.05666795, NaN, NaN, NaN, 0.0323506, "- N/A -   "
33.96, 1344.52, 0.0567207, NaN, NaN, NaN, 0.03112983, "- N/A -   "
33.99, 1345.83, 0.05677069, NaN, NaN, NaN, 0.03112983, "- N/A -   "
34.02, 1347.144, 0.0568179, NaN, NaN, NaN, 0.0323506, "- N/A -   "
34.05, 1348.46, 0.05686788, NaN, NaN, NaN, 0.0323506, "- N/A -   "
34.08, 1349.65, 0.0569179, NaN, NaN, NaN, 0.0323506, "- N/A -   "
34.11, 1351.08, 0.05696784, NaN, NaN, NaN, 0.0323506, "- N/A -   "
34.14, 1352.15, 0.057015, NaN, NaN, NaN, 0.0335714, "- N/A -   "
34.17, 1353.226, 0.0570567, NaN, NaN, NaN, 0.0372337, "- N/A -   "
34.2, 1354.3, 0.0571011, NaN, NaN, NaN, 0.0396753, "- N/A -   "
34.23, 1355.611, 0.0571511, NaN, NaN, NaN, 0.04089605, "- N/A -   "
34.26, 1356.8, 0.0571955, NaN, NaN, NaN, 0.04211683, "- N/A -   "
34.29, 1358, 0.05723996, NaN, NaN, NaN, 0.04577916, "- N/A -   "
34.32, 1359.31, 0.0572872, NaN, NaN, NaN, 0.04577916, "- N/A -   "
34.35, 1360.62, 0.05733992, NaN, NaN, NaN, 0.0445584, "- N/A -   "
34.38, 1362.17, 0.05739546, NaN, NaN, NaN, 0.0433376, "- N/A -   "
34.41, 1363.6, 0.057451, NaN, NaN, NaN, 0.0396753, "- N/A -   "
34.44, 1365.27, 0.0575093, NaN, NaN, NaN, 0.0372337, "- N/A -   "
34.47, 1366.82, 0.0575648, NaN, NaN, NaN, 0.0335714, "- N/A -   "
34.5, 1368.25, 0.0576176, NaN, NaN, NaN, 0.0323506, "- N/A -   "
34.53, 1369.44, 0.0576676, NaN, NaN, NaN, 0.0323506, "- N/A -   "
34.56, 1370.76, 0.05771756, NaN, NaN, NaN, 0.0323506, "- N/A -   "
34.59, 1372.07, 0.05776477, NaN, NaN, NaN, 0.0335714, "- N/A -   "
34.62, 1373.38, 0.05781475, NaN, NaN, NaN, 0.0335714, "- N/A -   "
34.65, 1374.93, 0.05787306, NaN, NaN, NaN, 0.0299091, "- N/A -   "
34.68, 1376.24, 0.0579258, NaN, NaN, NaN, 0.0286883, "- N/A -   "
34.71, 1377.67, 0.05797858, NaN, NaN, NaN, 0.0274675, "- N/A -   "
34.74, 1378.865, 0.0580258, NaN, NaN, NaN, 0.0286883, "- N/A -   "
34.77, 1380.06, 0.058073, NaN, NaN, NaN, 0.03112983, "- N/A -   "
34.8, 1381.13, 0.05811464, NaN, NaN, NaN, 0.0335714, "- N/A -   "
34.83, 1382.2, 0.0581563, NaN, NaN, NaN, 0.0372337, "- N/A -   "
34.86, 1383.16, 0.05819794, NaN, NaN, NaN, 0.04089605, "- N/A -   "
34.89, 1384.47, 0.05824237, NaN, NaN, NaN, 0.0433376, "- N/A -   "
34.92, 1385.54, 0.0582868, NaN, NaN, NaN, 0.04577916, "- N/A -   "
34.95, 1386.85, 0.0583368, NaN, NaN, NaN, 0.04699994, "- N/A -   "
34.98, 1388.29, 0.05838676, NaN, NaN, NaN, 0.04577916, "- N/A -   "
35.01, 1389.72, 0.0584423, NaN, NaN, NaN, 0.0433376, "- N/A -   "
35.04, 1391.39, 0.0585006, NaN, NaN, NaN, 0.0396753, "- N/A -   "
35.07, 1392.82, 0.0585534, NaN, NaN, NaN, 0.0384545, "- N/A -   "
35.1, 1394.37, 0.0586117, NaN, NaN, NaN, 0.0347922, "- N/A -   "
35.13, 1395.8, 0.0586672, NaN, NaN, NaN, 0.0335714, "- N/A -   "
35.16, 1397.23, 0.0587172, NaN, NaN, NaN, 0.0323506, "- N/A -   "
35.19, 1398.42, 0.0587672, NaN, NaN, NaN, 0.0323506, "- N/A -   "
35.22, 1399.85, 0.0588199, NaN, NaN, NaN, 0.03112983, "- N/A -   "
35.25, 1401.28, 0.0588755, NaN, NaN, NaN, 0.0286883, "- N/A -   "
35.28, 1402.6, 0.05892267, NaN, NaN, NaN, 0.0299091, "- N/A -   "
35.31, 1404.03, 0.05897543, NaN, NaN, NaN, 0.0299091, "- N/A -   "
35.34, 1405.339, 0.059031, NaN, NaN, NaN, 0.0286883, "- N/A -   "
35.37, 1406.65, 0.0590809, NaN, NaN, NaN, 0.0286883, "- N/A -   "
35.4, 1407.96, 0.0591282, NaN, NaN, NaN, 0.0286883, "- N/A -   "
35.43, 1408.92, 0.0591698, NaN, NaN, NaN, 0.0323506, "- N/A -   "
35.46, 1409.99, 0.0592087, NaN, NaN, NaN, 0.0372337, "- N/A -   "
35.49, 1411.06, 0.05925033, NaN, NaN, NaN, 0.04089605, "- N/A -   "
35.52, 1412.14, 0.059292, NaN, NaN, NaN, 0.0445584, "- N/A -   "
35.55, 1413.33, 0.0593392, NaN, NaN, NaN, 0.04699994, "- N/A -   "
35.58, 1414.64, 0.05938639, NaN, NaN, NaN, 0.04699994, "- N/A -   "
35.61, 1416.07, 0.0594364, NaN, NaN, NaN, 0.04699994, "- N/A -   "
35.64, 1417.14, 0.0594891, NaN, NaN, NaN, 0.04699994, "- N/A -   "
35.67, 1418.58, 0.0595391, NaN, NaN, NaN, 0.04577916, "- N/A -   "
35.7, 1420.007, 0.05959187, NaN, NaN, NaN, 0.0445584, "- N/A -   "
35.73, 1421.68, 0.05965018, NaN, NaN, NaN, 0.04089605, "- N/A -   "
35.76, 1423.23, 0.0597085, NaN, NaN, NaN, 0.0384545, "- N/A -   "
35.79, 1424.54, 0.0597613, NaN, NaN, NaN, 0.03601294, "- N/A -   "
35.82, 1426.21, 0.0598223, NaN, NaN, NaN, 0.03112983, "- N/A -   "
35.85, 1427.76, 0.0598807, NaN, NaN, NaN, 0.0274675, "- N/A -   "
35.88, 1429.07, 0.0599306, NaN, NaN, NaN, 0.0274675, "- N/A -   "
35.91, 1430.382, 0.0599806, NaN, NaN, NaN, 0.0286883, "- N/A -   "
35.94, 1431.46, 0.060025, NaN, NaN, NaN, 0.0299091, "- N/A -   "
35.97, 1432.65, 0.0600667, NaN, NaN, NaN, 0.0335714, "- N/A -   "
36, 1433.721, 0.0601139, NaN, NaN, NaN, 0.0347922, "- N/A -   "
36.03, 1435.03, 0.0601611, NaN, NaN, NaN, 0.03601294, "- N/A -   "
36.06, 1436.34, 0.06021109, NaN, NaN, NaN, 0.03601294, "- N/A -   "
36.09, 1437.66, 0.06025829, NaN, NaN, NaN, 0.0372337, "- N/A -   "
36.12, 1438.968, 0.06031105, NaN, NaN, NaN, 0.03601294, "- N/A -   "
36.15, 1440.399, 0.0603638, NaN, NaN, NaN, 0.0347922, "- N/A -   "
36.18, 1441.47, 0.06040824, NaN, NaN, NaN, 0.0372337, "- N/A -   "
36.21, 1442.66, 0.0604527, NaN, NaN, NaN, 0.0396753, "- N/A -   "
36.24, 1443.74, 0.0604943, NaN, NaN, NaN, 0.0433376, "- N/A -   "
36.27, 1444.81, 0.0605387, NaN, NaN, NaN, 0.04577916, "- N/A -   "
36.3, 1446.24, 0.0605915, NaN, NaN, NaN, 0.04577916, "- N/A -   "
36.33, 1447.55, 0.0606415, NaN, NaN, NaN, 0.0445584, "- N/A -   "
36.36, 1448.99, 0.06069702, NaN, NaN, NaN, 0.04211683, "- N/A -   "
36.39, 1450.65, 0.0607553, NaN, NaN, NaN, 0.0384545, "- N/A -   "
36.42, 1452.32, 0.0608136, NaN, NaN, NaN, 0.0347922, "- N/A -   "
36.45, 1453.64, 0.060872, NaN, NaN, NaN, 0.0323506, "- N/A -   "
36.48, 1455.07, 0.0609219, NaN, NaN, NaN, 0.03112983, "- N/A -   "
36.51, 1456.26, 0.0609719, NaN, NaN, NaN, 0.03112983, "- N/A -   "
36.54, 1457.452, 0.0610163, NaN, NaN, NaN, 0.0335714, "- N/A -   "
36.57, 1458.64, 0.0610663, NaN, NaN, NaN, 0.0335714, "- N/A -   "
36.6, 1459.84, 0.0611108, NaN, NaN, NaN, 0.03601294, "- N/A -   "
36.63, 1461.15, 0.06115796, NaN, NaN, NaN, 0.0372337, "- N/A -   "
36.66, 1462.46, 0.0612079, NaN, NaN, NaN, 0.0372337, "- N/A -   "
36.69, 1463.89, 0.0612607, NaN, NaN, NaN, 0.03601294, "- N/A -   "
36.72, 1465.32, 0.061319, NaN, NaN, NaN, 0.0323506, "- N/A -   "
36.75, 1466.75, 0.06137177, NaN, NaN, NaN, 0.03112983, "- N/A -   "
36.78, 1468.07, 0.061419, NaN, NaN, NaN, 0.0323506, "- N/A -   "
36.81, 1469.14, 0.0614662, NaN, NaN, NaN, 0.0347922, "- N/A -   "
36.84, 1470.212, 0.06150783, NaN, NaN, NaN, 0.0372337, "- N/A -   "
36.87, 1471.29, 0.0615523, NaN, NaN, NaN, 0.0396753, "- N/A -   "
36.9, 1472.6, 0.0615995, NaN, NaN, NaN, 0.04211683, "- N/A -   "
36.93, 1473.79, 0.0616439, NaN, NaN, NaN, 0.0433376, "- N/A -   "
36.96, 1475.22, 0.0616994, NaN, NaN, NaN, 0.04089605, "- N/A -   "
36.99, 1476.53, 0.0617494, NaN, NaN, NaN, 0.04211683, "- N/A -   "
37.02, 1477.61, 0.0617938, NaN, NaN, NaN, 0.0433376, "- N/A -   "
37.05, 1479.156, 0.0618466, NaN, NaN, NaN, 0.04211683, "- N/A -   "
37.08, 1480.47, 0.0618994, NaN, NaN, NaN, 0.04089605, "- N/A -   "
37.11, 1482.02, 0.0619577, NaN, NaN, NaN, 0.0384545, "- N/A -   "
37.14, 1483.45, 0.0620076, NaN, NaN, NaN, 0.0372337, "- N/A -   "
37.17, 1484.88, 0.06206318, NaN, NaN, NaN, 0.0347922, "- N/A -   "
37.172, 1485, 0.06206596, NaN, NaN, NaN, 0.03601294, "- N/A -   "