File: 2_Tensile_Data/Hamel_ForceTest_Bolt5_Test1.csv
Time, Load (lb), Position (in), AxialStrain (in), TransverseStrain (in), Auxiliary (), Control Out (V), Stress (psi)
0.0,1.06153,0.0, NaN, NaN, NaN,0.09094793," ""- N/A -   """
0.01,1.17947,1.94373e-05, NaN, NaN, NaN,0.100714," ""- N/A -   """
0.02,1.65126,4.720478e-05, NaN, NaN, NaN,0.1092596," ""- N/A -   """
0.05,3.18458,0.000141614, NaN, NaN, NaN,0.103156," ""- N/A -   """
0.08,4.246109,0.000224917, NaN, NaN, NaN,0.0897272," ""- N/A -   """
0.11,5.425584,0.000297112, NaN, NaN, NaN,0.07874016," ""- N/A -   """
0.14,6.60506,0.000369308, NaN, NaN, NaN,0.0689739," ""- N/A -   """
0.17,7.784533,0.000441504, NaN, NaN, NaN,0.0592077," ""- N/A -   """
0.2,8.964007,0.0005164758, NaN, NaN, NaN,0.0482207," ""- N/A -   """
0.23,9.907588,0.0005831179, NaN, NaN, NaN,0.04089605," ""- N/A -   """
0.26,10.9691,0.0006442064, NaN, NaN, NaN,0.03601294," ""- N/A -   """
0.29,11.7947,0.0006997415, NaN, NaN, NaN,0.0347922," ""- N/A -   """
0.32,12.6204,0.000749723, NaN, NaN, NaN,0.0335714," ""- N/A -   """
0.35,13.446,0.0007969278, NaN, NaN, NaN,0.0347922," ""- N/A -   """
0.38,14.2716,0.0008469093, NaN, NaN, NaN,0.0347922," ""- N/A -   """
0.41,14.9793,0.000891337, NaN, NaN, NaN,0.0384545," ""- N/A -   """
0.44,15.805,0.000935765, NaN, NaN, NaN,0.0396753," ""- N/A -   """
0.47,16.74854,0.0009857469, NaN, NaN, NaN,0.0396753," ""- N/A -   """
0.5,17.4562,0.00103851, NaN, NaN, NaN,0.0384545," ""- N/A -   """
0.53,18.2819,0.00108849, NaN, NaN, NaN,0.0384545," ""- N/A -   """
0.56,19.1075,0.00113847, NaN, NaN, NaN,0.0384545," ""- N/A -   """
0.59,19.8152,0.00118012, NaN, NaN, NaN,0.04211683," ""- N/A -   """
0.62,20.52286,0.00122732, NaN, NaN, NaN,0.0445584," ""- N/A -   """
0.65,21.3485,0.00127731, NaN, NaN, NaN,0.0433376," ""- N/A -   """
0.68,22.29207,0.00132729, NaN, NaN, NaN,0.0433376," ""- N/A -   """
0.71,22.9998,0.00137727, NaN, NaN, NaN,0.0433376," ""- N/A -   """
0.74,23.9433,0.0014328, NaN, NaN, NaN,0.04089605," ""- N/A -   """
0.77,24.769,0.00148556, NaN, NaN, NaN,0.0396753," ""- N/A -   """
0.8,25.7125,0.001543874, NaN, NaN, NaN,0.0372337," ""- N/A -   """
0.83,26.5382,0.001599409, NaN, NaN, NaN,0.0335714," ""- N/A -   """
0.86,27.5997,0.00165772, NaN, NaN, NaN,0.0299091," ""- N/A -   """
0.89,28.42534,0.00171326, NaN, NaN, NaN,0.0274675," ""- N/A -   """
0.92,29.0151,0.00175768, NaN, NaN, NaN,0.0299091," ""- N/A -   """
0.95,29.7228,0.001802112, NaN, NaN, NaN,0.0323506," ""- N/A -   """
0.98,30.4304,0.00184654, NaN, NaN, NaN,0.0347922," ""- N/A -   """
1.01,31.2561,0.00189374, NaN, NaN, NaN,0.03601294," ""- N/A -   """
1.04,31.9638,0.0019465, NaN, NaN, NaN,0.03601294," ""- N/A -   """
1.07,32.9073,0.00199648, NaN, NaN, NaN,0.0347922," ""- N/A -   """
1.1,33.73298,0.00205202, NaN, NaN, NaN,0.0335714," ""- N/A -   """
1.13,34.6766,0.002102001, NaN, NaN, NaN,0.0323506," ""- N/A -   """
1.16,35.2663,0.00214643, NaN, NaN, NaN,0.0347922," ""- N/A -   """
1.19,35.85603,0.002193634, NaN, NaN, NaN,0.0372337," ""- N/A -   """
1.22,36.6817,0.00224084, NaN, NaN, NaN,0.0384545," ""- N/A -   """
1.25,37.3893,0.00228527, NaN, NaN, NaN,0.0396753," ""- N/A -   """
1.28,37.9791,0.00232969, NaN, NaN, NaN,0.04211683," ""- N/A -   """
1.31,38.8047,0.00237968, NaN, NaN, NaN,0.04211683," ""- N/A -   """
1.34,39.6304,0.00243243, NaN, NaN, NaN,0.04089605," ""- N/A -   """
1.37,40.57393,0.002485193, NaN, NaN, NaN,0.04089605," ""- N/A -   """
1.4,41.2816,0.00253517, NaN, NaN, NaN,0.04089605," ""- N/A -   """
1.43,42.1072,0.00258516, NaN, NaN, NaN,0.0396753," ""- N/A -   """
1.46,42.93288,0.00264069, NaN, NaN, NaN,0.0372337," ""- N/A -   """
1.49,43.87646,0.00269345, NaN, NaN, NaN,0.03601294," ""- N/A -   """
1.52,44.70209,0.00274621, NaN, NaN, NaN,0.03601294," ""- N/A -   """
1.55,45.40978,0.00279341, NaN, NaN, NaN,0.03601294," ""- N/A -   """
1.58,46.11746,0.00284617, NaN, NaN, NaN,0.03601294," ""- N/A -   """
1.61,46.9431,0.00289615, NaN, NaN, NaN,0.03601294," ""- N/A -   """
1.64,47.7687,0.00294891, NaN, NaN, NaN,0.0335714," ""- N/A -   """
1.67,48.59436,0.003001669, NaN, NaN, NaN,0.0335714," ""- N/A -   """
1.7,49.41999,0.00304887, NaN, NaN, NaN,0.0335714," ""- N/A -   """
1.73,50.0097,0.0030933, NaN, NaN, NaN,0.03601294," ""- N/A -   """
1.76,50.83536,0.003143283, NaN, NaN, NaN,0.0372337," ""- N/A -   """
1.79,51.543,0.003190488, NaN, NaN, NaN,0.0372337," ""- N/A -   """
1.82,52.48662,0.003243246, NaN, NaN, NaN,0.0372337," ""- N/A -   """
1.85,53.0764,0.00329045, NaN, NaN, NaN,0.0372337," ""- N/A -   """
1.88,54.0199,0.00334599, NaN, NaN, NaN,0.0347922," ""- N/A -   """
1.91,54.8456,0.00340152, NaN, NaN, NaN,0.0323506," ""- N/A -   """
1.94,55.55326,0.00344595, NaN, NaN, NaN,0.0347922," ""- N/A -   """
1.97,56.143,0.00349038, NaN, NaN, NaN,0.0372337," ""- N/A -   """
2,56.85068,0.00353481, NaN, NaN, NaN,0.0396753," ""- N/A -   """
2.03,57.79426,0.00358479, NaN, NaN, NaN,0.0396753," ""- N/A -   """
2.06,58.5019,0.00363477, NaN, NaN, NaN,0.04089605," ""- N/A -   """
2.09,59.2096,0.00368197, NaN, NaN, NaN,0.04211683," ""- N/A -   """
2.12,59.9173,0.00372918, NaN, NaN, NaN,0.0433376," ""- N/A -   """
2.15,60.7429,0.00377916, NaN, NaN, NaN,0.0433376," ""- N/A -   """
2.18,61.56858,0.003829141, NaN, NaN, NaN,0.04211683," ""- N/A -   """
2.21,62.5122,0.00388745, NaN, NaN, NaN,0.0384545," ""- N/A -   """
2.24,63.5737,0.003948541, NaN, NaN, NaN,0.0335714," ""- N/A -   """
2.27,64.3993,0.004004076, NaN, NaN, NaN,0.03112983," ""- N/A -   """
2.3,65.107,0.00405683, NaN, NaN, NaN,0.0299091," ""- N/A -   """
2.33,65.81469,0.00410126, NaN, NaN, NaN,0.0323506," ""- N/A -   """
2.36,66.52237,0.004148467, NaN, NaN, NaN,0.0335714," ""- N/A -   """
2.39,67.34801,0.00420123, NaN, NaN, NaN,0.0335714," ""- N/A -   """
2.42,68.17364,0.004251207, NaN, NaN, NaN,0.0323506," ""- N/A -   """
2.45,68.9993,0.004306742, NaN, NaN, NaN,0.0299091," ""- N/A -   """
2.48,70.0608,0.0043595, NaN, NaN, NaN,0.0286883," ""- N/A -   """
2.51,70.6505,0.004409482, NaN, NaN, NaN,0.0286883," ""- N/A -   """
2.54,71.4762,0.004456687, NaN, NaN, NaN,0.0299091," ""- N/A -   """
2.57,72.06591,0.004498338, NaN, NaN, NaN,0.0335714," ""- N/A -   """
2.6,72.77359,0.004542766, NaN, NaN, NaN,0.03601294," ""- N/A -   """
2.63,73.36333,0.004584417, NaN, NaN, NaN,0.0396753," ""- N/A -   """
2.66,73.9531,0.00462885, NaN, NaN, NaN,0.04211683," ""- N/A -   """
2.69,74.66075,0.00467327, NaN, NaN, NaN,0.0445584," ""- N/A -   """
2.72,75.48638,0.004720478, NaN, NaN, NaN,0.04577916," ""- N/A -   """
2.75,76.19407,0.00477046, NaN, NaN, NaN,0.04699994," ""- N/A -   """
2.78,76.90175,0.00482044, NaN, NaN, NaN,0.04577916," ""- N/A -   """
2.81,77.84533,0.00487598, NaN, NaN, NaN,0.0433376," ""- N/A -   """
2.84,78.55301,0.00493151, NaN, NaN, NaN,0.04211683," ""- N/A -   """
2.87,79.73249,0.004987047, NaN, NaN, NaN,0.0384545," ""- N/A -   """
2.9,80.55813,0.00504536, NaN, NaN, NaN,0.0347922," ""- N/A -   """
2.93,81.38376,0.00510089, NaN, NaN, NaN,0.0335714," ""- N/A -   """
2.96,82.09144,0.0051481, NaN, NaN, NaN,0.0335714," ""- N/A -   """
2.99,82.91707,0.005200856, NaN, NaN, NaN,0.0323506," ""- N/A -   """
3.02,83.74271,0.005256391, NaN, NaN, NaN,0.0299091," ""- N/A -   """
3.05,84.56834,0.00530915, NaN, NaN, NaN,0.0286883," ""- N/A -   """
3.08,85.39397,0.00536191, NaN, NaN, NaN,0.0274675," ""- N/A -   """
3.11,86.1017,0.00541189, NaN, NaN, NaN,0.0274675," ""- N/A -   """
3.14,86.80934,0.005461871, NaN, NaN, NaN,0.0286883," ""- N/A -   """
3.17,87.63497,0.00550908, NaN, NaN, NaN,0.0286883," ""- N/A -   """
3.2,88.10676,0.0055535, NaN, NaN, NaN,0.0323506," ""- N/A -   """
3.23,88.9324,0.005597932, NaN, NaN, NaN,0.0335714," ""- N/A -   """
3.26,89.6401,0.005645136, NaN, NaN, NaN,0.03601294," ""- N/A -   """
3.29,90.34776,0.005689564, NaN, NaN, NaN,0.0384545," ""- N/A -   """
3.32,90.9375,0.005733992, NaN, NaN, NaN,0.04089605," ""- N/A -   """
3.35,91.76313,0.00577842, NaN, NaN, NaN,0.04211683," ""- N/A -   """
3.38,92.47082,0.00582563, NaN, NaN, NaN,0.0445584," ""- N/A -   """
3.41,93.2965,0.00587561, NaN, NaN, NaN,0.0433376," ""- N/A -   """
3.44,93.8862,0.00592559, NaN, NaN, NaN,0.0433376," ""- N/A -   """
3.47,94.8298,0.00597557, NaN, NaN, NaN,0.0433376," ""- N/A -   """
3.5,95.41951,0.006025552, NaN, NaN, NaN,0.0433376," ""- N/A -   """
3.53,96.24514,0.00607553, NaN, NaN, NaN,0.0433376," ""- N/A -   """
3.56,97.07077,0.006131068, NaN, NaN, NaN,0.04211683," ""- N/A -   """
3.59,98.13229,0.006192156, NaN, NaN, NaN,0.0372337," ""- N/A -   """
3.62,99.0759,0.00625325, NaN, NaN, NaN,0.0323506," ""- N/A -   """
3.65,100.019,0.00631156, NaN, NaN, NaN,0.0286883," ""- N/A -   """
3.68,100.727,0.006361538, NaN, NaN, NaN,0.0286883," ""- N/A -   """
3.71,101.317,0.00640874, NaN, NaN, NaN,0.0299091," ""- N/A -   """
3.74,102.143,0.006455948, NaN, NaN, NaN,0.03112983," ""- N/A -   """
3.77,102.732,0.00650315, NaN, NaN, NaN,0.0323506," ""- N/A -   """
3.8,103.558,0.006550358, NaN, NaN, NaN,0.0335714," ""- N/A -   """
3.83,104.148,0.006597562, NaN, NaN, NaN,0.03601294," ""- N/A -   """
3.86,104.973,0.006647544, NaN, NaN, NaN,0.0347922," ""- N/A -   """
3.89,105.681,0.0067003, NaN, NaN, NaN,0.0335714," ""- N/A -   """
3.92,106.507,0.00674751, NaN, NaN, NaN,0.03601294," ""- N/A -   """
3.95,107.214,0.006794712, NaN, NaN, NaN,0.03601294," ""- N/A -   """
3.98,107.804,0.00683914, NaN, NaN, NaN,0.0384545," ""- N/A -   """
4.01,108.512,0.006883568, NaN, NaN, NaN,0.04089605," ""- N/A -   """
4.04,109.219,0.006928, NaN, NaN, NaN,0.0433376," ""- N/A -   """
4.07,109.927,0.0069752, NaN, NaN, NaN,0.04577916," ""- N/A -   """
4.1,110.635,0.007022406, NaN, NaN, NaN,0.04577916," ""- N/A -   """
4.13,111.46,0.00706961, NaN, NaN, NaN,0.04699994," ""- N/A -   """
4.16,112.404,0.00712792, NaN, NaN, NaN,0.0433376," ""- N/A -   """
4.19,113.23,0.00718623, NaN, NaN, NaN,0.0396753," ""- N/A -   """
4.22,114.173,0.007244546, NaN, NaN, NaN,0.03601294," ""- N/A -   """
4.25,114.999,0.00730008, NaN, NaN, NaN,0.0347922," ""- N/A -   """
4.28,115.824,0.00735284, NaN, NaN, NaN,0.0323506," ""- N/A -   """
4.31,116.5321,0.007405597, NaN, NaN, NaN,0.0323506," ""- N/A -   """
4.34,117.358,0.007450025, NaN, NaN, NaN,0.0335714," ""- N/A -   """
4.37,118.065,0.007500007, NaN, NaN, NaN,0.0347922," ""- N/A -   """
4.4,118.655,0.007547211, NaN, NaN, NaN,0.0347922," ""- N/A -   """
4.43,119.363,0.007594417, NaN, NaN, NaN,0.03601294," ""- N/A -   """
4.46,120.188,0.007647175, NaN, NaN, NaN,0.03601294," ""- N/A -   """
4.49,121.014,0.007699933, NaN, NaN, NaN,0.0347922," ""- N/A -   """
4.52,121.84,0.007752691, NaN, NaN, NaN,0.0323506," ""- N/A -   """
4.55,122.547,0.00780267, NaN, NaN, NaN,0.0323506," ""- N/A -   """
4.58,123.255,0.007849877, NaN, NaN, NaN,0.0335714," ""- N/A -   """
4.61,123.963,0.007897083, NaN, NaN, NaN,0.0347922," ""- N/A -   """
4.64,124.67,0.00794151, NaN, NaN, NaN,0.0372337," ""- N/A -   """
4.67,125.26,0.007988716, NaN, NaN, NaN,0.0384545," ""- N/A -   """
4.7,125.9679,0.00803592, NaN, NaN, NaN,0.04089605," ""- N/A -   """
4.73,126.794,0.008088679, NaN, NaN, NaN,0.0396753," ""- N/A -   """
4.76,127.501,0.008135883, NaN, NaN, NaN,0.0396753," ""- N/A -   """
4.79,128.209,0.008185865, NaN, NaN, NaN,0.0396753," ""- N/A -   """
4.82,128.917,0.008235846, NaN, NaN, NaN,0.0396753," ""- N/A -   """
4.85,129.86,0.008285827, NaN, NaN, NaN,0.0396753," ""- N/A -   """
4.88,130.568,0.00833859, NaN, NaN, NaN,0.0384545," ""- N/A -   """
4.91,131.276,0.008385791, NaN, NaN, NaN,0.0396753," ""- N/A -   """
4.94,131.865,0.008438549, NaN, NaN, NaN,0.0396753," ""- N/A -   """
4.97,132.6909,0.00849131, NaN, NaN, NaN,0.0384545," ""- N/A -   """
5,133.399,0.008538512, NaN, NaN, NaN,0.0384545," ""- N/A -   """
5.03,134.342,0.00859127, NaN, NaN, NaN,0.0372337," ""- N/A -   """
5.06,135.1678,0.008649582, NaN, NaN, NaN,0.0347922," ""- N/A -   """
5.09,135.993,0.00870234, NaN, NaN, NaN,0.0323506," ""- N/A -   """
5.12,136.701,0.008755099, NaN, NaN, NaN,0.03112983," ""- N/A -   """
5.15,137.291,0.008802303, NaN, NaN, NaN,0.0323506," ""- N/A -   """
5.18,138.116,0.008852285, NaN, NaN, NaN,0.0323506," ""- N/A -   """
5.21,138.824,0.008902266, NaN, NaN, NaN,0.0323506," ""- N/A -   """
5.24,139.65,0.008955025, NaN, NaN, NaN,0.0323506," ""- N/A -   """
5.27,140.357,0.009005006, NaN, NaN, NaN,0.03112983," ""- N/A -   """
5.3,141.183,0.009057764, NaN, NaN, NaN,0.03112983," ""- N/A -   """
5.33,141.773,0.00910497, NaN, NaN, NaN,0.0323506," ""- N/A -   """
5.36,142.245,0.009143844, NaN, NaN, NaN,0.03601294," ""- N/A -   """
5.39,142.952,0.009188272, NaN, NaN, NaN,0.0384545," ""- N/A -   """
5.42,143.66,0.009238253, NaN, NaN, NaN,0.0396753," ""- N/A -   """
5.45,144.368,0.009282682, NaN, NaN, NaN,0.04089605," ""- N/A -   """
5.48,144.957,0.00932711, NaN, NaN, NaN,0.0433376," ""- N/A -   """
5.51,145.547,0.009371538, NaN, NaN, NaN,0.04577916," ""- N/A -   """
5.54,146.3728,0.00942152, NaN, NaN, NaN,0.04577916," ""- N/A -   """
5.57,147.0805,0.00947428, NaN, NaN, NaN,0.04577916," ""- N/A -   """
5.6,148.024,0.009532589, NaN, NaN, NaN,0.04211683," ""- N/A -   """
5.63,148.968,0.009590901, NaN, NaN, NaN,0.0384545," ""- N/A -   """
5.66,149.911,0.009649213, NaN, NaN, NaN,0.0347922," ""- N/A -   """
5.69,150.619,0.009704748, NaN, NaN, NaN,0.0323506," ""- N/A -   """
5.72,151.327,0.009749176, NaN, NaN, NaN,0.0335714," ""- N/A -   """
5.75,152.034,0.00980193, NaN, NaN, NaN,0.0335714," ""- N/A -   """
5.78,152.86,0.009851916, NaN, NaN, NaN,0.0323506," ""- N/A -   """
5.81,153.568,0.009899121, NaN, NaN, NaN,0.0335714," ""- N/A -   """
5.84,154.2753,0.009954656, NaN, NaN, NaN,0.03112983," ""- N/A -   """
5.87,155.101,0.0100074, NaN, NaN, NaN,0.0299091," ""- N/A -   """
5.9,155.927,0.0100602, NaN, NaN, NaN,0.0286883," ""- N/A -   """
5.93,156.5163,0.0101074, NaN, NaN, NaN,0.0299091," ""- N/A -   """
5.96,157.106,0.0101518, NaN, NaN, NaN,0.0323506," ""- N/A -   """
5.99,157.814,0.01019901, NaN, NaN, NaN,0.0335714," ""- N/A -   """
6.02,158.403,0.0102407, NaN, NaN, NaN,0.0372337," ""- N/A -   """
6.05,158.9932,0.0102879, NaN, NaN, NaN,0.0396753," ""- N/A -   """
6.08,159.701,0.01033507, NaN, NaN, NaN,0.04089605," ""- N/A -   """
6.11,160.2906,0.0103795, NaN, NaN, NaN,0.0433376," ""- N/A -   """
6.14,160.998,0.01042115, NaN, NaN, NaN,0.04577916," ""- N/A -   """
6.17,161.706,0.0104656, NaN, NaN, NaN,0.0482207," ""- N/A -   """
6.2,162.532,0.01052389, NaN, NaN, NaN,0.0445584," ""- N/A -   """
6.23,163.593,0.0105822, NaN, NaN, NaN,0.04089605," ""- N/A -   """
6.26,164.419,0.0106405, NaN, NaN, NaN,0.0384545," ""- N/A -   """
6.29,165.2444,0.0106905, NaN, NaN, NaN,0.0372337," ""- N/A -   """
6.32,165.834,0.0107405, NaN, NaN, NaN,0.0372337," ""- N/A -   """
6.35,166.66,0.0107932, NaN, NaN, NaN,0.03601294," ""- N/A -   """
6.38,167.485,0.010846, NaN, NaN, NaN,0.0347922," ""- N/A -   """
6.41,168.429,0.0109015, NaN, NaN, NaN,0.0323506," ""- N/A -   """
6.44,169.137,0.0109571, NaN, NaN, NaN,0.0299091," ""- N/A -   """
6.47,170.08,0.0110098, NaN, NaN, NaN,0.0286883," ""- N/A -   """
6.5,170.67,0.0110598, NaN, NaN, NaN,0.0299091," ""- N/A -   """
6.53,171.496,0.0111098, NaN, NaN, NaN,0.0299091," ""- N/A -   """
6.56,172.203,0.0111625, NaN, NaN, NaN,0.0286883," ""- N/A -   """
6.59,173.029,0.0112097, NaN, NaN, NaN,0.0286883," ""- N/A -   """
6.62,173.619,0.0112542, NaN, NaN, NaN,0.03112983," ""- N/A -   """
6.65,174.208,0.0112986, NaN, NaN, NaN,0.0335714," ""- N/A -   """
6.68,174.798,0.0113403, NaN, NaN, NaN,0.0372337," ""- N/A -   """
6.71,175.388,0.0113847, NaN, NaN, NaN,0.0396753," ""- N/A -   """
6.74,176.096,0.0114319, NaN, NaN, NaN,0.04211683," ""- N/A -   """
6.77,176.803,0.0114763, NaN, NaN, NaN,0.0433376," ""- N/A -   """
6.8,177.629,0.0115291, NaN, NaN, NaN,0.04211683," ""- N/A -   """
6.83,178.455,0.0115791, NaN, NaN, NaN,0.0433376," ""- N/A -   """
6.86,179.162,0.0116263, NaN, NaN, NaN,0.0433376," ""- N/A -   """
6.89,179.988,0.0116762, NaN, NaN, NaN,0.0433376," ""- N/A -   """
6.92,180.813,0.0117318, NaN, NaN, NaN,0.04089605," ""- N/A -   """
6.95,181.639,0.0117845, NaN, NaN, NaN,0.04089605," ""- N/A -   """
6.98,182.583,0.0118428, NaN, NaN, NaN,0.0372337," ""- N/A -   """
7.01,183.526,0.0118984, NaN, NaN, NaN,0.0335714," ""- N/A -   """
7.04,184.47,0.0119567, NaN, NaN, NaN,0.0299091," ""- N/A -   """
7.07,185.295,0.0120122, NaN, NaN, NaN,0.0274675," ""- N/A -   """
7.1,186.003,0.01206221, NaN, NaN, NaN,0.0286883," ""- N/A -   """
7.13,186.829,0.0121094, NaN, NaN, NaN,0.0286883," ""- N/A -   """
7.16,187.419,0.01215662, NaN, NaN, NaN,0.0299091," ""- N/A -   """
7.19,188.1262,0.0122038, NaN, NaN, NaN,0.0323506," ""- N/A -   """
7.22,188.952,0.0122483, NaN, NaN, NaN,0.0335714," ""- N/A -   """
7.25,189.66,0.0122982, NaN, NaN, NaN,0.0335714," ""- N/A -   """
7.28,190.367,0.01234544, NaN, NaN, NaN,0.03601294," ""- N/A -   """
7.31,191.193,0.0123926, NaN, NaN, NaN,0.03601294," ""- N/A -   """
7.34,191.901,0.0124426, NaN, NaN, NaN,0.0372337," ""- N/A -   """
7.37,192.49,0.0124871, NaN, NaN, NaN,0.0384545," ""- N/A -   """
7.4,193.3159,0.0125343, NaN, NaN, NaN,0.0396753," ""- N/A -   """
7.43,193.906,0.0125787, NaN, NaN, NaN,0.04211683," ""- N/A -   """
7.46,194.731,0.0126259, NaN, NaN, NaN,0.0433376," ""- N/A -   """
7.49,195.439,0.0126759, NaN, NaN, NaN,0.0433376," ""- N/A -   """
7.52,196.147,0.0127259, NaN, NaN, NaN,0.0445584," ""- N/A -   """
7.55,197.208,0.0127786, NaN, NaN, NaN,0.0433376," ""- N/A -   """
7.58,198.152,0.0128369, NaN, NaN, NaN,0.0396753," ""- N/A -   """
7.61,199.095,0.0128952, NaN, NaN, NaN,0.0347922," ""- N/A -   """
7.64,199.921,0.0129508, NaN, NaN, NaN,0.0323506," ""- N/A -   """
7.67,200.7466,0.01300353, NaN, NaN, NaN,0.0323506," ""- N/A -   """
7.7,201.572,0.01305351, NaN, NaN, NaN,0.03112983," ""- N/A -   """
7.73,202.398,0.0131035, NaN, NaN, NaN,0.03112983," ""- N/A -   """
7.76,203.106,0.0131535, NaN, NaN, NaN,0.0323506," ""- N/A -   """
7.79,203.695,0.0131979, NaN, NaN, NaN,0.0335714," ""- N/A -   """
7.82,204.521,0.0132479, NaN, NaN, NaN,0.0347922," ""- N/A -   """
7.85,205.347,0.0132951, NaN, NaN, NaN,0.0347922," ""- N/A -   """
7.88,206.172,0.0133478, NaN, NaN, NaN,0.0335714," ""- N/A -   """
7.91,206.88,0.0134006, NaN, NaN, NaN,0.0335714," ""- N/A -   """
7.94,207.823,0.0134534, NaN, NaN, NaN,0.0323506," ""- N/A -   """
7.97,208.767,0.0135033, NaN, NaN, NaN,0.03112983," ""- N/A -   """
8,209.357,0.0135478, NaN, NaN, NaN,0.0335714," ""- N/A -   """
8.03,210.064,0.0135922, NaN, NaN, NaN,0.03601294," ""- N/A -   """
8.06,210.772,0.0136394, NaN, NaN, NaN,0.0372337," ""- N/A -   """
8.09,211.362,0.0136838, NaN, NaN, NaN,0.04089605," ""- N/A -   """
8.12,212.1875,0.0137338, NaN, NaN, NaN,0.04089605," ""- N/A -   """
8.15,213.013,0.0137866, NaN, NaN, NaN,0.04089605," ""- N/A -   """
8.18,213.957,0.0138366, NaN, NaN, NaN,0.0396753," ""- N/A -   """
8.21,214.782,0.0138865, NaN, NaN, NaN,0.0396753," ""- N/A -   """
8.24,215.49,0.0139365, NaN, NaN, NaN,0.0396753," ""- N/A -   """
8.27,216.434,0.0139893, NaN, NaN, NaN,0.0384545," ""- N/A -   """
8.3,217.377,0.014042, NaN, NaN, NaN,0.0372337," ""- N/A -   """
8.33,218.085,0.014092, NaN, NaN, NaN,0.0372337," ""- N/A -   """
8.36,218.793,0.014142, NaN, NaN, NaN,0.0372337," ""- N/A -   """
8.39,219.736,0.014192, NaN, NaN, NaN,0.0372337," ""- N/A -   """
8.42,220.444,0.014242, NaN, NaN, NaN,0.0372337," ""- N/A -   """
8.45,221.387,0.0142947, NaN, NaN, NaN,0.03601294," ""- N/A -   """
8.48,222.331,0.0143503, NaN, NaN, NaN,0.0335714," ""- N/A -   """
8.51,223.039,0.014403, NaN, NaN, NaN,0.0323506," ""- N/A -   """
8.54,223.8643,0.0144502, NaN, NaN, NaN,0.0335714," ""- N/A -   """
8.57,224.572,0.0144974, NaN, NaN, NaN,0.0347922," ""- N/A -   """
8.6,225.516,0.0145474, NaN, NaN, NaN,0.0347922," ""- N/A -   """
8.63,226.223,0.0145946, NaN, NaN, NaN,0.0372337," ""- N/A -   """
8.66,226.931,0.0146418, NaN, NaN, NaN,0.0372337," ""- N/A -   """
8.69,227.757,0.0146946, NaN, NaN, NaN,0.0372337," ""- N/A -   """
8.72,228.818,0.0147473, NaN, NaN, NaN,0.0347922," ""- N/A -   """
8.75,229.526,0.0147973, NaN, NaN, NaN,0.0347922," ""- N/A -   """
8.78,230.116,0.0148417, NaN, NaN, NaN,0.0384545," ""- N/A -   """
8.81,230.941,0.0148862, NaN, NaN, NaN,0.0396753," ""- N/A -   """
8.84,231.767,0.0149361, NaN, NaN, NaN,0.0396753," ""- N/A -   """
8.87,232.71,0.0149889, NaN, NaN, NaN,0.0396753," ""- N/A -   """
8.9,233.536,0.0150389, NaN, NaN, NaN,0.0396753," ""- N/A -   """
8.93,234.362,0.0150889, NaN, NaN, NaN,0.0396753," ""- N/A -   """
8.96,235.187,0.0151389, NaN, NaN, NaN,0.0384545," ""- N/A -   """
8.99,236.131,0.0151944, NaN, NaN, NaN,0.0372337," ""- N/A -   """
9.02,236.956,0.0152416, NaN, NaN, NaN,0.0372337," ""- N/A -   """
9.05,237.9,0.01529435, NaN, NaN, NaN,0.03601294," ""- N/A -   """
9.08,238.726,0.0153471, NaN, NaN, NaN,0.03601294," ""- N/A -   """
9.11,239.433,0.0153943, NaN, NaN, NaN,0.03601294," ""- N/A -   """
9.14,240.259,0.0154443, NaN, NaN, NaN,0.03601294," ""- N/A -   """
9.17,241.203,0.0154943, NaN, NaN, NaN,0.03601294," ""- N/A -   """
9.2,242.028,0.0155443, NaN, NaN, NaN,0.03601294," ""- N/A -   """
9.23,242.736,0.015597, NaN, NaN, NaN,0.03601294," ""- N/A -   """
9.26,243.7961,0.0156498, NaN, NaN, NaN,0.0347922," ""- N/A -   """
9.29,244.503,0.0156998, NaN, NaN, NaN,0.0347922," ""- N/A -   """
9.32,245.328,0.0157442, NaN, NaN, NaN,0.03601294," ""- N/A -   """
9.35,246.035,0.0157942, NaN, NaN, NaN,0.0372337," ""- N/A -   """
9.38,246.86,0.01584137, NaN, NaN, NaN,0.0372337," ""- N/A -   """
9.41,247.684,0.01589135, NaN, NaN, NaN,0.0372337," ""- N/A -   """
9.44,248.509,0.01594411, NaN, NaN, NaN,0.0372337," ""- N/A -   """
9.47,249.452,0.0159913, NaN, NaN, NaN,0.0384545," ""- N/A -   """
9.5,250.159,0.0160357, NaN, NaN, NaN,0.0396753," ""- N/A -   """
9.53,250.983,0.0160857, NaN, NaN, NaN,0.04089605," ""- N/A -   """
9.56,251.69,0.0161302, NaN, NaN, NaN,0.04211683," ""- N/A -   """
9.59,252.397,0.01617458, NaN, NaN, NaN,0.0445584," ""- N/A -   """
9.62,253.458,0.0162301, NaN, NaN, NaN,0.04211683," ""- N/A -   """
9.65,254.518,0.01628565, NaN, NaN, NaN,0.0396753," ""- N/A -   """
9.68,255.225,0.0163356, NaN, NaN, NaN,0.0396753," ""- N/A -   """
9.71,256.286,0.0163912, NaN, NaN, NaN,0.0372337," ""- N/A -   """
9.74,257.346,0.0164495, NaN, NaN, NaN,0.0347922," ""- N/A -   """
9.77,258.171,0.01649946, NaN, NaN, NaN,0.0335714," ""- N/A -   """
9.8,259.113,0.0165494, NaN, NaN, NaN,0.0347922," ""- N/A -   """
9.83,259.938,0.016605, NaN, NaN, NaN,0.0323506," ""- N/A -   """
9.86,261.117,0.0166633, NaN, NaN, NaN,0.0286883," ""- N/A -   """
9.89,261.9413,0.01671327, NaN, NaN, NaN,0.0274675," ""- N/A -   """
9.92,262.766,0.0167605, NaN, NaN, NaN,0.0286883," ""- N/A -   """
9.95,263.591,0.01680768, NaN, NaN, NaN,0.0299091," ""- N/A -   """
9.98,264.298,0.0168549, NaN, NaN, NaN,0.03112983," ""- N/A -   """
10.01,265.123,0.01690209, NaN, NaN, NaN,0.0323506," ""- N/A -   """
10.04,265.9474,0.0169493, NaN, NaN, NaN,0.0347922," ""- N/A -   """
10.07,266.654,0.0169909, NaN, NaN, NaN,0.0372337," ""- N/A -   """
10.1,267.243,0.0170326, NaN, NaN, NaN,0.04211683," ""- N/A -   """
10.13,268.068,0.0170798, NaN, NaN, NaN,0.0433376," ""- N/A -   """
10.16,268.893,0.0171242, NaN, NaN, NaN,0.0445584," ""- N/A -   """
10.19,269.7178,0.01717421, NaN, NaN, NaN,0.0445584," ""- N/A -   """
10.22,270.778,0.017227, NaN, NaN, NaN,0.0433376," ""- N/A -   """
10.25,271.485,0.0172742, NaN, NaN, NaN,0.0445584," ""- N/A -   """
10.28,272.546,0.0173269, NaN, NaN, NaN,0.0433376," ""- N/A -   """
10.31,273.37,0.0173769, NaN, NaN, NaN,0.0445584," ""- N/A -   """
10.34,274.431,0.0174297, NaN, NaN, NaN,0.04211683," ""- N/A -   """
10.37,275.4913,0.0174908, NaN, NaN, NaN,0.0372337," ""- N/A -   """
10.4,276.552,0.0175518, NaN, NaN, NaN,0.0335714," ""- N/A -   """
10.43,277.8478,0.0176129, NaN, NaN, NaN,0.0286883," ""- N/A -   """
10.46,278.555,0.0176629, NaN, NaN, NaN,0.0286883," ""- N/A -   """
10.49,279.38,0.0177101, NaN, NaN, NaN,0.0299091," ""- N/A -   """
10.52,280.204,0.0177573, NaN, NaN, NaN,0.0299091," ""- N/A -   """
10.55,281.0291,0.0178073, NaN, NaN, NaN,0.0299091," ""- N/A -   """
10.58,281.972,0.01785729, NaN, NaN, NaN,0.0299091," ""- N/A -   """
10.61,282.914,0.0179073, NaN, NaN, NaN,0.0299091," ""- N/A -   """
10.64,283.857,0.0179545, NaN, NaN, NaN,0.03112983," ""- N/A -   """
10.67,284.446,0.0179989, NaN, NaN, NaN,0.0335714," ""- N/A -   """
10.7,285.271,0.01804611, NaN, NaN, NaN,0.03601294," ""- N/A -   """
10.73,286.096,0.0180961, NaN, NaN, NaN,0.03601294," ""- N/A -   """
10.76,287.038,0.0181405, NaN, NaN, NaN,0.0372337," ""- N/A -   """
10.79,287.863,0.0181905, NaN, NaN, NaN,0.0372337," ""- N/A -   """
10.82,288.688,0.01823493, NaN, NaN, NaN,0.0396753," ""- N/A -   """
10.85,289.5126,0.0182821, NaN, NaN, NaN,0.04211683," ""- N/A -   """
10.88,290.3374,0.0183321, NaN, NaN, NaN,0.04089605," ""- N/A -   """
10.91,291.162,0.0183765, NaN, NaN, NaN,0.0433376," ""- N/A -   """
10.94,292.105,0.0184265, NaN, NaN, NaN,0.0433376," ""- N/A -   """
10.97,292.93,0.0184765, NaN, NaN, NaN,0.0445584," ""- N/A -   """
11,294.108,0.0185348, NaN, NaN, NaN,0.0396753," ""- N/A -   """
11.03,295.168,0.01859313, NaN, NaN, NaN,0.03601294," ""- N/A -   """
11.06,296.2287,0.01864589, NaN, NaN, NaN,0.0347922," ""- N/A -   """
11.09,297.407,0.0187042, NaN, NaN, NaN,0.03112983," ""- N/A -   """
11.12,298.35,0.01875696, NaN, NaN, NaN,0.0299091," ""- N/A -   """
11.15,299.174,0.01880694, NaN, NaN, NaN,0.0299091," ""- N/A -   """
11.18,300.117,0.0188541, NaN, NaN, NaN,0.03112983," ""- N/A -   """
11.21,300.9417,0.0188986, NaN, NaN, NaN,0.0335714," ""- N/A -   """
11.24,301.6487,0.0189458, NaN, NaN, NaN,0.0347922," ""- N/A -   """
11.27,302.591,0.01899576, NaN, NaN, NaN,0.03601294," ""- N/A -   """
11.3,303.416,0.019043, NaN, NaN, NaN,0.03601294," ""- N/A -   """
11.33,304.3587,0.0190929, NaN, NaN, NaN,0.03601294," ""- N/A -   """
11.36,305.301,0.0191457, NaN, NaN, NaN,0.03601294," ""- N/A -   """
11.39,306.2439,0.0191957, NaN, NaN, NaN,0.0347922," ""- N/A -   """
11.42,307.187,0.0192457, NaN, NaN, NaN,0.0347922," ""- N/A -   """
11.45,308.011,0.0192901, NaN, NaN, NaN,0.0372337," ""- N/A -   """
11.48,308.8361,0.0193373, NaN, NaN, NaN,0.0384545," ""- N/A -   """
11.51,309.543,0.01937895, NaN, NaN, NaN,0.04211683," ""- N/A -   """
11.54,310.603,0.0194289, NaN, NaN, NaN,0.04211683," ""- N/A -   """
11.57,311.546,0.0194817, NaN, NaN, NaN,0.04089605," ""- N/A -   """
11.6,312.371,0.0195317, NaN, NaN, NaN,0.04089605," ""- N/A -   """
11.63,313.313,0.0195789, NaN, NaN, NaN,0.04211683," ""- N/A -   """
11.66,314.374,0.0196372, NaN, NaN, NaN,0.0396753," ""- N/A -   """
11.69,315.552,0.0196955, NaN, NaN, NaN,0.0347922," ""- N/A -   """
11.72,316.73,0.019751, NaN, NaN, NaN,0.0335714," ""- N/A -   """
11.75,317.5552,0.0197982, NaN, NaN, NaN,0.0335714," ""- N/A -   """
11.78,318.498,0.0198482, NaN, NaN, NaN,0.0335714," ""- N/A -   """
11.81,319.44,0.0198982, NaN, NaN, NaN,0.0335714," ""- N/A -   """
11.84,320.383,0.0199482, NaN, NaN, NaN,0.0335714," ""- N/A -   """
11.87,321.208,0.0199982, NaN, NaN, NaN,0.0335714," ""- N/A -   """
11.9,322.15,0.0200481, NaN, NaN, NaN,0.0335714," ""- N/A -   """
11.93,323.093,0.0201009, NaN, NaN, NaN,0.0323506," ""- N/A -   """
11.96,324.153,0.02015089, NaN, NaN, NaN,0.0323506," ""- N/A -   """
11.99,325.0961,0.0202064, NaN, NaN, NaN,0.03112983," ""- N/A -   """
12.02,326.0387,0.0202564, NaN, NaN, NaN,0.0299091," ""- N/A -   """
12.05,327.099,0.0203036, NaN, NaN, NaN,0.03112983," ""- N/A -   """
12.08,327.8061,0.0203508, NaN, NaN, NaN,0.0335714," ""- N/A -   """
12.11,328.7487,0.02039802, NaN, NaN, NaN,0.0335714," ""- N/A -   """
12.14,329.6913,0.0204508, NaN, NaN, NaN,0.0335714," ""- N/A -   """
12.17,330.6339,0.020498, NaN, NaN, NaN,0.0335714," ""- N/A -   """
12.2,331.4587,0.02054241, NaN, NaN, NaN,0.03601294," ""- N/A -   """
12.23,332.283,0.0205896, NaN, NaN, NaN,0.0372337," ""- N/A -   """
12.26,333.226,0.0206396, NaN, NaN, NaN,0.0372337," ""- N/A -   """
12.29,334.051,0.020684, NaN, NaN, NaN,0.0396753," ""- N/A -   """
12.32,334.876,0.0207285, NaN, NaN, NaN,0.04211683," ""- N/A -   """
12.35,335.818,0.0207757, NaN, NaN, NaN,0.0433376," ""- N/A -   """
12.38,336.643,0.0208229, NaN, NaN, NaN,0.0445584," ""- N/A -   """
12.41,337.7035,0.0208728, NaN, NaN, NaN,0.0445584," ""- N/A -   """
12.44,338.882,0.0209312, NaN, NaN, NaN,0.04089605," ""- N/A -   """
12.47,340.06,0.0209895, NaN, NaN, NaN,0.0372337," ""- N/A -   """
12.5,341.238,0.02104778, NaN, NaN, NaN,0.0335714," ""- N/A -   """
12.53,342.181,0.0211005, NaN, NaN, NaN,0.0323506," ""- N/A -   """
12.56,343.123,0.02115052, NaN, NaN, NaN,0.0323506," ""- N/A -   """
12.59,344.0661,0.0211977, NaN, NaN, NaN,0.0347922," ""- N/A -   """
12.62,345.009,0.0212477, NaN, NaN, NaN,0.0347922," ""- N/A -   """
12.65,346.187,0.02130324, NaN, NaN, NaN,0.0323506," ""- N/A -   """
12.68,347.247,0.021356, NaN, NaN, NaN,0.03112983," ""- N/A -   """
12.71,348.19,0.0214088, NaN, NaN, NaN,0.0299091," ""- N/A -   """
12.74,349.1326,0.0214587, NaN, NaN, NaN,0.0299091," ""- N/A -   """
12.77,349.9574,0.0215032, NaN, NaN, NaN,0.0323506," ""- N/A -   """
12.8,350.9,0.0215504, NaN, NaN, NaN,0.0347922," ""- N/A -   """
12.83,351.7248,0.0215976, NaN, NaN, NaN,0.03601294," ""- N/A -   """
12.86,352.432,0.02163645, NaN, NaN, NaN,0.0396753," ""- N/A -   """
12.89,353.1387,0.0216753, NaN, NaN, NaN,0.0445584," ""- N/A -   """
12.92,353.963,0.0217225, NaN, NaN, NaN,0.04577916," ""- N/A -   """
12.95,354.9061,0.021767, NaN, NaN, NaN,0.0482207," ""- N/A -   """
12.98,355.7309,0.0218142, NaN, NaN, NaN,0.05066227," ""- N/A -   """
13.01,356.791,0.0218641, NaN, NaN, NaN,0.0494415," ""- N/A -   """
13.04,357.97,0.0219225, NaN, NaN, NaN,0.04699994," ""- N/A -   """
13.07,359.266,0.0219835, NaN, NaN, NaN,0.04089605," ""- N/A -   """
13.1,360.4439,0.0220419, NaN, NaN, NaN,0.0384545," ""- N/A -   """
13.13,361.74,0.02209739, NaN, NaN, NaN,0.0347922," ""- N/A -   """
13.16,362.8,0.0221529, NaN, NaN, NaN,0.0323506," ""- N/A -   """
13.19,363.743,0.0222057, NaN, NaN, NaN,0.03112983," ""- N/A -   """
13.22,364.9213,0.0222584, NaN, NaN, NaN,0.0299091," ""- N/A -   """
13.25,365.7461,0.0223056, NaN, NaN, NaN,0.03112983," ""- N/A -   """
13.28,366.807,0.0223584, NaN, NaN, NaN,0.03112983," ""- N/A -   """
13.31,367.867,0.0224112, NaN, NaN, NaN,0.0286883," ""- N/A -   """
13.34,368.81,0.0224639, NaN, NaN, NaN,0.0274675," ""- N/A -   """
13.37,369.87,0.0225139, NaN, NaN, NaN,0.0274675," ""- N/A -   """
13.4,370.813,0.0225639, NaN, NaN, NaN,0.0274675," ""- N/A -   """
13.43,371.52,0.0226083, NaN, NaN, NaN,0.0299091," ""- N/A -   """
13.46,372.344,0.0226472, NaN, NaN, NaN,0.03601294," ""- N/A -   """
13.49,373.0513,0.02268884, NaN, NaN, NaN,0.0384545," ""- N/A -   """
13.52,373.8761,0.0227333, NaN, NaN, NaN,0.04089605," ""- N/A -   """
13.55,374.701,0.0227777, NaN, NaN, NaN,0.0445584," ""- N/A -   """
13.58,375.761,0.0228277, NaN, NaN, NaN,0.0433376," ""- N/A -   """
13.61,376.7039,0.0228749, NaN, NaN, NaN,0.0445584," ""- N/A -   """
13.64,377.764,0.02292764, NaN, NaN, NaN,0.0445584," ""- N/A -   """
13.67,378.8248,0.0229748, NaN, NaN, NaN,0.0445584," ""- N/A -   """
13.7,379.7674,0.02302205, NaN, NaN, NaN,0.04577916," ""- N/A -   """
13.73,380.828,0.0230748, NaN, NaN, NaN,0.0445584," ""- N/A -   """
13.76,381.888,0.0231303, NaN, NaN, NaN,0.04211683," ""- N/A -   """
13.79,383.0665,0.0231859, NaN, NaN, NaN,0.04089605," ""- N/A -   """
13.82,384.3626,0.02324419, NaN, NaN, NaN,0.0372337," ""- N/A -   """
13.85,385.541,0.0233025, NaN, NaN, NaN,0.0323506," ""- N/A -   """
13.88,386.719,0.023358, NaN, NaN, NaN,0.0299091," ""- N/A -   """
13.91,387.662,0.023408, NaN, NaN, NaN,0.0299091," ""- N/A -   """
13.94,388.604,0.023458, NaN, NaN, NaN,0.03112983," ""- N/A -   """
13.97,389.547,0.0235052, NaN, NaN, NaN,0.0323506," ""- N/A -   """
14,390.49,0.0235496, NaN, NaN, NaN,0.0335714," ""- N/A -   """
14.03,391.55,0.0235968, NaN, NaN, NaN,0.0347922," ""- N/A -   """
14.06,392.4926,0.0236468, NaN, NaN, NaN,0.0347922," ""- N/A -   """
14.09,393.553,0.0236968, NaN, NaN, NaN,0.0347922," ""- N/A -   """
14.12,394.496,0.023744, NaN, NaN, NaN,0.03601294," ""- N/A -   """
14.15,395.438,0.02379121, NaN, NaN, NaN,0.0372337," ""- N/A -   """
14.18,396.263,0.0238384, NaN, NaN, NaN,0.0384545," ""- N/A -   """
14.21,397.206,0.0238884, NaN, NaN, NaN,0.0396753," ""- N/A -   """
14.24,398.1483,0.0239328, NaN, NaN, NaN,0.04089605," ""- N/A -   """
14.27,398.973,0.0239773, NaN, NaN, NaN,0.0445584," ""- N/A -   """
14.3,399.916,0.0240245, NaN, NaN, NaN,0.0445584," ""- N/A -   """
14.33,400.858,0.0240717, NaN, NaN, NaN,0.04577916," ""- N/A -   """
14.36,401.9187,0.0241216, NaN, NaN, NaN,0.04577916," ""- N/A -   """
14.39,403.097,0.0241744, NaN, NaN, NaN,0.0445584," ""- N/A -   """
14.42,404.393,0.0242383, NaN, NaN, NaN,0.0396753," ""- N/A -   """
14.45,405.925,0.0243021, NaN, NaN, NaN,0.0323506," ""- N/A -   """
14.48,407.2209,0.024366, NaN, NaN, NaN,0.0262467," ""- N/A -   """
14.51,408.517,0.0244215, NaN, NaN, NaN,0.0238052," ""- N/A -   """
14.54,409.5774,0.0244771, NaN, NaN, NaN,0.0213636," ""- N/A -   """
14.57,410.284,0.0245187, NaN, NaN, NaN,0.0250259," ""- N/A -   """
14.6,411.109,0.0245576, NaN, NaN, NaN,0.0299091," ""- N/A -   """
14.63,411.934,0.0245965, NaN, NaN, NaN,0.0347922," ""- N/A -   """
14.66,412.523,0.02463812, NaN, NaN, NaN,0.0384545," ""- N/A -   """
14.69,413.5835,0.0246853, NaN, NaN, NaN,0.04089605," ""- N/A -   """
14.72,414.644,0.0247381, NaN, NaN, NaN,0.0384545," ""- N/A -   """
14.75,415.822,0.02479084, NaN, NaN, NaN,0.0372337," ""- N/A -   """
14.78,416.883,0.0248436, NaN, NaN, NaN,0.03601294," ""- N/A -   """
14.81,417.943,0.0248936, NaN, NaN, NaN,0.03601294," ""- N/A -   """
14.84,418.768,0.0249408, NaN, NaN, NaN,0.0372337," ""- N/A -   """
14.87,419.71,0.0249852, NaN, NaN, NaN,0.0396753," ""- N/A -   """
14.9,420.535,0.0250269, NaN, NaN, NaN,0.0433376," ""- N/A -   """
14.93,421.36,0.0250713, NaN, NaN, NaN,0.04577916," ""- N/A -   """
14.96,422.538,0.02512683, NaN, NaN, NaN,0.0433376," ""- N/A -   """
14.99,423.834,0.02518514, NaN, NaN, NaN,0.0396753," ""- N/A -   """
15.02,425.0126,0.02524345, NaN, NaN, NaN,0.03601294," ""- N/A -   """
15.05,425.955,0.0252934, NaN, NaN, NaN,0.03601294," ""- N/A -   """
15.08,427.2513,0.0253462, NaN, NaN, NaN,0.0347922," ""- N/A -   """
15.11,428.312,0.02539895, NaN, NaN, NaN,0.0335714," ""- N/A -   """
15.14,429.372,0.0254462, NaN, NaN, NaN,0.0347922," ""- N/A -   """
15.17,430.3148,0.0254961, NaN, NaN, NaN,0.03601294," ""- N/A -   """
15.2,431.2574,0.0255433, NaN, NaN, NaN,0.03601294," ""- N/A -   """
15.23,432.2,0.0255933, NaN, NaN, NaN,0.0372337," ""- N/A -   """
15.26,433.1426,0.02563775, NaN, NaN, NaN,0.0384545," ""- N/A -   """
15.29,434.4387,0.0256961, NaN, NaN, NaN,0.0347922," ""- N/A -   """
15.32,435.735,0.0257516, NaN, NaN, NaN,0.0323506," ""- N/A -   """
15.35,436.6774,0.02580158, NaN, NaN, NaN,0.0323506," ""- N/A -   """
15.38,437.738,0.025846, NaN, NaN, NaN,0.0347922," ""- N/A -   """
15.41,438.563,0.025896, NaN, NaN, NaN,0.0347922," ""- N/A -   """
15.44,439.623,0.025946, NaN, NaN, NaN,0.0347922," ""- N/A -   """
15.47,440.683,0.025996, NaN, NaN, NaN,0.0347922," ""- N/A -   """
15.5,441.7439,0.0260459, NaN, NaN, NaN,0.0347922," ""- N/A -   """
15.53,442.804,0.02609869, NaN, NaN, NaN,0.0335714," ""- N/A -   """
15.56,443.9826,0.0261487, NaN, NaN, NaN,0.0335714," ""- N/A -   """
15.59,444.925,0.0261959, NaN, NaN, NaN,0.0347922," ""- N/A -   """
15.62,445.75,0.0262403, NaN, NaN, NaN,0.0372337," ""- N/A -   """
15.65,446.6926,0.0262847, NaN, NaN, NaN,0.0396753," ""- N/A -   """
15.68,447.635,0.0263319, NaN, NaN, NaN,0.04089605," ""- N/A -   """
15.71,448.578,0.0263764, NaN, NaN, NaN,0.0433376," ""- N/A -   """
15.74,449.638,0.0264236, NaN, NaN, NaN,0.0445584," ""- N/A -   """
15.77,450.8165,0.0264791, NaN, NaN, NaN,0.0433376," ""- N/A -   """
15.8,451.877,0.0265291, NaN, NaN, NaN,0.04211683," ""- N/A -   """
15.83,452.9374,0.0265818, NaN, NaN, NaN,0.04089605," ""- N/A -   """
15.86,454.2335,0.0266402, NaN, NaN, NaN,0.0372337," ""- N/A -   """
15.89,455.53,0.02669847, NaN, NaN, NaN,0.0335714," ""- N/A -   """
15.92,456.59,0.0267512, NaN, NaN, NaN,0.0323506," ""- N/A -   """
15.95,457.768,0.026804, NaN, NaN, NaN,0.03112983," ""- N/A -   """
15.98,458.711,0.026854, NaN, NaN, NaN,0.0323506," ""- N/A -   """
15.99,459.064,0.0268679, NaN, NaN, NaN,0.0323506," ""- N/A -   """
16,459.3,0.0268845, NaN, NaN, NaN,0.0323506," ""- N/A -   """
16.01,459.653,0.0269012, NaN, NaN, NaN,0.0335714," ""- N/A -   """
16.03,460.2426,0.0269317, NaN, NaN, NaN,0.0335714," ""- N/A -   """
16.05,460.9496,0.026965, NaN, NaN, NaN,0.0347922," ""- N/A -   """
16.07,461.657,0.0270011, NaN, NaN, NaN,0.0335714," ""- N/A -   """
16.09,462.599,0.0270372, NaN, NaN, NaN,0.03112983," ""- N/A -   """
16.11,463.424,0.0270761, NaN, NaN, NaN,0.0286883," ""- N/A -   """
16.13,464.249,0.0271122, NaN, NaN, NaN,0.0274675," ""- N/A -   """
16.15,465.0735,0.0271483, NaN, NaN, NaN,0.0262467," ""- N/A -   """
16.17,465.663,0.0271816, NaN, NaN, NaN,0.0262467," ""- N/A -   """
16.19,466.37,0.0272122, NaN, NaN, NaN,0.0274675," ""- N/A -   """
16.21,466.9587,0.0272427, NaN, NaN, NaN,0.0286883," ""- N/A -   """
16.23,467.548,0.02727048, NaN, NaN, NaN,0.03112983," ""- N/A -   """
16.25,467.901,0.0272955, NaN, NaN, NaN,0.0347922," ""- N/A -   """
16.27,468.49,0.0273232, NaN, NaN, NaN,0.0372337," ""- N/A -   """
16.29,469.1974,0.027351, NaN, NaN, NaN,0.0396753," ""- N/A -   """
16.31,469.6687,0.02738155, NaN, NaN, NaN,0.04089605," ""- N/A -   """
16.33,470.258,0.0274121, NaN, NaN, NaN,0.04211683," ""- N/A -   """
16.35,471.0826,0.02744264, NaN, NaN, NaN,0.0433376," ""- N/A -   """
16.37,471.79,0.027476, NaN, NaN, NaN,0.0433376," ""- N/A -   """
16.39,472.3787,0.0275065, NaN, NaN, NaN,0.04577916," ""- N/A -   """
16.41,472.968,0.027537, NaN, NaN, NaN,0.04577916," ""- N/A -   """
16.43,473.91,0.0275731, NaN, NaN, NaN,0.0445584," ""- N/A -   """
16.45,474.6174,0.027612, NaN, NaN, NaN,0.0433376," ""- N/A -   """
16.47,475.56,0.0276509, NaN, NaN, NaN,0.0396753," ""- N/A -   """
16.49,476.3848,0.027687, NaN, NaN, NaN,0.0384545," ""- N/A -   """
16.51,477.3274,0.02772309, NaN, NaN, NaN,0.0372337," ""- N/A -   """
16.53,478.034,0.0277592, NaN, NaN, NaN,0.03601294," ""- N/A -   """
16.55,478.6235,0.0277925, NaN, NaN, NaN,0.03601294," ""- N/A -   """
16.57,479.33,0.02782861, NaN, NaN, NaN,0.0347922," ""- N/A -   """
16.59,480.1552,0.0278619, NaN, NaN, NaN,0.0347922," ""- N/A -   """
16.61,480.862,0.02789525, NaN, NaN, NaN,0.0347922," ""- N/A -   """
16.63,481.4513,0.02792857, NaN, NaN, NaN,0.03601294," ""- N/A -   """
16.65,482.2761,0.0279674, NaN, NaN, NaN,0.0335714," ""- N/A -   """
16.67,483.101,0.0280035, NaN, NaN, NaN,0.03112983," ""- N/A -   """
16.69,483.926,0.0280396, NaN, NaN, NaN,0.0299091," ""- N/A -   """
16.71,484.633,0.028073, NaN, NaN, NaN,0.03112983," ""- N/A -   """
16.73,485.4574,0.0281063, NaN, NaN, NaN,0.0299091," ""- N/A -   """
16.75,486.164,0.0281396, NaN, NaN, NaN,0.0299091," ""- N/A -   """
16.77,486.753,0.0281729, NaN, NaN, NaN,0.0299091," ""- N/A -   """
16.79,487.578,0.0282062, NaN, NaN, NaN,0.0299091," ""- N/A -   """
16.81,488.2852,0.0282396, NaN, NaN, NaN,0.0299091," ""- N/A -   """
16.83,488.874,0.02827289, NaN, NaN, NaN,0.0299091," ""- N/A -   """
16.85,489.463,0.0283007, NaN, NaN, NaN,0.0323506," ""- N/A -   """
16.87,490.0526,0.0283312, NaN, NaN, NaN,0.0335714," ""- N/A -   """
16.89,490.5239,0.0283534, NaN, NaN, NaN,0.0384545," ""- N/A -   """
16.91,491.113,0.028384, NaN, NaN, NaN,0.0396753," ""- N/A -   """
16.93,491.702,0.0284145, NaN, NaN, NaN,0.04211683," ""- N/A -   """
16.95,492.291,0.02844227, NaN, NaN, NaN,0.0433376," ""- N/A -   """
16.97,492.998,0.0284756, NaN, NaN, NaN,0.0433376," ""- N/A -   """
16.99,493.705,0.02850891, NaN, NaN, NaN,0.0433376," ""- N/A -   """
17.01,494.412,0.0285395, NaN, NaN, NaN,0.0445584," ""- N/A -   """
17.03,495.237,0.0285756, NaN, NaN, NaN,0.0433376," ""- N/A -   """
17.05,496.062,0.0286089, NaN, NaN, NaN,0.0433376," ""- N/A -   """
17.07,496.7687,0.0286422, NaN, NaN, NaN,0.0433376," ""- N/A -   """
17.09,497.358,0.0286755, NaN, NaN, NaN,0.0433376," ""- N/A -   """
[...]
22.21,691.6309,0.03723069, NaN, NaN, NaN,0.0347922," ""- N/A -   """
22.23,692.341,0.0372668, NaN, NaN, NaN,0.0347922," ""- N/A -   """
22.25,693.1686,0.03729733, NaN, NaN, NaN,0.0347922," ""- N/A -   """
22.27,693.8783,0.0373307, NaN, NaN, NaN,0.0347922," ""- N/A -   """
22.29,694.8246,0.037364, NaN, NaN, NaN,0.0347922," ""- N/A -   """
22.31,695.416,0.0373973, NaN, NaN, NaN,0.0347922," ""- N/A -   """
22.33,696.2439,0.0374306, NaN, NaN, NaN,0.0347922," ""- N/A -   """
22.35,697.072,0.0374667, NaN, NaN, NaN,0.0347922," ""- N/A -   """
22.37,697.782,0.0375, NaN, NaN, NaN,0.0335714," ""- N/A -   """
22.39,698.4913,0.03753058, NaN, NaN, NaN,0.0347922," ""- N/A -   """
22.41,699.3192,0.0375639, NaN, NaN, NaN,0.03601294," ""- N/A -   """
22.43,699.9106,0.0375917, NaN, NaN, NaN,0.0372337," ""- N/A -   """
22.45,700.6203,0.03762221, NaN, NaN, NaN,0.0384545," ""- N/A -   """
22.47,701.2117,0.03765, NaN, NaN, NaN,0.04089605," ""- N/A -   """
22.49,702.0397,0.0376833, NaN, NaN, NaN,0.04089605," ""- N/A -   """
22.51,702.7494,0.03771662, NaN, NaN, NaN,0.04211683," ""- N/A -   """
22.53,703.459,0.0377444, NaN, NaN, NaN,0.0433376," ""- N/A -   """
22.55,704.1687,0.03777771, NaN, NaN, NaN,0.0433376," ""- N/A -   """
22.57,704.997,0.0378083, NaN, NaN, NaN,0.0445584," ""- N/A -   """
22.59,705.825,0.0378444, NaN, NaN, NaN,0.0433376," ""- N/A -   """
22.61,706.6526,0.0378777, NaN, NaN, NaN,0.0433376," ""- N/A -   """
22.63,707.3623,0.037911, NaN, NaN, NaN,0.0433376," ""- N/A -   """
22.65,708.1903,0.0379471, NaN, NaN, NaN,0.04211683," ""- N/A -   """
22.67,709.2548,0.037986, NaN, NaN, NaN,0.0396753," ""- N/A -   """
22.69,710.201,0.0380276, NaN, NaN, NaN,0.03601294," ""- N/A -   """
22.71,711.384,0.038072, NaN, NaN, NaN,0.0323506," ""- N/A -   """
22.73,712.3301,0.03811092, NaN, NaN, NaN,0.0299091," ""- N/A -   """
22.75,712.921,0.0381415, NaN, NaN, NaN,0.0299091," ""- N/A -   """
22.77,713.6312,0.03817201, NaN, NaN, NaN,0.0323506," ""- N/A -   """
22.79,714.3409,0.03820533, NaN, NaN, NaN,0.0323506," ""- N/A -   """
22.81,715.051,0.03823865, NaN, NaN, NaN,0.0323506," ""- N/A -   """
22.83,715.76,0.0382692, NaN, NaN, NaN,0.0323506," ""- N/A -   """
22.85,716.4699,0.03829974, NaN, NaN, NaN,0.0335714," ""- N/A -   """
22.87,717.2979,0.03833306, NaN, NaN, NaN,0.0335714," ""- N/A -   """
22.89,718.2441,0.0383719, NaN, NaN, NaN,0.0323506," ""- N/A -   """
22.91,719.19,0.03841081, NaN, NaN, NaN,0.0299091," ""- N/A -   """
22.93,720.0183,0.0384497, NaN, NaN, NaN,0.0274675," ""- N/A -   """
22.95,720.728,0.038483, NaN, NaN, NaN,0.0262467," ""- N/A -   """
22.97,721.556,0.03851355, NaN, NaN, NaN,0.0274675," ""- N/A -   """
22.99,722.2657,0.0385413, NaN, NaN, NaN,0.0299091," ""- N/A -   """
23.01,722.857,0.0385719, NaN, NaN, NaN,0.0323506," ""- N/A -   """
23.03,723.567,0.03859685, NaN, NaN, NaN,0.0347922," ""- N/A -   """
23.05,724.2765,0.0386274, NaN, NaN, NaN,0.03601294," ""- N/A -   """
23.07,724.868,0.0386607, NaN, NaN, NaN,0.0372337," ""- N/A -   """
23.09,725.5775,0.03869126, NaN, NaN, NaN,0.0384545," ""- N/A -   """
23.11,726.2873,0.038719, NaN, NaN, NaN,0.0396753," ""- N/A -   """
23.13,726.7604,0.03874957, NaN, NaN, NaN,0.04211683," ""- N/A -   """
23.15,727.5883,0.03877734, NaN, NaN, NaN,0.0433376," ""- N/A -   """
23.17,728.1797,0.0388079, NaN, NaN, NaN,0.0445584," ""- N/A -   """
23.19,729.008,0.0388384, NaN, NaN, NaN,0.04577916," ""- N/A -   """
23.21,729.7174,0.03886897, NaN, NaN, NaN,0.04699994," ""- N/A -   """
23.23,730.427,0.0389023, NaN, NaN, NaN,0.04699994," ""- N/A -   """
23.25,731.373,0.0389384, NaN, NaN, NaN,0.04577916," ""- N/A -   """
23.27,732.083,0.03897171, NaN, NaN, NaN,0.04577916," ""- N/A -   """
23.29,733.1475,0.0390106, NaN, NaN, NaN,0.0433376," ""- N/A -   """
23.31,733.9755,0.0390495, NaN, NaN, NaN,0.04089605," ""- N/A -   """
23.33,734.922,0.0390883, NaN, NaN, NaN,0.0384545," ""- N/A -   """
23.35,735.868,0.03912443, NaN, NaN, NaN,0.0384545," ""- N/A -   """
23.37,736.8143,0.0391633, NaN, NaN, NaN,0.03601294," ""- N/A -   """
23.39,737.7605,0.0391994, NaN, NaN, NaN,0.0335714," ""- N/A -   """
23.41,738.352,0.0392355, NaN, NaN, NaN,0.0335714," ""- N/A -   """
23.43,739.1799,0.03926882, NaN, NaN, NaN,0.0335714," ""- N/A -   """
23.45,740.0078,0.0393021, NaN, NaN, NaN,0.0335714," ""- N/A -   """
23.47,740.836,0.0393327, NaN, NaN, NaN,0.0335714," ""- N/A -   """
23.49,741.782,0.03937156, NaN, NaN, NaN,0.0323506," ""- N/A -   """
23.51,742.61,0.03940766, NaN, NaN, NaN,0.03112983," ""- N/A -   """
23.53,743.4379,0.03944098, NaN, NaN, NaN,0.0299091," ""- N/A -   """
23.55,744.148,0.0394771, NaN, NaN, NaN,0.0299091," ""- N/A -   """
23.57,744.976,0.0395076, NaN, NaN, NaN,0.0299091," ""- N/A -   """
23.59,745.8036,0.03954372, NaN, NaN, NaN,0.0286883," ""- N/A -   """
23.61,746.513,0.039577, NaN, NaN, NaN,0.0286883," ""- N/A -   """
23.63,747.341,0.03960759, NaN, NaN, NaN,0.0299091," ""- N/A -   """
23.65,748.0509,0.0396409, NaN, NaN, NaN,0.03112983," ""- N/A -   """
23.67,748.761,0.03967145, NaN, NaN, NaN,0.03112983," ""- N/A -   """
23.69,749.4703,0.03969922, NaN, NaN, NaN,0.0335714," ""- N/A -   """
23.71,750.0617,0.039727, NaN, NaN, NaN,0.03601294," ""- N/A -   """
23.73,750.6531,0.0397575, NaN, NaN, NaN,0.0384545," ""- N/A -   """
23.75,751.2445,0.0397853, NaN, NaN, NaN,0.04089605," ""- N/A -   """
23.77,751.8359,0.0398103, NaN, NaN, NaN,0.0433376," ""- N/A -   """
23.79,752.5456,0.0398408, NaN, NaN, NaN,0.0445584," ""- N/A -   """
23.81,753.255,0.0398742, NaN, NaN, NaN,0.0445584," ""- N/A -   """
23.83,754.0832,0.0399075, NaN, NaN, NaN,0.04577916," ""- N/A -   """
23.85,755.0295,0.0399408, NaN, NaN, NaN,0.0445584," ""- N/A -   """
23.87,755.7392,0.0399741, NaN, NaN, NaN,0.0445584," ""- N/A -   """
23.89,756.567,0.0400102, NaN, NaN, NaN,0.0445584," ""- N/A -   """
23.91,757.395,0.0400435, NaN, NaN, NaN,0.0445584," ""- N/A -   """
23.93,758.1048,0.0400741, NaN, NaN, NaN,0.0445584," ""- N/A -   """
23.95,758.933,0.04011018, NaN, NaN, NaN,0.0433376," ""- N/A -   """
23.97,759.879,0.0401463, NaN, NaN, NaN,0.04211683," ""- N/A -   """
23.99,760.707,0.0401852, NaN, NaN, NaN,0.04089605," ""- N/A -   """
24.01,761.6532,0.0402185, NaN, NaN, NaN,0.0396753," ""- N/A -   """
24.03,762.363,0.04025457, NaN, NaN, NaN,0.0384545," ""- N/A -   """
24.05,763.4274,0.04029622, NaN, NaN, NaN,0.03601294," ""- N/A -   """
24.07,764.374,0.0403351, NaN, NaN, NaN,0.0323506," ""- N/A -   """
24.09,765.438,0.04037397, NaN, NaN, NaN,0.0299091," ""- N/A -   """
24.11,766.384,0.0404128, NaN, NaN, NaN,0.0274675," ""- N/A -   """
24.13,767.0941,0.0404462, NaN, NaN, NaN,0.0274675," ""- N/A -   """
24.15,767.9221,0.0404823, NaN, NaN, NaN,0.0274675," ""- N/A -   """
24.17,768.75,0.0405156, NaN, NaN, NaN,0.0262467," ""- N/A -   """
24.19,769.578,0.04055168, NaN, NaN, NaN,0.0262467," ""- N/A -   """
24.21,770.288,0.04057945, NaN, NaN, NaN,0.0274675," ""- N/A -   """
24.23,770.997,0.04061277, NaN, NaN, NaN,0.0274675," ""- N/A -   """
24.25,771.7071,0.04064054, NaN, NaN, NaN,0.0299091," ""- N/A -   """
24.27,772.417,0.04067386, NaN, NaN, NaN,0.03112983," ""- N/A -   """
24.29,773.126,0.0407016, NaN, NaN, NaN,0.0323506," ""- N/A -   """
24.31,773.9544,0.04073495, NaN, NaN, NaN,0.0323506," ""- N/A -   """
24.33,774.782,0.04077105, NaN, NaN, NaN,0.0323506," ""- N/A -   """
24.35,775.3738,0.0408016, NaN, NaN, NaN,0.0323506," ""- N/A -   """
24.37,776.2018,0.0408321, NaN, NaN, NaN,0.0347922," ""- N/A -   """
24.39,776.911,0.0408627, NaN, NaN, NaN,0.0347922," ""- N/A -   """
24.41,777.6211,0.040896, NaN, NaN, NaN,0.03601294," ""- N/A -   """
24.43,778.4491,0.0409265, NaN, NaN, NaN,0.03601294," ""- N/A -   """
24.45,779.0405,0.04095709, NaN, NaN, NaN,0.0384545," ""- N/A -   """
24.47,779.6319,0.0409849, NaN, NaN, NaN,0.0396753," ""- N/A -   """
24.49,780.46,0.0410154, NaN, NaN, NaN,0.04089605," ""- N/A -   """
24.51,781.17,0.04104872, NaN, NaN, NaN,0.04211683," ""- N/A -   """
24.53,781.761,0.0410765, NaN, NaN, NaN,0.0433376," ""- N/A -   """
24.55,782.5889,0.0411098, NaN, NaN, NaN,0.0433376," ""- N/A -   """
24.57,783.4169,0.0411404, NaN, NaN, NaN,0.0445584," ""- N/A -   """
24.59,784.1266,0.0411737, NaN, NaN, NaN,0.04577916," ""- N/A -   """
24.61,784.9545,0.041207, NaN, NaN, NaN,0.04577916," ""- N/A -   """
24.63,785.7825,0.0412403, NaN, NaN, NaN,0.04577916," ""- N/A -   """
24.65,786.729,0.0412792, NaN, NaN, NaN,0.04211683," ""- N/A -   """
24.67,787.7933,0.0413208, NaN, NaN, NaN,0.0384545," ""- N/A -   """
24.69,788.74,0.0413597, NaN, NaN, NaN,0.03601294," ""- N/A -   """
24.71,789.5675,0.0413958, NaN, NaN, NaN,0.0347922," ""- N/A -   """
24.73,790.514,0.04143469, NaN, NaN, NaN,0.0323506," ""- N/A -   """
24.75,791.46,0.0414736, NaN, NaN, NaN,0.0299091," ""- N/A -   """
24.77,792.288,0.0415069, NaN, NaN, NaN,0.03112983," ""- N/A -   """
24.79,792.9976,0.0415374, NaN, NaN, NaN,0.03112983," ""- N/A -   """
24.81,793.589,0.041568, NaN, NaN, NaN,0.0323506," ""- N/A -   """
24.83,794.417,0.0415985, NaN, NaN, NaN,0.0335714," ""- N/A -   """
24.85,795.1267,0.04163184, NaN, NaN, NaN,0.0335714," ""- N/A -   """
24.87,795.836,0.04166238, NaN, NaN, NaN,0.0347922," ""- N/A -   """
24.89,796.5461,0.0416929, NaN, NaN, NaN,0.03601294," ""- N/A -   """
24.91,797.256,0.04172625, NaN, NaN, NaN,0.03601294," ""- N/A -   """
24.93,798.202,0.04176235, NaN, NaN, NaN,0.03601294," ""- N/A -   """
24.95,799.148,0.0417984, NaN, NaN, NaN,0.0335714," ""- N/A -   """
24.97,799.8579,0.0418318, NaN, NaN, NaN,0.0335714," ""- N/A -   """
24.99,800.804,0.0418679, NaN, NaN, NaN,0.0323506," ""- N/A -   """
25.01,801.5138,0.04190396, NaN, NaN, NaN,0.03112983," ""- N/A -   """
25.03,802.342,0.04193728, NaN, NaN, NaN,0.0323506," ""- N/A -   """
25.05,803.0515,0.04196505, NaN, NaN, NaN,0.0335714," ""- N/A -   """
25.07,803.761,0.0419984, NaN, NaN, NaN,0.0335714," ""- N/A -   """
25.09,804.4709,0.0420317, NaN, NaN, NaN,0.0347922," ""- N/A -   """
25.11,805.181,0.04205946, NaN, NaN, NaN,0.0372337," ""- N/A -   """
25.13,805.772,0.04208445, NaN, NaN, NaN,0.0396753," ""- N/A -   """
25.15,806.4816,0.042115, NaN, NaN, NaN,0.04089605," ""- N/A -   """
25.17,807.4279,0.0421483, NaN, NaN, NaN,0.04089605," ""- N/A -   """
25.19,808.0193,0.0421844, NaN, NaN, NaN,0.04089605," ""- N/A -   """
25.21,808.9655,0.04222051, NaN, NaN, NaN,0.0396753," ""- N/A -   """
25.23,809.7935,0.04225383, NaN, NaN, NaN,0.0396753," ""- N/A -   """
25.25,810.385,0.0422844, NaN, NaN, NaN,0.0396753," ""- N/A -   """
25.27,811.2129,0.04231492, NaN, NaN, NaN,0.04089605," ""- N/A -   """
25.29,812.041,0.04235102, NaN, NaN, NaN,0.04089605," ""- N/A -   """
25.31,812.9871,0.04238434, NaN, NaN, NaN,0.0396753," ""- N/A -   """
25.33,813.815,0.0424204, NaN, NaN, NaN,0.0384545," ""- N/A -   """
25.35,814.88,0.0424565, NaN, NaN, NaN,0.0372337," ""- N/A -   """
25.37,815.5893,0.04249263, NaN, NaN, NaN,0.03601294," ""- N/A -   """
25.39,816.417,0.042526, NaN, NaN, NaN,0.03601294," ""- N/A -   """
25.41,817.1269,0.0425593, NaN, NaN, NaN,0.0372337," ""- N/A -   """
25.43,817.8366,0.0425926, NaN, NaN, NaN,0.0372337," ""- N/A -   """
25.45,818.783,0.0426259, NaN, NaN, NaN,0.03601294," ""- N/A -   """
25.47,819.4925,0.042662, NaN, NaN, NaN,0.0347922," ""- N/A -   """
25.49,820.321,0.0426926, NaN, NaN, NaN,0.03601294," ""- N/A -   """
25.51,821.1485,0.0427287, NaN, NaN, NaN,0.0347922," ""- N/A -   """
25.53,821.858,0.042762, NaN, NaN, NaN,0.0347922," ""- N/A -   """
25.55,822.9227,0.04280085, NaN, NaN, NaN,0.0323506," ""- N/A -   """
25.57,823.869,0.04283695, NaN, NaN, NaN,0.03112983," ""- N/A -   """
25.59,824.6969,0.042873, NaN, NaN, NaN,0.03112983," ""- N/A -   """
25.61,825.4066,0.0429064, NaN, NaN, NaN,0.0299091," ""- N/A -   """
25.63,826.235,0.0429369, NaN, NaN, NaN,0.03112983," ""- N/A -   """
25.65,826.9442,0.0429702, NaN, NaN, NaN,0.03112983," ""- N/A -   """
25.67,827.7722,0.0430036, NaN, NaN, NaN,0.03112983," ""- N/A -   """
25.69,828.718,0.0430397, NaN, NaN, NaN,0.0299091," ""- N/A -   """
25.71,829.4281,0.043073, NaN, NaN, NaN,0.0299091," ""- N/A -   """
25.73,830.1378,0.0431063, NaN, NaN, NaN,0.0299091," ""- N/A -   """
25.75,830.9658,0.0431368, NaN, NaN, NaN,0.03112983," ""- N/A -   """
25.77,831.6755,0.04317016, NaN, NaN, NaN,0.03112983," ""- N/A -   """
25.79,832.5034,0.0432007, NaN, NaN, NaN,0.0323506," ""- N/A -   """
25.81,833.095,0.04322847, NaN, NaN, NaN,0.0347922," ""- N/A -   """
25.83,833.805,0.043259, NaN, NaN, NaN,0.03601294," ""- N/A -   """
25.85,834.5142,0.04328956, NaN, NaN, NaN,0.0384545," ""- N/A -   """
25.87,835.2239,0.0433201, NaN, NaN, NaN,0.0384545," ""- N/A -   """
25.89,836.0519,0.0433506, NaN, NaN, NaN,0.0396753," ""- N/A -   """
25.91,836.643,0.04338397, NaN, NaN, NaN,0.04089605," ""- N/A -   """
25.93,837.4712,0.0434145, NaN, NaN, NaN,0.04089605," ""- N/A -   """
25.95,838.1809,0.04344506, NaN, NaN, NaN,0.0433376," ""- N/A -   """
25.97,838.8906,0.0434756, NaN, NaN, NaN,0.0433376," ""- N/A -   """
25.99,839.6003,0.04350615, NaN, NaN, NaN,0.0445584," ""- N/A -   """
26.01,840.4282,0.04353947, NaN, NaN, NaN,0.0445584," ""- N/A -   """
26.03,841.2562,0.0435728, NaN, NaN, NaN,0.0445584," ""- N/A -   """
26.05,842.084,0.0436089, NaN, NaN, NaN,0.0445584," ""- N/A -   """
26.07,843.0304,0.043645, NaN, NaN, NaN,0.04211683," ""- N/A -   """
26.09,843.9767,0.04368386, NaN, NaN, NaN,0.0396753," ""- N/A -   """
26.11,845.0412,0.04372273, NaN, NaN, NaN,0.0372337," ""- N/A -   """
26.13,845.869,0.0437616, NaN, NaN, NaN,0.03601294," ""- N/A -   """
26.15,846.8154,0.0437949, NaN, NaN, NaN,0.0347922," ""- N/A -   """
26.17,847.6434,0.043831, NaN, NaN, NaN,0.0347922," ""- N/A -   """
26.19,848.4713,0.0438671, NaN, NaN, NaN,0.0347922," ""- N/A -   """
26.21,849.181,0.04389767, NaN, NaN, NaN,0.0347922," ""- N/A -   """
26.23,850.009,0.04393099, NaN, NaN, NaN,0.0347922," ""- N/A -   """
26.25,850.9552,0.04396431, NaN, NaN, NaN,0.0347922," ""- N/A -   """
26.27,851.5467,0.0439949, NaN, NaN, NaN,0.03601294," ""- N/A -   """
26.29,852.375,0.044031, NaN, NaN, NaN,0.03601294," ""- N/A -   """
26.31,853.2026,0.0440643, NaN, NaN, NaN,0.0347922," ""- N/A -   """
26.33,854.149,0.04410315, NaN, NaN, NaN,0.0323506," ""- N/A -   """
26.35,855.0951,0.044142, NaN, NaN, NaN,0.0299091," ""- N/A -   """
26.37,855.923,0.04417812, NaN, NaN, NaN,0.0299091," ""- N/A -   """
26.39,856.751,0.04421144, NaN, NaN, NaN,0.0286883," ""- N/A -   """
26.41,857.4607,0.044242, NaN, NaN, NaN,0.0299091," ""- N/A -   """
26.43,858.17,0.04427253, NaN, NaN, NaN,0.0323506," ""- N/A -   """
26.45,858.7618,0.0443031, NaN, NaN, NaN,0.0335714," ""- N/A -   """
26.47,859.5898,0.0443336, NaN, NaN, NaN,0.0335714," ""- N/A -   """
26.49,860.299,0.04436416, NaN, NaN, NaN,0.0347922," ""- N/A -   """
26.51,861.0091,0.04439193, NaN, NaN, NaN,0.0372337," ""- N/A -   """
26.53,861.482,0.0444197, NaN, NaN, NaN,0.0396753," ""- N/A -   """
26.55,862.31,0.0444502, NaN, NaN, NaN,0.04089605," ""- N/A -   """
26.57,862.9016,0.04447801, NaN, NaN, NaN,0.0433376," ""- N/A -   """
26.59,863.611,0.0445086, NaN, NaN, NaN,0.0445584," ""- N/A -   """
26.61,864.2027,0.0445391, NaN, NaN, NaN,0.04577916," ""- N/A -   """
26.63,865.149,0.04456964, NaN, NaN, NaN,0.04699994," ""- N/A -   """
26.65,865.9769,0.04460574, NaN, NaN, NaN,0.04577916," ""- N/A -   """
26.67,866.9232,0.0446391, NaN, NaN, NaN,0.04577916," ""- N/A -   """
26.69,867.751,0.04467516, NaN, NaN, NaN,0.0445584," ""- N/A -   """
26.71,868.6974,0.044714, NaN, NaN, NaN,0.04211683," ""- N/A -   """
26.73,869.6437,0.04475013, NaN, NaN, NaN,0.04089605," ""- N/A -   """
26.75,870.4716,0.04478623, NaN, NaN, NaN,0.0396753," ""- N/A -   """
26.77,871.4178,0.0448196, NaN, NaN, NaN,0.0396753," ""- N/A -   """
26.79,872.128,0.04485565, NaN, NaN, NaN,0.0384545," ""- N/A -   """
26.81,873.0738,0.04489175, NaN, NaN, NaN,0.0372337," ""- N/A -   """
26.83,874.02,0.04493062, NaN, NaN, NaN,0.03601294," ""- N/A -   """
26.85,874.848,0.04496394, NaN, NaN, NaN,0.0347922," ""- N/A -   """
26.87,875.676,0.04500004, NaN, NaN, NaN,0.0335714," ""- N/A -   """
26.89,876.6222,0.0450361, NaN, NaN, NaN,0.0323506," ""- N/A -   """
26.91,877.5685,0.0450722, NaN, NaN, NaN,0.03112983," ""- N/A -   """
26.93,878.3964,0.04511111, NaN, NaN, NaN,0.0286883," ""- N/A -   """
26.95,879.343,0.0451472, NaN, NaN, NaN,0.0286883," ""- N/A -   """
26.97,880.171,0.0451778, NaN, NaN, NaN,0.0286883," ""- N/A -   """
26.99,880.8803,0.0452111, NaN, NaN, NaN,0.0286883," ""- N/A -   """
27.01,881.827,0.04524717, NaN, NaN, NaN,0.0286883," ""- N/A -   """
27.03,882.536,0.0452777, NaN, NaN, NaN,0.0286883," ""- N/A -   """
27.05,883.2459,0.045311, NaN, NaN, NaN,0.0299091," ""- N/A -   """
27.07,883.9556,0.0453416, NaN, NaN, NaN,0.0299091," ""- N/A -   """
27.09,884.6653,0.0453721, NaN, NaN, NaN,0.03112983," ""- N/A -   """
27.11,885.4933,0.04540267, NaN, NaN, NaN,0.0323506," ""- N/A -   """
27.13,886.085,0.0454304, NaN, NaN, NaN,0.0347922," ""- N/A -   """
27.15,886.676,0.0454554, NaN, NaN, NaN,0.0384545," ""- N/A -   """
27.17,887.1492,0.04548042, NaN, NaN, NaN,0.04211683," ""- N/A -   """
27.19,887.8589,0.0455082, NaN, NaN, NaN,0.0445584," ""- N/A -   """
27.21,888.569,0.0455387, NaN, NaN, NaN,0.04577916," ""- N/A -   """
27.23,889.3965,0.045572, NaN, NaN, NaN,0.04577916," ""- N/A -   """
27.25,890.3427,0.0456054, NaN, NaN, NaN,0.04577916," ""- N/A -   """
27.27,891.1707,0.0456415, NaN, NaN, NaN,0.0445584," ""- N/A -   """
27.29,892.117,0.0456776, NaN, NaN, NaN,0.0445584," ""- N/A -   """
27.31,892.827,0.0457109, NaN, NaN, NaN,0.0445584," ""- N/A -   """
27.33,893.655,0.04574421, NaN, NaN, NaN,0.0433376," ""- N/A -   """
27.35,894.4826,0.04577753, NaN, NaN, NaN,0.0433376," ""- N/A -   """
27.37,895.311,0.0458109, NaN, NaN, NaN,0.0433376," ""- N/A -   """
27.39,896.02,0.04584417, NaN, NaN, NaN,0.0445584," ""- N/A -   """
27.41,896.8482,0.04588027, NaN, NaN, NaN,0.0433376," ""- N/A -   """
27.43,897.794,0.04591359, NaN, NaN, NaN,0.04211683," ""- N/A -   """
27.45,898.7407,0.0459525, NaN, NaN, NaN,0.04089605," ""- N/A -   """
27.47,899.805,0.04599134, NaN, NaN, NaN,0.0372337," ""- N/A -   """
27.49,900.8698,0.046033, NaN, NaN, NaN,0.0335714," ""- N/A -   """
27.51,901.816,0.0460719, NaN, NaN, NaN,0.03112983," ""- N/A -   """
27.53,902.644,0.046108, NaN, NaN, NaN,0.03112983," ""- N/A -   """
27.55,903.472,0.04613851, NaN, NaN, NaN,0.03112983," ""- N/A -   """
27.57,904.182,0.0461691, NaN, NaN, NaN,0.0323506," ""- N/A -   """
27.59,905.0096,0.04620515, NaN, NaN, NaN,0.03112983," ""- N/A -   """
27.61,905.8375,0.04623847, NaN, NaN, NaN,0.03112983," ""- N/A -   """
27.63,906.6655,0.04627179, NaN, NaN, NaN,0.03112983," ""- N/A -   """
27.65,907.3752,0.0463023, NaN, NaN, NaN,0.0323506," ""- N/A -   """
27.67,908.0849,0.0463357, NaN, NaN, NaN,0.0323506," ""- N/A -   """
27.69,908.9129,0.0463662, NaN, NaN, NaN,0.0347922," ""- N/A -   """
27.71,909.623,0.0463967, NaN, NaN, NaN,0.03601294," ""- N/A -   """
27.73,910.3322,0.0464273, NaN, NaN, NaN,0.03601294," ""- N/A -   """
27.75,911.16,0.0464578, NaN, NaN, NaN,0.0372337," ""- N/A -   """
27.77,911.8699,0.04648838, NaN, NaN, NaN,0.0384545," ""- N/A -   """
27.79,912.6978,0.0465217, NaN, NaN, NaN,0.0396753," ""- N/A -   """
27.81,913.408,0.04655502, NaN, NaN, NaN,0.0384545," ""- N/A -   """
27.83,914.3538,0.0465911, NaN, NaN, NaN,0.0384545," ""- N/A -   """
27.85,915.0635,0.04662166, NaN, NaN, NaN,0.0384545," ""- N/A -   """
27.87,915.773,0.04665221, NaN, NaN, NaN,0.0396753," ""- N/A -   """
27.89,916.601,0.0466828, NaN, NaN, NaN,0.04089605," ""- N/A -   """
27.91,917.4291,0.04671607, NaN, NaN, NaN,0.04089605," ""- N/A -   """
27.93,918.02,0.0467438, NaN, NaN, NaN,0.0433376," ""- N/A -   """
27.95,918.9667,0.0467799, NaN, NaN, NaN,0.0433376," ""- N/A -   """
27.97,920.031,0.046816, NaN, NaN, NaN,0.04089605," ""- N/A -   """
27.99,920.7409,0.04685213, NaN, NaN, NaN,0.04089605," ""- N/A -   """
28.01,921.569,0.0468855, NaN, NaN, NaN,0.0396753," ""- N/A -   """
28.03,922.515,0.0469243, NaN, NaN, NaN,0.0384545," ""- N/A -   """
28.038,922.87,0.0469382, NaN, NaN, NaN,0.0372337," ""- N/A -   """