File: 2_Tensile_Data/Hamel_ForceTest_Bolt7_Test1.csv
Time, Load (lb), Position (in), AxialStrain (in), TransverseStrain (in), Auxiliary (), Control Out (V), Stress (psi)
0.0,1.06153,0.0, NaN, NaN, NaN,0.09705182," ""- N/A -   """
0.00999999,1.29742,2.77675e-05, NaN, NaN, NaN,0.09338949," ""- N/A -   """
0.04,1.88716,9.99631e-05, NaN, NaN, NaN,0.08240249," ""- N/A -   """
0.07,2.35895,0.000172159, NaN, NaN, NaN,0.07263627," ""- N/A -   """
0.1,2.83074,0.0002360239, NaN, NaN, NaN,0.06775316," ""- N/A -   """
0.13,3.42048,0.000297112, NaN, NaN, NaN,0.06287005," ""- N/A -   """
0.16,4.010214,0.0003637545, NaN, NaN, NaN,0.0555454," ""- N/A -   """
0.19,4.59995,0.000430397, NaN, NaN, NaN,0.0482207," ""- N/A -   """
0.22,5.307636,0.0004970386, NaN, NaN, NaN,0.04089605," ""- N/A -   """
0.25,6.01532,0.0005581271, NaN, NaN, NaN,0.0347922," ""- N/A -   """
0.28,6.487111,0.0006108854, NaN, NaN, NaN,0.0335714," ""- N/A -   """
0.31,7.1948,0.00066642, NaN, NaN, NaN,0.03112983," ""- N/A -   """
0.34,7.784533,0.000716402, NaN, NaN, NaN,0.03112983," ""- N/A -   """
0.37,8.256323,0.0007663835, NaN, NaN, NaN,0.0323506," ""- N/A -   """
0.4,8.964007,0.0008080348, NaN, NaN, NaN,0.0347922," ""- N/A -   """
0.43,9.553744,0.0008552396, NaN, NaN, NaN,0.03601294," ""- N/A -   """
0.46,10.1435,0.0009052211, NaN, NaN, NaN,0.03601294," ""- N/A -   """
0.49,10.8512,0.0009524259, NaN, NaN, NaN,0.0372337," ""- N/A -   """
0.52,11.4409,0.00100241, NaN, NaN, NaN,0.0372337," ""- N/A -   """
0.55,12.0306,0.00105239, NaN, NaN, NaN,0.0372337," ""- N/A -   """
0.58,12.6204,0.00109959, NaN, NaN, NaN,0.0396753," ""- N/A -   """
0.61,13.2101,0.00114402, NaN, NaN, NaN,0.04089605," ""- N/A -   """
0.64,13.7999,0.00118845, NaN, NaN, NaN,0.0433376," ""- N/A -   """
0.67,14.3896,0.00123843, NaN, NaN, NaN,0.0433376," ""- N/A -   """
0.7,15.0973,0.00128564, NaN, NaN, NaN,0.0445584," ""- N/A -   """
0.73,15.687,0.00133562, NaN, NaN, NaN,0.0445584," ""- N/A -   """
0.76,16.5126,0.00139393, NaN, NaN, NaN,0.04089605," ""- N/A -   """
0.79,17.3383,0.00145224, NaN, NaN, NaN,0.0372337," ""- N/A -   """
0.82,18.16391,0.001510553, NaN, NaN, NaN,0.0347922," ""- N/A -   """
0.85,18.7536,0.00156053, NaN, NaN, NaN,0.0335714," ""- N/A -   """
0.88,19.4613,0.00161329, NaN, NaN, NaN,0.0323506," ""- N/A -   """
0.91,20.169,0.00166327, NaN, NaN, NaN,0.0323506," ""- N/A -   """
0.94,20.8767,0.00171048, NaN, NaN, NaN,0.0335714," ""- N/A -   """
0.97,21.46644,0.00176046, NaN, NaN, NaN,0.0347922," ""- N/A -   """
1,22.1741,0.00181044, NaN, NaN, NaN,0.0347922," ""- N/A -   """
1.03,22.9998,0.00186042, NaN, NaN, NaN,0.0335714," ""- N/A -   """
1.06,23.7074,0.00191041, NaN, NaN, NaN,0.0335714," ""- N/A -   """
1.09,24.4151,0.00196039, NaN, NaN, NaN,0.0335714," ""- N/A -   """
1.12,25.1228,0.002013145, NaN, NaN, NaN,0.0323506," ""- N/A -   """
1.15,25.9484,0.00206313, NaN, NaN, NaN,0.0323506," ""- N/A -   """
1.18,26.6561,0.00211033, NaN, NaN, NaN,0.0335714," ""- N/A -   """
1.21,27.2459,0.002157536, NaN, NaN, NaN,0.0347922," ""- N/A -   """
1.24,27.8356,0.00219919, NaN, NaN, NaN,0.0384545," ""- N/A -   """
1.27,28.54329,0.00224362, NaN, NaN, NaN,0.04089605," ""- N/A -   """
1.3,29.251,0.00229082, NaN, NaN, NaN,0.04211683," ""- N/A -   """
1.33,29.9587,0.00234358, NaN, NaN, NaN,0.04211683," ""- N/A -   """
1.36,31.0202,0.002396337, NaN, NaN, NaN,0.04089605," ""- N/A -   """
1.39,31.72787,0.00244632, NaN, NaN, NaN,0.0396753," ""- N/A -   """
1.42,32.4356,0.0024963, NaN, NaN, NaN,0.0396753," ""- N/A -   """
1.45,33.3791,0.002549058, NaN, NaN, NaN,0.0384545," ""- N/A -   """
1.48,34.2048,0.00260182, NaN, NaN, NaN,0.0384545," ""- N/A -   """
1.51,35.0304,0.00265457, NaN, NaN, NaN,0.0372337," ""- N/A -   """
1.54,35.85603,0.00270178, NaN, NaN, NaN,0.0372337," ""- N/A -   """
1.57,36.6817,0.002751761, NaN, NaN, NaN,0.0372337," ""- N/A -   """
1.6,37.5073,0.00280452, NaN, NaN, NaN,0.03601294," ""- N/A -   """
1.63,38.3329,0.002854501, NaN, NaN, NaN,0.03601294," ""- N/A -   """
1.66,39.3945,0.00291281, NaN, NaN, NaN,0.0335714," ""- N/A -   """
1.69,40.33803,0.002965571, NaN, NaN, NaN,0.03112983," ""- N/A -   """
1.72,41.04572,0.003012776, NaN, NaN, NaN,0.0323506," ""- N/A -   """
1.75,41.8714,0.00305998, NaN, NaN, NaN,0.0347922," ""- N/A -   """
1.78,42.697,0.00310719, NaN, NaN, NaN,0.0347922," ""- N/A -   """
1.81,43.6406,0.00315439, NaN, NaN, NaN,0.03601294," ""- N/A -   """
1.84,44.4662,0.00320715, NaN, NaN, NaN,0.0347922," ""- N/A -   """
1.87,45.29183,0.00325713, NaN, NaN, NaN,0.0347922," ""- N/A -   """
1.9,46.11746,0.00330711, NaN, NaN, NaN,0.0347922," ""- N/A -   """
1.93,46.9431,0.003354316, NaN, NaN, NaN,0.03601294," ""- N/A -   """
1.96,47.8867,0.00340152, NaN, NaN, NaN,0.0372337," ""- N/A -   """
1.99,48.7123,0.0034515, NaN, NaN, NaN,0.0384545," ""- N/A -   """
2.02,49.5379,0.00349871, NaN, NaN, NaN,0.0384545," ""- N/A -   """
2.05,50.4815,0.00354869, NaN, NaN, NaN,0.0396753," ""- N/A -   """
2.08,51.1892,0.00359034, NaN, NaN, NaN,0.04211683," ""- N/A -   """
2.11,52.1328,0.00363477, NaN, NaN, NaN,0.0445584," ""- N/A -   """
2.14,53.0764,0.0036903, NaN, NaN, NaN,0.04211683," ""- N/A -   """
2.17,54.13789,0.00374306, NaN, NaN, NaN,0.04089605," ""- N/A -   """
2.2,55.3174,0.0037986, NaN, NaN, NaN,0.0384545," ""- N/A -   """
2.23,56.4968,0.00385691, NaN, NaN, NaN,0.0347922," ""- N/A -   """
2.26,57.44042,0.00390967, NaN, NaN, NaN,0.0335714," ""- N/A -   """
2.29,58.384,0.003962425, NaN, NaN, NaN,0.0335714," ""- N/A -   """
2.32,59.2096,0.004006853, NaN, NaN, NaN,0.0347922," ""- N/A -   """
2.35,60.27116,0.00405961, NaN, NaN, NaN,0.0335714," ""- N/A -   """
2.38,61.2147,0.00410959, NaN, NaN, NaN,0.0335714," ""- N/A -   """
2.41,62.3942,0.004162351, NaN, NaN, NaN,0.0335714," ""- N/A -   """
2.44,63.2198,0.00421233, NaN, NaN, NaN,0.0323506," ""- N/A -   """
2.47,64.28137,0.004265091, NaN, NaN, NaN,0.03112983," ""- N/A -   """
2.5,65.4608,0.00432063, NaN, NaN, NaN,0.0299091," ""- N/A -   """
2.53,66.2865,0.00436783, NaN, NaN, NaN,0.03112983," ""- N/A -   """
2.56,67.34801,0.00441504, NaN, NaN, NaN,0.03112983," ""- N/A -   """
2.59,68.29159,0.00445946, NaN, NaN, NaN,0.0335714," ""- N/A -   """
2.62,69.11722,0.00450389, NaN, NaN, NaN,0.03601294," ""- N/A -   """
2.65,69.94285,0.00454832, NaN, NaN, NaN,0.0384545," ""- N/A -   """
2.68,70.88643,0.004595524, NaN, NaN, NaN,0.0396753," ""- N/A -   """
2.71,71.94796,0.004642729, NaN, NaN, NaN,0.04089605," ""- N/A -   """
2.74,72.65564,0.004687157, NaN, NaN, NaN,0.0433376," ""- N/A -   """
2.77,73.83511,0.00473159, NaN, NaN, NaN,0.04577916," ""- N/A -   """
2.8,74.8966,0.00478434, NaN, NaN, NaN,0.04577916," ""- N/A -   """
2.83,76.07612,0.004839878, NaN, NaN, NaN,0.04211683," ""- N/A -   """
2.86,77.25559,0.00489819, NaN, NaN, NaN,0.0396753," ""- N/A -   """
2.89,78.31712,0.00495095, NaN, NaN, NaN,0.0372337," ""- N/A -   """
2.92,79.4966,0.005003707, NaN, NaN, NaN,0.03601294," ""- N/A -   """
2.95,80.55813,0.005056465, NaN, NaN, NaN,0.03601294," ""- N/A -   """
2.98,81.61965,0.00510645, NaN, NaN, NaN,0.0347922," ""- N/A -   """
3.01,82.79912,0.00515921, NaN, NaN, NaN,0.0335714," ""- N/A -   """
3.04,84.09654,0.00521752, NaN, NaN, NaN,0.0299091," ""- N/A -   """
3.07,85.15807,0.00527028, NaN, NaN, NaN,0.0286883," ""- N/A -   """
3.1,86.2196,0.00532303, NaN, NaN, NaN,0.0286883," ""- N/A -   """
3.13,87.28113,0.00537024, NaN, NaN, NaN,0.0286883," ""- N/A -   """
3.16,88.34265,0.00542022, NaN, NaN, NaN,0.0286883," ""- N/A -   """
3.19,89.28623,0.00546465, NaN, NaN, NaN,0.03112983," ""- N/A -   """
3.22,90.22981,0.00550908, NaN, NaN, NaN,0.0335714," ""- N/A -   """
3.25,91.2913,0.00555628, NaN, NaN, NaN,0.0347922," ""- N/A -   """
3.28,92.117,0.00560071, NaN, NaN, NaN,0.0372337," ""- N/A -   """
3.31,93.0606,0.00564236, NaN, NaN, NaN,0.04089605," ""- N/A -   """
3.34,94.0041,0.005686788, NaN, NaN, NaN,0.0433376," ""- N/A -   """
3.37,95.06567,0.00573399, NaN, NaN, NaN,0.0445584," ""- N/A -   """
3.4,96.12719,0.00578397, NaN, NaN, NaN,0.0445584," ""- N/A -   """
3.43,97.30666,0.00583673, NaN, NaN, NaN,0.0433376," ""- N/A -   """
3.46,98.4861,0.005886714, NaN, NaN, NaN,0.0433376," ""- N/A -   """
3.49,99.7836,0.005939472, NaN, NaN, NaN,0.0433376," ""- N/A -   """
3.52,100.963,0.005995007, NaN, NaN, NaN,0.04211683," ""- N/A -   """
3.55,102.143,0.00604777, NaN, NaN, NaN,0.0396753," ""- N/A -   """
3.58,103.44,0.006106077, NaN, NaN, NaN,0.0372337," ""- N/A -   """
3.61,105.091,0.006167166, NaN, NaN, NaN,0.03112983," ""- N/A -   """
3.64,106.035,0.006225478, NaN, NaN, NaN,0.0286883," ""- N/A -   """
3.67,107.214,0.006272682, NaN, NaN, NaN,0.0286883," ""- N/A -   """
3.7,108.158,0.00631711, NaN, NaN, NaN,0.03112983," ""- N/A -   """
3.73,109.219,0.006361539, NaN, NaN, NaN,0.0335714," ""- N/A -   """
3.76,110.281,0.006414297, NaN, NaN, NaN,0.0335714," ""- N/A -   """
3.79,111.342,0.00646428, NaN, NaN, NaN,0.0335714," ""- N/A -   """
3.82,112.64,0.00651426, NaN, NaN, NaN,0.0335714," ""- N/A -   """
3.85,113.583,0.006558688, NaN, NaN, NaN,0.0347922," ""- N/A -   """
3.88,114.645,0.006605893, NaN, NaN, NaN,0.03601294," ""- N/A -   """
3.91,115.706,0.0066531, NaN, NaN, NaN,0.0384545," ""- N/A -   """
3.94,117.004,0.006703079, NaN, NaN, NaN,0.0372337," ""- N/A -   """
3.97,117.947,0.006750284, NaN, NaN, NaN,0.0384545," ""- N/A -   """
4,119.009,0.00679749, NaN, NaN, NaN,0.0396753," ""- N/A -   """
4.03,120.071,0.00684192, NaN, NaN, NaN,0.04211683," ""- N/A -   """
4.06,121.25,0.0068919, NaN, NaN, NaN,0.04211683," ""- N/A -   """
4.09,122.312,0.00694188, NaN, NaN, NaN,0.0433376," ""- N/A -   """
4.12,123.373,0.00698631, NaN, NaN, NaN,0.0445584," ""- N/A -   """
4.15,124.435,0.007036289, NaN, NaN, NaN,0.0445584," ""- N/A -   """
4.18,125.9679,0.007094601, NaN, NaN, NaN,0.04089605," ""- N/A -   """
4.21,127.265,0.00715291, NaN, NaN, NaN,0.0372337," ""- N/A -   """
4.24,128.563,0.007208448, NaN, NaN, NaN,0.0347922," ""- N/A -   """
4.27,129.86,0.00726121, NaN, NaN, NaN,0.0335714," ""- N/A -   """
4.3,131.04,0.007319518, NaN, NaN, NaN,0.03112983," ""- N/A -   """
4.33,132.219,0.007366723, NaN, NaN, NaN,0.03112983," ""- N/A -   """
4.36,133.163,0.00741115, NaN, NaN, NaN,0.0335714," ""- N/A -   """
4.39,134.224,0.00745558, NaN, NaN, NaN,0.03601294," ""- N/A -   """
4.42,135.286,0.007508337, NaN, NaN, NaN,0.03601294," ""- N/A -   """
4.45,136.583,0.007558319, NaN, NaN, NaN,0.0347922," ""- N/A -   """
4.48,137.763,0.0076083, NaN, NaN, NaN,0.0347922," ""- N/A -   """
4.51,139.06,0.00766106, NaN, NaN, NaN,0.0335714," ""- N/A -   """
4.54,140.1216,0.00771382, NaN, NaN, NaN,0.0323506," ""- N/A -   """
4.57,141.301,0.007763798, NaN, NaN, NaN,0.0323506," ""- N/A -   """
4.6,142.245,0.007808226, NaN, NaN, NaN,0.0347922," ""- N/A -   """
4.63,143.188,0.007852654, NaN, NaN, NaN,0.0372337," ""- N/A -   """
4.66,144.368,0.007899859, NaN, NaN, NaN,0.0384545," ""- N/A -   """
4.69,145.311,0.007944287, NaN, NaN, NaN,0.04211683," ""- N/A -   """
4.72,146.255,0.007991492, NaN, NaN, NaN,0.0433376," ""- N/A -   """
4.75,147.552,0.008041473, NaN, NaN, NaN,0.04211683," ""- N/A -   """
4.78,148.732,0.008094232, NaN, NaN, NaN,0.04211683," ""- N/A -   """
4.81,149.911,0.008141437, NaN, NaN, NaN,0.04211683," ""- N/A -   """
4.84,150.973,0.008188642, NaN, NaN, NaN,0.0433376," ""- N/A -   """
4.87,152.152,0.008241399, NaN, NaN, NaN,0.04211683," ""- N/A -   """
4.9,153.45,0.008296934, NaN, NaN, NaN,0.0396753," ""- N/A -   """
4.93,154.747,0.00835247, NaN, NaN, NaN,0.0372337," ""- N/A -   """
4.96,156.0445,0.008408004, NaN, NaN, NaN,0.0347922," ""- N/A -   """
4.99,157.224,0.008463539, NaN, NaN, NaN,0.0323506," ""- N/A -   """
5.02,158.168,0.008510744, NaN, NaN, NaN,0.0347922," ""- N/A -   """
5.05,159.229,0.008555172, NaN, NaN, NaN,0.03601294," ""- N/A -   """
5.08,160.409,0.00860793, NaN, NaN, NaN,0.0347922," ""- N/A -   """
5.11,161.706,0.008663465, NaN, NaN, NaN,0.0335714," ""- N/A -   """
5.14,163.0034,0.008716225, NaN, NaN, NaN,0.03112983," ""- N/A -   """
5.17,164.065,0.008768982, NaN, NaN, NaN,0.03112983," ""- N/A -   """
5.2,165.126,0.008813411, NaN, NaN, NaN,0.0323506," ""- N/A -   """
5.23,166.188,0.008860615, NaN, NaN, NaN,0.0335714," ""- N/A -   """
5.26,167.132,0.008910596, NaN, NaN, NaN,0.0347922," ""- N/A -   """
5.29,168.311,0.008960579, NaN, NaN, NaN,0.0347922," ""- N/A -   """
5.32,169.491,0.009013337, NaN, NaN, NaN,0.0335714," ""- N/A -   """
5.35,170.552,0.009057765, NaN, NaN, NaN,0.0347922," ""- N/A -   """
5.38,171.496,0.009102193, NaN, NaN, NaN,0.0372337," ""- N/A -   """
5.41,172.4392,0.009149398, NaN, NaN, NaN,0.0384545," ""- N/A -   """
5.44,173.619,0.009196602, NaN, NaN, NaN,0.0396753," ""- N/A -   """
5.47,174.6802,0.009246584, NaN, NaN, NaN,0.0396753," ""- N/A -   """
5.5,175.506,0.009291012, NaN, NaN, NaN,0.04211683," ""- N/A -   """
5.53,176.449,0.00933544, NaN, NaN, NaN,0.04577916," ""- N/A -   """
5.56,177.865,0.009385421, NaN, NaN, NaN,0.0445584," ""- N/A -   """
5.59,178.926,0.009438179, NaN, NaN, NaN,0.0433376," ""- N/A -   """
5.62,180.106,0.009493714, NaN, NaN, NaN,0.04089605," ""- N/A -   """
5.65,181.521,0.009552026, NaN, NaN, NaN,0.0372337," ""- N/A -   """
5.68,182.937,0.009613114, NaN, NaN, NaN,0.0323506," ""- N/A -   """
5.71,183.998,0.009663097, NaN, NaN, NaN,0.0323506," ""- N/A -   """
5.74,184.942,0.009710302, NaN, NaN, NaN,0.0335714," ""- N/A -   """
5.77,186.003,0.009760283, NaN, NaN, NaN,0.0347922," ""- N/A -   """
5.8,187.183,0.009810264, NaN, NaN, NaN,0.0347922," ""- N/A -   """
5.83,188.3621,0.009863023, NaN, NaN, NaN,0.0323506," ""- N/A -   """
5.86,189.66,0.009918558, NaN, NaN, NaN,0.0299091," ""- N/A -   """
5.89,190.721,0.00997687, NaN, NaN, NaN,0.0262467," ""- N/A -   """
5.92,191.7826,0.0100241, NaN, NaN, NaN,0.0274675," ""- N/A -   """
5.95,192.726,0.0100685, NaN, NaN, NaN,0.0299091," ""- N/A -   """
5.98,193.67,0.0101185, NaN, NaN, NaN,0.0299091," ""- N/A -   """
6.01,194.495,0.0101601, NaN, NaN, NaN,0.0335714," ""- N/A -   """
6.04,195.321,0.0102018, NaN, NaN, NaN,0.0372337," ""- N/A -   """
6.07,196.147,0.0102434, NaN, NaN, NaN,0.04089605," ""- N/A -   """
6.1,197.09,0.0102851, NaN, NaN, NaN,0.0445584," ""- N/A -   """
6.13,197.916,0.0103295, NaN, NaN, NaN,0.04699994," ""- N/A -   """
6.16,198.977,0.0103767, NaN, NaN, NaN,0.0482207," ""- N/A -   """
6.19,199.803,0.0104239, NaN, NaN, NaN,0.05066227," ""- N/A -   """
6.22,200.9825,0.0104795, NaN, NaN, NaN,0.0482207," ""- N/A -   """
6.25,202.28,0.0105378, NaN, NaN, NaN,0.0445584," ""- N/A -   """
6.28,203.577,0.0105961, NaN, NaN, NaN,0.0396753," ""- N/A -   """
6.31,204.7568,0.0106544, NaN, NaN, NaN,0.03601294," ""- N/A -   """
6.34,205.936,0.0107127, NaN, NaN, NaN,0.0335714," ""- N/A -   """
6.37,206.9978,0.0107655, NaN, NaN, NaN,0.03112983," ""- N/A -   """
6.4,207.823,0.0108182, NaN, NaN, NaN,0.0299091," ""- N/A -   """
6.43,208.885,0.0108682, NaN, NaN, NaN,0.0299091," ""- N/A -   """
6.46,209.829,0.010921, NaN, NaN, NaN,0.0299091," ""- N/A -   """
6.49,210.772,0.0109709, NaN, NaN, NaN,0.0286883," ""- N/A -   """
6.52,211.834,0.0110265, NaN, NaN, NaN,0.0262467," ""- N/A -   """
6.55,212.777,0.0110737, NaN, NaN, NaN,0.0274675," ""- N/A -   """
6.58,213.603,0.0111237, NaN, NaN, NaN,0.0274675," ""- N/A -   """
6.61,214.4285,0.0111709, NaN, NaN, NaN,0.0299091," ""- N/A -   """
6.64,215.254,0.0112153, NaN, NaN, NaN,0.0323506," ""- N/A -   """
6.67,215.962,0.0112542, NaN, NaN, NaN,0.03601294," ""- N/A -   """
6.7,216.67,0.0112958, NaN, NaN, NaN,0.0396753," ""- N/A -   """
6.73,217.613,0.011343, NaN, NaN, NaN,0.04089605," ""- N/A -   """
6.76,218.4387,0.0113902, NaN, NaN, NaN,0.04211683," ""- N/A -   """
6.79,219.5,0.0114402, NaN, NaN, NaN,0.0433376," ""- N/A -   """
6.82,220.444,0.011493, NaN, NaN, NaN,0.04211683," ""- N/A -   """
6.85,221.387,0.0115402, NaN, NaN, NaN,0.04211683," ""- N/A -   """
6.88,222.331,0.0115874, NaN, NaN, NaN,0.0445584," ""- N/A -   """
6.91,223.3925,0.0116374, NaN, NaN, NaN,0.0433376," ""- N/A -   """
6.94,224.336,0.0116929, NaN, NaN, NaN,0.04211683," ""- N/A -   """
6.97,225.398,0.0117484, NaN, NaN, NaN,0.0396753," ""- N/A -   """
7,226.695,0.011804, NaN, NaN, NaN,0.03601294," ""- N/A -   """
7.03,227.757,0.0118623, NaN, NaN, NaN,0.0335714," ""- N/A -   """
7.06,228.936,0.0119178, NaN, NaN, NaN,0.03112983," ""- N/A -   """
7.09,229.998,0.0119706, NaN, NaN, NaN,0.0286883," ""- N/A -   """
7.12,230.8232,0.0120206, NaN, NaN, NaN,0.0286883," ""- N/A -   """
7.15,231.767,0.0120678, NaN, NaN, NaN,0.0299091," ""- N/A -   """
7.18,232.592,0.0121177, NaN, NaN, NaN,0.03112983," ""- N/A -   """
7.21,233.536,0.0121649, NaN, NaN, NaN,0.0323506," ""- N/A -   """
7.24,234.48,0.0122122, NaN, NaN, NaN,0.0335714," ""- N/A -   """
7.27,235.3052,0.0122594, NaN, NaN, NaN,0.0347922," ""- N/A -   """
7.3,236.249,0.0123066, NaN, NaN, NaN,0.03601294," ""- N/A -   """
7.33,237.3103,0.0123538, NaN, NaN, NaN,0.03601294," ""- N/A -   """
7.36,238.254,0.01240375, NaN, NaN, NaN,0.0372337," ""- N/A -   """
7.39,239.197,0.012451, NaN, NaN, NaN,0.0372337," ""- N/A -   """
7.42,240.0231,0.0124954, NaN, NaN, NaN,0.0396753," ""- N/A -   """
7.45,240.967,0.0125398, NaN, NaN, NaN,0.04211683," ""- N/A -   """
7.48,241.792,0.0125898, NaN, NaN, NaN,0.0433376," ""- N/A -   """
7.51,242.5,0.0126342, NaN, NaN, NaN,0.0445584," ""- N/A -   """
7.54,243.56,0.0126814, NaN, NaN, NaN,0.04577916," ""- N/A -   """
7.57,244.503,0.0127342, NaN, NaN, NaN,0.04577916," ""- N/A -   """
7.6,245.799,0.0127925, NaN, NaN, NaN,0.04211683," ""- N/A -   """
7.63,247.095,0.0128536, NaN, NaN, NaN,0.0372337," ""- N/A -   """
7.66,248.273,0.0129119, NaN, NaN, NaN,0.0323506," ""- N/A -   """
7.69,249.334,0.0129674, NaN, NaN, NaN,0.0299091," ""- N/A -   """
7.72,250.512,0.013023, NaN, NaN, NaN,0.0274675," ""- N/A -   """
7.75,251.337,0.0130729, NaN, NaN, NaN,0.0274675," ""- N/A -   """
7.78,252.28,0.0131174, NaN, NaN, NaN,0.0299091," ""- N/A -   """
7.81,253.222,0.0131646, NaN, NaN, NaN,0.03112983," ""- N/A -   """
7.84,253.929,0.0132035, NaN, NaN, NaN,0.03601294," ""- N/A -   """
7.87,254.7539,0.0132534, NaN, NaN, NaN,0.0372337," ""- N/A -   """
7.9,255.932,0.0133062, NaN, NaN, NaN,0.03601294," ""- N/A -   """
7.93,257.11,0.0133617, NaN, NaN, NaN,0.0323506," ""- N/A -   """
7.96,258.171,0.01342, NaN, NaN, NaN,0.0299091," ""- N/A -   """
7.99,259.231,0.0134672, NaN, NaN, NaN,0.0299091," ""- N/A -   """
8.02,260.174,0.0135145, NaN, NaN, NaN,0.0323506," ""- N/A -   """
8.05,260.9987,0.0135617, NaN, NaN, NaN,0.0347922," ""- N/A -   """
8.08,261.9413,0.0136061, NaN, NaN, NaN,0.0372337," ""- N/A -   """
8.11,262.8839,0.0136533, NaN, NaN, NaN,0.0384545," ""- N/A -   """
8.14,263.7087,0.0137005, NaN, NaN, NaN,0.0384545," ""- N/A -   """
8.17,264.6513,0.0137477, NaN, NaN, NaN,0.0396753," ""- N/A -   """
8.2,265.83,0.0137977, NaN, NaN, NaN,0.0396753," ""- N/A -   """
8.23,266.7722,0.0138477, NaN, NaN, NaN,0.0396753," ""- N/A -   """
8.26,267.8326,0.0138976, NaN, NaN, NaN,0.0396753," ""- N/A -   """
8.29,268.7752,0.0139504, NaN, NaN, NaN,0.0384545," ""- N/A -   """
8.32,269.9535,0.0140004, NaN, NaN, NaN,0.0384545," ""- N/A -   """
8.35,270.778,0.0140476, NaN, NaN, NaN,0.0396753," ""- N/A -   """
8.38,271.9565,0.0140976, NaN, NaN, NaN,0.0396753," ""- N/A -   """
8.41,272.899,0.0141476, NaN, NaN, NaN,0.0396753," ""- N/A -   """
8.44,273.7239,0.0141948, NaN, NaN, NaN,0.04089605," ""- N/A -   """
8.47,274.667,0.0142447, NaN, NaN, NaN,0.04211683," ""- N/A -   """
8.5,275.727,0.0142947, NaN, NaN, NaN,0.04089605," ""- N/A -   """
8.53,276.9052,0.0143475, NaN, NaN, NaN,0.0396753," ""- N/A -   """
8.56,277.966,0.014403, NaN, NaN, NaN,0.0384545," ""- N/A -   """
8.59,279.144,0.0144558, NaN, NaN, NaN,0.03601294," ""- N/A -   """
8.62,280.322,0.0145141, NaN, NaN, NaN,0.0335714," ""- N/A -   """
8.65,281.3826,0.0145641, NaN, NaN, NaN,0.0323506," ""- N/A -   """
8.68,282.325,0.0146113, NaN, NaN, NaN,0.0335714," ""- N/A -   """
8.71,283.268,0.014664, NaN, NaN, NaN,0.0323506," ""- N/A -   """
8.74,284.328,0.014714, NaN, NaN, NaN,0.0323506," ""- N/A -   """
8.77,285.3887,0.014764, NaN, NaN, NaN,0.0323506," ""- N/A -   """
8.8,286.213,0.0148056, NaN, NaN, NaN,0.03601294," ""- N/A -   """
8.83,287.038,0.0148528, NaN, NaN, NaN,0.0372337," ""- N/A -   """
8.86,287.863,0.0148973, NaN, NaN, NaN,0.0396753," ""- N/A -   """
8.89,288.9235,0.0149417, NaN, NaN, NaN,0.04211683," ""- N/A -   """
8.92,289.748,0.0149861, NaN, NaN, NaN,0.0445584," ""- N/A -   """
8.95,290.927,0.0150389, NaN, NaN, NaN,0.0433376," ""- N/A -   """
8.98,291.987,0.0150889, NaN, NaN, NaN,0.0433376," ""- N/A -   """
9.01,293.165,0.0151472, NaN, NaN, NaN,0.04089605," ""- N/A -   """
9.04,294.343,0.01519994, NaN, NaN, NaN,0.0384545," ""- N/A -   """
9.07,295.522,0.0152583, NaN, NaN, NaN,0.03601294," ""- N/A -   """
9.1,296.7,0.01531101, NaN, NaN, NaN,0.0335714," ""- N/A -   """
9.13,297.878,0.0153638, NaN, NaN, NaN,0.0323506," ""- N/A -   """
9.16,298.703,0.01541375, NaN, NaN, NaN,0.0323506," ""- N/A -   """
9.19,299.7635,0.015461, NaN, NaN, NaN,0.0335714," ""- N/A -   """
9.22,300.588,0.0155054, NaN, NaN, NaN,0.03601294," ""- N/A -   """
9.25,301.6487,0.01555814, NaN, NaN, NaN,0.0347922," ""- N/A -   """
9.28,302.945,0.0156165, NaN, NaN, NaN,0.03112983," ""- N/A -   """
9.31,304.123,0.0156748, NaN, NaN, NaN,0.0274675," ""- N/A -   """
9.34,305.301,0.0157275, NaN, NaN, NaN,0.0274675," ""- N/A -   """
9.37,306.2439,0.0157747, NaN, NaN, NaN,0.0274675," ""- N/A -   """
9.4,307.0687,0.0158192, NaN, NaN, NaN,0.0299091," ""- N/A -   """
9.43,308.011,0.0158636, NaN, NaN, NaN,0.0335714," ""- N/A -   """
9.46,308.718,0.0159052, NaN, NaN, NaN,0.0372337," ""- N/A -   """
9.49,309.425,0.01594411, NaN, NaN, NaN,0.04089605," ""- N/A -   """
9.52,310.368,0.0159885, NaN, NaN, NaN,0.0433376," ""- N/A -   """
9.55,311.428,0.0160357, NaN, NaN, NaN,0.04577916," ""- N/A -   """
9.58,312.371,0.01608017, NaN, NaN, NaN,0.04699994," ""- N/A -   """
9.61,313.667,0.0161357, NaN, NaN, NaN,0.0445584," ""- N/A -   """
9.64,314.8452,0.01619124, NaN, NaN, NaN,0.04211683," ""- N/A -   """
9.67,315.906,0.0162468, NaN, NaN, NaN,0.0396753," ""- N/A -   """
9.7,317.084,0.01630231, NaN, NaN, NaN,0.0372337," ""- N/A -   """
9.73,318.262,0.01635507, NaN, NaN, NaN,0.0372337," ""- N/A -   """
9.76,319.44,0.0164078, NaN, NaN, NaN,0.0347922," ""- N/A -   """
9.79,320.383,0.016455, NaN, NaN, NaN,0.03601294," ""- N/A -   """
9.82,321.443,0.016505, NaN, NaN, NaN,0.03601294," ""- N/A -   """
9.85,322.74,0.0165633, NaN, NaN, NaN,0.0323506," ""- N/A -   """
9.88,323.918,0.0166216, NaN, NaN, NaN,0.0299091," ""- N/A -   """
9.91,325.0961,0.0166772, NaN, NaN, NaN,0.0274675," ""- N/A -   """
9.94,326.0387,0.0167216, NaN, NaN, NaN,0.0286883," ""- N/A -   """
9.97,326.9813,0.0167688, NaN, NaN, NaN,0.0299091," ""- N/A -   """
10,328.16,0.0168188, NaN, NaN, NaN,0.0299091," ""- N/A -   """
10.03,328.984,0.016866, NaN, NaN, NaN,0.03112983," ""- N/A -   """
10.06,329.927,0.0169104, NaN, NaN, NaN,0.0335714," ""- N/A -   """
10.09,330.752,0.0169521, NaN, NaN, NaN,0.0372337," ""- N/A -   """
10.12,331.5765,0.0169937, NaN, NaN, NaN,0.04089605," ""- N/A -   """
10.15,332.4013,0.01703815, NaN, NaN, NaN,0.0433376," ""- N/A -   """
10.18,333.462,0.0170854, NaN, NaN, NaN,0.04577916," ""- N/A -   """
10.21,334.64,0.0171381, NaN, NaN, NaN,0.0433376," ""- N/A -   """
10.24,335.7,0.0171909, NaN, NaN, NaN,0.04211683," ""- N/A -   """
10.27,336.643,0.0172381, NaN, NaN, NaN,0.0433376," ""- N/A -   """
10.3,337.7035,0.01728528, NaN, NaN, NaN,0.0445584," ""- N/A -   """
10.33,338.882,0.01733804, NaN, NaN, NaN,0.0445584," ""- N/A -   """
10.36,339.942,0.017388, NaN, NaN, NaN,0.0433376," ""- N/A -   """
10.39,341.238,0.0174463, NaN, NaN, NaN,0.0396753," ""- N/A -   """
10.42,342.652,0.0175102, NaN, NaN, NaN,0.0335714," ""- N/A -   """
10.45,343.948,0.01756851, NaN, NaN, NaN,0.0299091," ""- N/A -   """
10.48,345.127,0.017624, NaN, NaN, NaN,0.0286883," ""- N/A -   """
10.51,346.305,0.017674, NaN, NaN, NaN,0.0274675," ""- N/A -   """
10.54,347.247,0.01772123, NaN, NaN, NaN,0.0286883," ""- N/A -   """
10.57,348.3078,0.0177712, NaN, NaN, NaN,0.0286883," ""- N/A -   """
10.6,349.25,0.0178184, NaN, NaN, NaN,0.03112983," ""- N/A -   """
10.63,350.193,0.0178601, NaN, NaN, NaN,0.0335714," ""- N/A -   """
10.66,351.136,0.01791005, NaN, NaN, NaN,0.0335714," ""- N/A -   """
10.69,352.078,0.0179573, NaN, NaN, NaN,0.0347922," ""- N/A -   """
10.72,353.1387,0.0180072, NaN, NaN, NaN,0.0347922," ""- N/A -   """
10.75,354.435,0.01806, NaN, NaN, NaN,0.0335714," ""- N/A -   """
10.78,355.613,0.0181128, NaN, NaN, NaN,0.0323506," ""- N/A -   """
10.81,356.438,0.01815718, NaN, NaN, NaN,0.0347922," ""- N/A -   """
10.84,357.145,0.0181961, NaN, NaN, NaN,0.0396753," ""- N/A -   """
10.87,358.0874,0.0182433, NaN, NaN, NaN,0.04211683," ""- N/A -   """
10.9,359.266,0.0182877, NaN, NaN, NaN,0.0433376," ""- N/A -   """
10.93,360.326,0.0183377, NaN, NaN, NaN,0.0433376," ""- N/A -   """
10.96,361.269,0.0183849, NaN, NaN, NaN,0.0445584," ""- N/A -   """
10.99,362.5648,0.0184404, NaN, NaN, NaN,0.04211683," ""- N/A -   """
11.02,363.9787,0.0185015, NaN, NaN, NaN,0.0372337," ""- N/A -   """
11.05,365.157,0.01855981, NaN, NaN, NaN,0.0347922," ""- N/A -   """
11.08,366.453,0.0186126, NaN, NaN, NaN,0.0323506," ""- N/A -   """
11.11,367.5135,0.0186653, NaN, NaN, NaN,0.03112983," ""- N/A -   """
11.14,368.5739,0.0187153, NaN, NaN, NaN,0.03112983," ""- N/A -   """
11.17,369.634,0.0187625, NaN, NaN, NaN,0.0323506," ""- N/A -   """
11.2,370.459,0.01880694, NaN, NaN, NaN,0.0347922," ""- N/A -   """
11.23,371.402,0.0188541, NaN, NaN, NaN,0.03601294," ""- N/A -   """
11.26,372.58,0.0189041, NaN, NaN, NaN,0.03601294," ""- N/A -   """
11.29,373.8761,0.0189541, NaN, NaN, NaN,0.03601294," ""- N/A -   """
11.32,374.937,0.0190041, NaN, NaN, NaN,0.03601294," ""- N/A -   """
11.35,376.1148,0.0190596, NaN, NaN, NaN,0.0335714," ""- N/A -   """
11.38,377.293,0.0191124, NaN, NaN, NaN,0.0335714," ""- N/A -   """
11.41,378.353,0.01915681, NaN, NaN, NaN,0.0347922," ""- N/A -   """
11.44,379.296,0.0192068, NaN, NaN, NaN,0.03601294," ""- N/A -   """
11.47,380.2387,0.0192512, NaN, NaN, NaN,0.0372337," ""- N/A -   """
11.5,381.299,0.0192984, NaN, NaN, NaN,0.0384545," ""- N/A -   """
11.53,382.124,0.0193401, NaN, NaN, NaN,0.04211683," ""- N/A -   """
11.56,383.302,0.0193928, NaN, NaN, NaN,0.04089605," ""- N/A -   """
11.59,384.598,0.0194456, NaN, NaN, NaN,0.0396753," ""- N/A -   """
11.62,385.6587,0.0194928, NaN, NaN, NaN,0.04089605," ""- N/A -   """
11.65,386.719,0.01954, NaN, NaN, NaN,0.04211683," ""- N/A -   """
11.68,387.8974,0.0195955, NaN, NaN, NaN,0.0396753," ""- N/A -   """
11.71,389.076,0.0196511, NaN, NaN, NaN,0.0372337," ""- N/A -   """
11.74,390.372,0.0197066, NaN, NaN, NaN,0.0347922," ""- N/A -   """
11.77,391.55,0.0197538, NaN, NaN, NaN,0.03601294," ""- N/A -   """
11.8,392.4926,0.0198038, NaN, NaN, NaN,0.03601294," ""- N/A -   """
11.83,393.553,0.0198566, NaN, NaN, NaN,0.03601294," ""- N/A -   """
11.86,394.849,0.0199093, NaN, NaN, NaN,0.0335714," ""- N/A -   """
11.89,395.91,0.01996207, NaN, NaN, NaN,0.0323506," ""- N/A -   """
11.92,397.0878,0.0200148, NaN, NaN, NaN,0.03112983," ""- N/A -   """
11.95,398.1483,0.0200648, NaN, NaN, NaN,0.03112983," ""- N/A -   """
11.98,399.091,0.0201148, NaN, NaN, NaN,0.0323506," ""- N/A -   """
12.01,400.387,0.0201648, NaN, NaN, NaN,0.0323506," ""- N/A -   """
12.04,401.447,0.020212, NaN, NaN, NaN,0.0323506," ""- N/A -   """
12.07,402.39,0.0202592, NaN, NaN, NaN,0.0347922," ""- N/A -   """
12.1,403.4504,0.0203092, NaN, NaN, NaN,0.0347922," ""- N/A -   """
12.13,404.747,0.0203647, NaN, NaN, NaN,0.0323506," ""- N/A -   """
12.16,405.925,0.02041468, NaN, NaN, NaN,0.03112983," ""- N/A -   """
12.19,406.8674,0.0204619, NaN, NaN, NaN,0.0335714," ""- N/A -   """
12.22,407.692,0.0205035, NaN, NaN, NaN,0.03601294," ""- N/A -   """
12.25,408.7526,0.0205507, NaN, NaN, NaN,0.0384545," ""- N/A -   """
12.28,409.813,0.0206007, NaN, NaN, NaN,0.0384545," ""- N/A -   """
12.31,410.873,0.02064515, NaN, NaN, NaN,0.0396753," ""- N/A -   """
12.34,411.8161,0.0206896, NaN, NaN, NaN,0.04211683," ""- N/A -   """
12.37,412.994,0.02073956, NaN, NaN, NaN,0.04211683," ""- N/A -   """
12.4,414.1726,0.0207923, NaN, NaN, NaN,0.04089605," ""- N/A -   """
12.43,415.469,0.0208479, NaN, NaN, NaN,0.0384545," ""- N/A -   """
12.46,416.883,0.0209062, NaN, NaN, NaN,0.0347922," ""- N/A -   """
12.49,418.1787,0.0209589, NaN, NaN, NaN,0.0335714," ""- N/A -   """
12.52,419.003,0.0210061, NaN, NaN, NaN,0.0347922," ""- N/A -   """
12.55,420.0639,0.0210533, NaN, NaN, NaN,0.0372337," ""- N/A -   """
12.58,421.124,0.0211033, NaN, NaN, NaN,0.0384545," ""- N/A -   """
12.61,422.185,0.02115052, NaN, NaN, NaN,0.0384545," ""- N/A -   """
12.64,423.363,0.0212005, NaN, NaN, NaN,0.0384545," ""- N/A -   """
12.67,424.659,0.0212533, NaN, NaN, NaN,0.0372337," ""- N/A -   """
12.7,425.955,0.0213143, NaN, NaN, NaN,0.0335714," ""- N/A -   """
12.73,427.2513,0.0213699, NaN, NaN, NaN,0.03112983," ""- N/A -   """
12.76,428.312,0.0214171, NaN, NaN, NaN,0.03112983," ""- N/A -   """
12.79,429.372,0.0214643, NaN, NaN, NaN,0.0323506," ""- N/A -   """
12.82,430.4326,0.0215115, NaN, NaN, NaN,0.0335714," ""- N/A -   """
12.85,431.3752,0.0215559, NaN, NaN, NaN,0.03601294," ""- N/A -   """
12.88,432.2,0.0216004, NaN, NaN, NaN,0.0384545," ""- N/A -   """
12.91,433.1426,0.021642, NaN, NaN, NaN,0.04211683," ""- N/A -   """
12.94,434.203,0.0216864, NaN, NaN, NaN,0.0445584," ""- N/A -   """
12.97,435.146,0.0217336, NaN, NaN, NaN,0.04577916," ""- N/A -   """
13,436.442,0.02178362, NaN, NaN, NaN,0.04577916," ""- N/A -   """
13.03,437.502,0.0218364, NaN, NaN, NaN,0.04577916," ""- N/A -   """
13.06,438.9161,0.02189191, NaN, NaN, NaN,0.0433376," ""- N/A -   """
13.09,440.2122,0.0219447, NaN, NaN, NaN,0.04089605," ""- N/A -   """
13.12,441.2726,0.02199743, NaN, NaN, NaN,0.04089605," ""- N/A -   """
13.15,442.687,0.0220502, NaN, NaN, NaN,0.0384545," ""- N/A -   """
13.18,443.9826,0.0221085, NaN, NaN, NaN,0.0347922," ""- N/A -   """
13.21,445.279,0.022164, NaN, NaN, NaN,0.0323506," ""- N/A -   """
13.24,446.5748,0.0222196, NaN, NaN, NaN,0.0299091," ""- N/A -   """
13.27,447.753,0.0222723, NaN, NaN, NaN,0.0299091," ""- N/A -   """
13.3,449.049,0.0223251, NaN, NaN, NaN,0.0274675," ""- N/A -   """
13.33,450.227,0.0223778, NaN, NaN, NaN,0.0262467," ""- N/A -   """
13.36,451.288,0.0224278, NaN, NaN, NaN,0.0262467," ""- N/A -   """
13.39,452.348,0.02247503, NaN, NaN, NaN,0.0274675," ""- N/A -   """
13.42,453.291,0.02251668, NaN, NaN, NaN,0.03112983," ""- N/A -   """
13.45,454.2335,0.0225611, NaN, NaN, NaN,0.0335714," ""- N/A -   """
13.48,455.1761,0.0226083, NaN, NaN, NaN,0.0347922," ""- N/A -   """
13.51,456.354,0.0226555, NaN, NaN, NaN,0.03601294," ""- N/A -   """
13.54,457.1791,0.0226999, NaN, NaN, NaN,0.0396753," ""- N/A -   """
13.57,458.2396,0.0227444, NaN, NaN, NaN,0.04089605," ""- N/A -   """
13.6,459.3,0.0227888, NaN, NaN, NaN,0.0433376," ""- N/A -   """
13.63,460.478,0.022836, NaN, NaN, NaN,0.04577916," ""- N/A -   """
13.66,461.657,0.02288599, NaN, NaN, NaN,0.0445584," ""- N/A -   """
13.69,462.835,0.0229387, NaN, NaN, NaN,0.0433376," ""- N/A -   """
13.72,464.131,0.0229971, NaN, NaN, NaN,0.04089605," ""- N/A -   """
13.75,465.545,0.0230498, NaN, NaN, NaN,0.0384545," ""- N/A -   """
13.78,466.841,0.0231054, NaN, NaN, NaN,0.0372337," ""- N/A -   """
13.81,467.901,0.0231526, NaN, NaN, NaN,0.0372337," ""- N/A -   """
13.84,469.08,0.0232053, NaN, NaN, NaN,0.03601294," ""- N/A -   """
13.87,470.376,0.0232581, NaN, NaN, NaN,0.0347922," ""- N/A -   """
13.9,471.4361,0.0233053, NaN, NaN, NaN,0.03601294," ""- N/A -   """
13.93,472.497,0.02335526, NaN, NaN, NaN,0.03601294," ""- N/A -   """
13.96,473.675,0.02340524, NaN, NaN, NaN,0.03601294," ""- N/A -   """
13.99,474.853,0.023458, NaN, NaN, NaN,0.0347922," ""- N/A -   """
14.02,475.913,0.0235052, NaN, NaN, NaN,0.0372337," ""- N/A -   """
14.05,476.974,0.0235496, NaN, NaN, NaN,0.0396753," ""- N/A -   """
14.08,478.152,0.0235996, NaN, NaN, NaN,0.0384545," ""- N/A -   """
14.11,479.33,0.0236468, NaN, NaN, NaN,0.0396753," ""- N/A -   """
14.14,480.391,0.0236968, NaN, NaN, NaN,0.0396753," ""- N/A -   """
14.17,481.805,0.0237523, NaN, NaN, NaN,0.0372337," ""- N/A -   """
14.2,483.101,0.02380787, NaN, NaN, NaN,0.0347922," ""- N/A -   """
14.23,484.279,0.0238579, NaN, NaN, NaN,0.03601294," ""- N/A -   """
14.26,485.222,0.0238995, NaN, NaN, NaN,0.0384545," ""- N/A -   """
14.29,486.047,0.0239439, NaN, NaN, NaN,0.04211683," ""- N/A -   """
14.32,487.225,0.0239911, NaN, NaN, NaN,0.0433376," ""- N/A -   """
14.35,488.2852,0.02403834, NaN, NaN, NaN,0.0433376," ""- N/A -   """
14.38,489.5813,0.0240911, NaN, NaN, NaN,0.0433376," ""- N/A -   """
14.41,490.877,0.0241466, NaN, NaN, NaN,0.0396753," ""- N/A -   """
14.44,492.173,0.0242022, NaN, NaN, NaN,0.0372337," ""- N/A -   """
14.47,493.47,0.0242577, NaN, NaN, NaN,0.03601294," ""- N/A -   """
14.5,494.883,0.02431324, NaN, NaN, NaN,0.0335714," ""- N/A -   """
14.53,496.18,0.0243688, NaN, NaN, NaN,0.0299091," ""- N/A -   """
14.56,497.476,0.0244215, NaN, NaN, NaN,0.0286883," ""- N/A -   """
14.59,498.536,0.0244715, NaN, NaN, NaN,0.0299091," ""- N/A -   """
14.62,499.714,0.0245187, NaN, NaN, NaN,0.0299091," ""- N/A -   """
14.65,500.775,0.0245631, NaN, NaN, NaN,0.0323506," ""- N/A -   """
14.68,501.953,0.0246131, NaN, NaN, NaN,0.0323506," ""- N/A -   """
14.71,502.896,0.0246603, NaN, NaN, NaN,0.0335714," ""- N/A -   """
14.74,504.31,0.0247159, NaN, NaN, NaN,0.03112983," ""- N/A -   """
14.77,505.488,0.02476585, NaN, NaN, NaN,0.03112983," ""- N/A -   """
14.8,506.548,0.0248131, NaN, NaN, NaN,0.0323506," ""- N/A -   """
14.83,507.491,0.0248575, NaN, NaN, NaN,0.0347922," ""- N/A -   """
14.86,508.669,0.0249047, NaN, NaN, NaN,0.03601294," ""- N/A -   """
14.89,509.847,0.02495467, NaN, NaN, NaN,0.0372337," ""- N/A -   """
14.92,510.672,0.0249935, NaN, NaN, NaN,0.04089605," ""- N/A -   """
14.95,511.7326,0.02503797, NaN, NaN, NaN,0.0433376," ""- N/A -   """
14.98,513.1465,0.0250935, NaN, NaN, NaN,0.04211683," ""- N/A -   """
15.01,514.328,0.02514349, NaN, NaN, NaN,0.04089605," ""- N/A -   """
15.04,515.392,0.0251962, NaN, NaN, NaN,0.04089605," ""- N/A -   """
15.07,516.5753,0.02524345, NaN, NaN, NaN,0.04089605," ""- N/A -   """
15.1,517.8764,0.02529621, NaN, NaN, NaN,0.0396753," ""- N/A -   """
15.13,519.2958,0.025349, NaN, NaN, NaN,0.0384545," ""- N/A -   """
15.16,520.597,0.0254045, NaN, NaN, NaN,0.03601294," ""- N/A -   """
15.19,521.78,0.0254573, NaN, NaN, NaN,0.0347922," ""- N/A -   """
15.22,522.962,0.0255072, NaN, NaN, NaN,0.0347922," ""- N/A -   """
15.25,524.027,0.0255544, NaN, NaN, NaN,0.03601294," ""- N/A -   """
15.28,525.2098,0.02560443, NaN, NaN, NaN,0.03601294," ""- N/A -   """
15.31,526.5109,0.02566, NaN, NaN, NaN,0.0347922," ""- N/A -   """
15.34,527.6937,0.0257127, NaN, NaN, NaN,0.0335714," ""- N/A -   """
15.37,528.9948,0.0257627, NaN, NaN, NaN,0.0335714," ""- N/A -   """
15.4,529.941,0.0258071, NaN, NaN, NaN,0.0347922," ""- N/A -   """
15.43,531.124,0.0258571, NaN, NaN, NaN,0.0347922," ""- N/A -   """
15.46,532.307,0.0259071, NaN, NaN, NaN,0.0347922," ""- N/A -   """
15.49,533.489,0.0259543, NaN, NaN, NaN,0.03601294," ""- N/A -   """
15.52,534.672,0.0260043, NaN, NaN, NaN,0.03601294," ""- N/A -   """
15.55,535.8551,0.02605704, NaN, NaN, NaN,0.0347922," ""- N/A -   """
15.58,537.1562,0.0261126, NaN, NaN, NaN,0.0323506," ""- N/A -   """
15.61,538.2207,0.026157, NaN, NaN, NaN,0.0347922," ""- N/A -   """
15.64,539.2852,0.0261987, NaN, NaN, NaN,0.0384545," ""- N/A -   """
15.67,540.231,0.02624586, NaN, NaN, NaN,0.04089605," ""- N/A -   """
15.7,541.414,0.0262903, NaN, NaN, NaN,0.04211683," ""- N/A -   """
15.73,542.5971,0.0263403, NaN, NaN, NaN,0.04211683," ""- N/A -   """
15.76,543.543,0.0263847, NaN, NaN, NaN,0.0445584," ""- N/A -   """
15.79,544.8444,0.0264375, NaN, NaN, NaN,0.0445584," ""- N/A -   """
15.82,546.2638,0.0264874, NaN, NaN, NaN,0.0433376," ""- N/A -   """
15.85,547.5649,0.02654297, NaN, NaN, NaN,0.04089605," ""- N/A -   """
15.88,548.984,0.02660406, NaN, NaN, NaN,0.03601294," ""- N/A -   """
15.91,550.4036,0.0266596, NaN, NaN, NaN,0.0335714," ""- N/A -   """
15.94,551.7047,0.02671513, NaN, NaN, NaN,0.0323506," ""- N/A -   """
15.97,552.8875,0.0267679, NaN, NaN, NaN,0.03112983," ""- N/A -   """
16,554.0703,0.0268151, NaN, NaN, NaN,0.03112983," ""- N/A -   """
16.03,555.2531,0.0268651, NaN, NaN, NaN,0.0323506," ""- N/A -   """
16.06,556.3177,0.02691228, NaN, NaN, NaN,0.0323506," ""- N/A -   """
16.09,557.6188,0.0269678, NaN, NaN, NaN,0.0299091," ""- N/A -   """
16.12,559.038,0.0270261, NaN, NaN, NaN,0.0262467," ""- N/A -   """
16.15,560.339,0.0270789, NaN, NaN, NaN,0.0262467," ""- N/A -   """
16.18,561.404,0.0271261, NaN, NaN, NaN,0.0274675," ""- N/A -   """
16.21,562.35,0.027165, NaN, NaN, NaN,0.03112983," ""- N/A -   """
16.24,563.4145,0.0272122, NaN, NaN, NaN,0.0335714," ""- N/A -   """
16.27,564.479,0.0272566, NaN, NaN, NaN,0.0347922," ""- N/A -   """
16.3,565.5436,0.027301, NaN, NaN, NaN,0.0372337," ""- N/A -   """
16.33,566.4898,0.0273455, NaN, NaN, NaN,0.04089605," ""- N/A -   """
16.36,567.5544,0.02738988, NaN, NaN, NaN,0.0433376," ""- N/A -   """
16.39,568.5006,0.02743153, NaN, NaN, NaN,0.04577916," ""- N/A -   """
16.42,569.565,0.027476, NaN, NaN, NaN,0.0482207," ""- N/A -   """
16.45,570.7479,0.0275287, NaN, NaN, NaN,0.04699994," ""- N/A -   """
16.48,572.4039,0.0275898, NaN, NaN, NaN,0.04211683," ""- N/A -   """
16.51,573.823,0.02764812, NaN, NaN, NaN,0.0384545," ""- N/A -   """
16.54,575.3609,0.02770643, NaN, NaN, NaN,0.03601294," ""- N/A -   """
16.57,576.5437,0.0277564, NaN, NaN, NaN,0.0347922," ""- N/A -   """
16.6,577.8448,0.0278064, NaN, NaN, NaN,0.0347922," ""- N/A -   """
16.63,579.0276,0.0278619, NaN, NaN, NaN,0.0323506," ""- N/A -   """
16.66,580.447,0.0279147, NaN, NaN, NaN,0.03112983," ""- N/A -   """
16.69,581.5115,0.0279674, NaN, NaN, NaN,0.03112983," ""- N/A -   """
16.72,582.8126,0.0280174, NaN, NaN, NaN,0.03112983," ""- N/A -   """
16.75,583.995,0.0280674, NaN, NaN, NaN,0.0299091," ""- N/A -   """
16.78,585.2965,0.02811739, NaN, NaN, NaN,0.03112983," ""- N/A -   """
16.81,586.598,0.0281701, NaN, NaN, NaN,0.0299091," ""- N/A -   """
16.84,587.662,0.0282201, NaN, NaN, NaN,0.0286883," ""- N/A -   """
16.87,588.8449,0.0282646, NaN, NaN, NaN,0.03112983," ""- N/A -   """
16.9,589.673,0.0283034, NaN, NaN, NaN,0.03601294," ""- N/A -   """
16.93,590.501,0.0283451, NaN, NaN, NaN,0.04089605," ""- N/A -   """
16.96,591.565,0.02838951, NaN, NaN, NaN,0.04211683," ""- N/A -   """
16.99,592.748,0.0284395, NaN, NaN, NaN,0.04211683," ""- N/A -   """
17.02,593.931,0.0284867, NaN, NaN, NaN,0.0433376," ""- N/A -   """
17.05,595.232,0.0285395, NaN, NaN, NaN,0.04211683," ""- N/A -   """
17.08,596.415,0.02858666, NaN, NaN, NaN,0.0445584," ""- N/A -   """
17.11,597.598,0.0286366, NaN, NaN, NaN,0.0445584," ""- N/A -   """
17.14,598.7805,0.0286866, NaN, NaN, NaN,0.0445584," ""- N/A -   """
17.17,600.1998,0.0287394, NaN, NaN, NaN,0.0433376," ""- N/A -   """
17.2,601.619,0.0287977, NaN, NaN, NaN,0.04089605," ""- N/A -   """
17.23,602.9203,0.0288505, NaN, NaN, NaN,0.0384545," ""- N/A -   """
17.26,604.458,0.0289115, NaN, NaN, NaN,0.0335714," ""- N/A -   """
17.29,605.8773,0.0289671, NaN, NaN, NaN,0.0323506," ""- N/A -   """
17.32,607.1784,0.0290198, NaN, NaN, NaN,0.0299091," ""- N/A -   """
17.35,608.4795,0.0290726, NaN, NaN, NaN,0.0286883," ""- N/A -   """
17.38,609.544,0.0291226, NaN, NaN, NaN,0.0286883," ""- N/A -   """
17.41,610.7268,0.0291698, NaN, NaN, NaN,0.03112983," ""- N/A -   """
17.44,611.91,0.029217, NaN, NaN, NaN,0.03112983," ""- N/A -   """
17.47,613.211,0.029267, NaN, NaN, NaN,0.03112983," ""- N/A -   """
17.5,614.2753,0.0293169, NaN, NaN, NaN,0.0323506," ""- N/A -   """
17.53,615.458,0.0293642, NaN, NaN, NaN,0.0323506," ""- N/A -   """
17.56,616.6409,0.02940858, NaN, NaN, NaN,0.0347922," ""- N/A -   """
17.59,617.8237,0.0294558, NaN, NaN, NaN,0.03601294," ""- N/A -   """
17.62,618.8882,0.0295058, NaN, NaN, NaN,0.0372337," ""- N/A -   """
17.65,619.953,0.0295502, NaN, NaN, NaN,0.0384545," ""- N/A -   """
17.68,621.0173,0.0295946, NaN, NaN, NaN,0.04089605," ""- N/A -   """
[...]
23.91,881.3534,0.03997134, NaN, NaN, NaN,0.0445584," ""- N/A -   """
23.93,882.181,0.0400047, NaN, NaN, NaN,0.0445584," ""- N/A -   """
23.95,883.0094,0.04003799, NaN, NaN, NaN,0.0433376," ""- N/A -   """
23.97,884.074,0.0400741, NaN, NaN, NaN,0.04211683," ""- N/A -   """
23.99,885.1384,0.04011296, NaN, NaN, NaN,0.0396753," ""- N/A -   """
24.01,885.9664,0.04014905, NaN, NaN, NaN,0.0396753," ""- N/A -   """
24.03,886.7943,0.04018515, NaN, NaN, NaN,0.0372337," ""- N/A -   """
24.05,887.8589,0.0402212, NaN, NaN, NaN,0.03601294," ""- N/A -   """
24.07,888.8051,0.0402629, NaN, NaN, NaN,0.0335714," ""- N/A -   """
24.09,889.9879,0.0403018, NaN, NaN, NaN,0.0299091," ""- N/A -   """
24.11,890.9342,0.04034065, NaN, NaN, NaN,0.0286883," ""- N/A -   """
24.13,891.88,0.04037675, NaN, NaN, NaN,0.0274675," ""- N/A -   """
24.15,892.5901,0.0404073, NaN, NaN, NaN,0.0274675," ""- N/A -   """
24.17,893.4181,0.0404378, NaN, NaN, NaN,0.0286883," ""- N/A -   """
24.19,894.3643,0.04047393, NaN, NaN, NaN,0.0286883," ""- N/A -   """
24.21,895.074,0.0405045, NaN, NaN, NaN,0.0299091," ""- N/A -   """
24.23,895.902,0.0405378, NaN, NaN, NaN,0.0299091," ""- N/A -   """
24.25,896.612,0.0405683, NaN, NaN, NaN,0.03112983," ""- N/A -   """
24.27,897.558,0.04059889, NaN, NaN, NaN,0.0323506," ""- N/A -   """
24.29,898.268,0.0406294, NaN, NaN, NaN,0.0323506," ""- N/A -   """
24.31,898.9773,0.04066, NaN, NaN, NaN,0.0347922," ""- N/A -   """
24.33,899.9235,0.0406933, NaN, NaN, NaN,0.0347922," ""- N/A -   """
24.35,900.751,0.04072384, NaN, NaN, NaN,0.0347922," ""- N/A -   """
24.37,901.579,0.04075716, NaN, NaN, NaN,0.0347922," ""- N/A -   """
24.39,902.2891,0.04079048, NaN, NaN, NaN,0.03601294," ""- N/A -   """
24.41,903.235,0.04082381, NaN, NaN, NaN,0.0347922," ""- N/A -   """
24.43,904.063,0.0408571, NaN, NaN, NaN,0.0347922," ""- N/A -   """
24.45,904.8913,0.0408877, NaN, NaN, NaN,0.03601294," ""- N/A -   """
24.47,905.483,0.0409182, NaN, NaN, NaN,0.0372337," ""- N/A -   """
24.49,906.3107,0.04094876, NaN, NaN, NaN,0.0396753," ""- N/A -   """
24.51,907.1387,0.0409793, NaN, NaN, NaN,0.0396753," ""- N/A -   """
24.53,907.9666,0.0410098, NaN, NaN, NaN,0.04211683," ""- N/A -   """
24.55,908.676,0.04103761, NaN, NaN, NaN,0.0433376," ""- N/A -   """
24.57,909.2677,0.0410682, NaN, NaN, NaN,0.0445584," ""- N/A -   """
24.59,910.096,0.0410987, NaN, NaN, NaN,0.04699994," ""- N/A -   """
24.61,910.9236,0.041132, NaN, NaN, NaN,0.04699994," ""- N/A -   """
24.63,911.752,0.04116257, NaN, NaN, NaN,0.04699994," ""- N/A -   """
24.65,912.8161,0.0412014, NaN, NaN, NaN,0.0445584," ""- N/A -   """
24.67,913.8807,0.04124032, NaN, NaN, NaN,0.04211683," ""- N/A -   """
24.69,914.9452,0.041282, NaN, NaN, NaN,0.0384545," ""- N/A -   """
24.71,916.0097,0.0413236, NaN, NaN, NaN,0.03601294," ""- N/A -   """
24.73,917.0743,0.0413625, NaN, NaN, NaN,0.0335714," ""- N/A -   """
24.75,918.02,0.0413958, NaN, NaN, NaN,0.0323506," ""- N/A -   """
24.77,918.848,0.04143191, NaN, NaN, NaN,0.0323506," ""- N/A -   """
24.79,919.676,0.0414625, NaN, NaN, NaN,0.0323506," ""- N/A -   """
24.81,920.3861,0.0414958, NaN, NaN, NaN,0.0323506," ""- N/A -   """
24.83,921.214,0.04152355, NaN, NaN, NaN,0.0347922," ""- N/A -   """
24.85,922.042,0.0415596, NaN, NaN, NaN,0.0335714," ""- N/A -   """
24.87,922.87,0.041593, NaN, NaN, NaN,0.0347922," ""- N/A -   """
24.89,923.58,0.04162351, NaN, NaN, NaN,0.0347922," ""- N/A -   """
24.91,924.526,0.04165683, NaN, NaN, NaN,0.0347922," ""- N/A -   """
24.93,925.3539,0.0416902, NaN, NaN, NaN,0.0347922," ""- N/A -   """
24.95,926.1818,0.04172347, NaN, NaN, NaN,0.0347922," ""- N/A -   """
24.97,927.1281,0.04175957, NaN, NaN, NaN,0.0347922," ""- N/A -   """
24.99,928.074,0.0417957, NaN, NaN, NaN,0.0335714," ""- N/A -   """
25.01,928.9023,0.0418318, NaN, NaN, NaN,0.0323506," ""- N/A -   """
25.03,929.7303,0.04186231, NaN, NaN, NaN,0.0323506," ""- N/A -   """
25.05,930.44,0.0418956, NaN, NaN, NaN,0.0335714," ""- N/A -   """
25.07,931.15,0.0419234, NaN, NaN, NaN,0.0347922," ""- N/A -   """
25.09,932.096,0.0419567, NaN, NaN, NaN,0.03601294," ""- N/A -   """
25.11,932.8056,0.0419873, NaN, NaN, NaN,0.0372337," ""- N/A -   """
25.13,933.515,0.0420123, NaN, NaN, NaN,0.0396753," ""- N/A -   """
25.15,934.1066,0.04204002, NaN, NaN, NaN,0.04211683," ""- N/A -   """
25.17,934.8164,0.0420678, NaN, NaN, NaN,0.0445584," ""- N/A -   """
25.19,935.644,0.0421011, NaN, NaN, NaN,0.04577916," ""- N/A -   """
25.21,936.5906,0.0421344, NaN, NaN, NaN,0.0445584," ""- N/A -   """
25.23,937.537,0.04217331, NaN, NaN, NaN,0.0433376," ""- N/A -   """
25.25,938.6014,0.04220941, NaN, NaN, NaN,0.04211683," ""- N/A -   """
25.27,939.311,0.04224273, NaN, NaN, NaN,0.04211683," ""- N/A -   """
25.29,940.2573,0.04227605, NaN, NaN, NaN,0.04089605," ""- N/A -   """
25.31,941.085,0.04231215, NaN, NaN, NaN,0.04089605," ""- N/A -   """
25.33,942.1498,0.0423482, NaN, NaN, NaN,0.0384545," ""- N/A -   """
25.35,943.096,0.0423843, NaN, NaN, NaN,0.0372337," ""- N/A -   """
25.37,944.042,0.04242322, NaN, NaN, NaN,0.03601294," ""- N/A -   """
25.39,944.8702,0.0424538, NaN, NaN, NaN,0.03601294," ""- N/A -   """
25.41,945.698,0.0424871, NaN, NaN, NaN,0.0372337," ""- N/A -   """
25.43,946.6445,0.0425204, NaN, NaN, NaN,0.03601294," ""- N/A -   """
25.45,947.591,0.0425537, NaN, NaN, NaN,0.03601294," ""- N/A -   """
25.47,948.3004,0.04258982, NaN, NaN, NaN,0.0347922," ""- N/A -   """
25.49,949.247,0.04262592, NaN, NaN, NaN,0.0335714," ""- N/A -   """
25.51,950.0746,0.04265924, NaN, NaN, NaN,0.0335714," ""- N/A -   """
25.53,951.139,0.04269534, NaN, NaN, NaN,0.0323506," ""- N/A -   """
25.55,952.0853,0.0427314, NaN, NaN, NaN,0.0323506," ""- N/A -   """
25.57,952.913,0.042762, NaN, NaN, NaN,0.0323506," ""- N/A -   """
25.59,953.741,0.0427953, NaN, NaN, NaN,0.0323506," ""- N/A -   """
25.61,954.451,0.0428314, NaN, NaN, NaN,0.0323506," ""- N/A -   """
25.63,955.3972,0.0428619, NaN, NaN, NaN,0.0323506," ""- N/A -   """
25.65,956.2252,0.042898, NaN, NaN, NaN,0.03112983," ""- N/A -   """
25.67,957.171,0.04293136, NaN, NaN, NaN,0.03112983," ""- N/A -   """
25.69,957.9994,0.04296468, NaN, NaN, NaN,0.03112983," ""- N/A -   """
25.71,958.7091,0.042998, NaN, NaN, NaN,0.03112983," ""- N/A -   """
25.73,959.655,0.04302854, NaN, NaN, NaN,0.0323506," ""- N/A -   """
25.75,960.365,0.0430591, NaN, NaN, NaN,0.0335714," ""- N/A -   """
25.77,961.3113,0.0430952, NaN, NaN, NaN,0.0323506," ""- N/A -   """
25.79,962.3758,0.0431341, NaN, NaN, NaN,0.03112983," ""- N/A -   """
25.81,963.204,0.04316461, NaN, NaN, NaN,0.0323506," ""- N/A -   """
25.83,963.913,0.0431952, NaN, NaN, NaN,0.0323506," ""- N/A -   """
25.85,964.7414,0.0432257, NaN, NaN, NaN,0.0347922," ""- N/A -   """
25.87,965.4511,0.04325624, NaN, NaN, NaN,0.03601294," ""- N/A -   """
25.89,966.1608,0.04328678, NaN, NaN, NaN,0.0372337," ""- N/A -   """
25.91,966.8705,0.04331455, NaN, NaN, NaN,0.0384545," ""- N/A -   """
25.93,967.58,0.0433451, NaN, NaN, NaN,0.04089605," ""- N/A -   """
25.95,968.4081,0.0433729, NaN, NaN, NaN,0.04211683," ""- N/A -   """
25.97,968.9996,0.04340063, NaN, NaN, NaN,0.0445584," ""- N/A -   """
25.99,969.7092,0.0434312, NaN, NaN, NaN,0.04577916," ""- N/A -   """
26.01,970.5372,0.04345894, NaN, NaN, NaN,0.0482207," ""- N/A -   """
26.03,971.3652,0.043495, NaN, NaN, NaN,0.04699994," ""- N/A -   """
26.05,972.4297,0.0435311, NaN, NaN, NaN,0.04577916," ""- N/A -   """
26.07,973.4942,0.04357001, NaN, NaN, NaN,0.0445584," ""- N/A -   """
26.09,974.5587,0.0436089, NaN, NaN, NaN,0.04089605," ""- N/A -   """
26.11,975.6232,0.04365054, NaN, NaN, NaN,0.0396753," ""- N/A -   """
26.13,976.5695,0.0436894, NaN, NaN, NaN,0.0372337," ""- N/A -   """
26.15,977.516,0.0437255, NaN, NaN, NaN,0.03601294," ""- N/A -   """
26.17,978.462,0.0437588, NaN, NaN, NaN,0.0347922," ""- N/A -   """
26.19,979.29,0.0437922, NaN, NaN, NaN,0.0347922," ""- N/A -   """
26.21,980.2362,0.0438283, NaN, NaN, NaN,0.0335714," ""- N/A -   """
26.23,981.064,0.04386435, NaN, NaN, NaN,0.0335714," ""- N/A -   """
26.25,981.892,0.0438949, NaN, NaN, NaN,0.0335714," ""- N/A -   """
26.27,982.7201,0.0439282, NaN, NaN, NaN,0.0335714," ""- N/A -   """
26.29,983.43,0.0439615, NaN, NaN, NaN,0.0347922," ""- N/A -   """
26.31,984.4943,0.04399763, NaN, NaN, NaN,0.0335714," ""- N/A -   """
26.33,985.559,0.04403373, NaN, NaN, NaN,0.03112983," ""- N/A -   """
26.35,986.505,0.0440698, NaN, NaN, NaN,0.0299091," ""- N/A -   """
26.37,987.333,0.0441059, NaN, NaN, NaN,0.0286883," ""- N/A -   """
26.39,988.3976,0.0441392, NaN, NaN, NaN,0.0286883," ""- N/A -   """
26.41,989.107,0.0441726, NaN, NaN, NaN,0.0299091," ""- N/A -   """
26.43,989.817,0.0442003, NaN, NaN, NaN,0.03112983," ""- N/A -   """
26.45,990.5267,0.0442309, NaN, NaN, NaN,0.0323506," ""- N/A -   """
26.47,991.2363,0.04425865, NaN, NaN, NaN,0.0347922," ""- N/A -   """
26.49,992.064,0.0442892, NaN, NaN, NaN,0.03601294," ""- N/A -   """
26.51,992.774,0.0443197, NaN, NaN, NaN,0.0372337," ""- N/A -   """
26.53,993.6019,0.0443475, NaN, NaN, NaN,0.0396753," ""- N/A -   """
26.55,994.1933,0.0443753, NaN, NaN, NaN,0.04211683," ""- N/A -   """
26.57,994.9031,0.0444058, NaN, NaN, NaN,0.0433376," ""- N/A -   """
26.59,995.731,0.04443636, NaN, NaN, NaN,0.0445584," ""- N/A -   """
26.61,996.4407,0.0444669, NaN, NaN, NaN,0.04577916," ""- N/A -   """
26.63,997.1503,0.04449745, NaN, NaN, NaN,0.04699994," ""- N/A -   """
26.65,997.978,0.04452799, NaN, NaN, NaN,0.0482207," ""- N/A -   """
26.67,998.925,0.04456131, NaN, NaN, NaN,0.0482207," ""- N/A -   """
26.69,999.7525,0.04459741, NaN, NaN, NaN,0.04699994," ""- N/A -   """
26.71,1000.94,0.0446391, NaN, NaN, NaN,0.0445584," ""- N/A -   """
26.73,1002,0.0446779, NaN, NaN, NaN,0.04089605," ""- N/A -   """
26.75,1003.18,0.0447168, NaN, NaN, NaN,0.0384545," ""- N/A -   """
26.77,1004.01,0.04475291, NaN, NaN, NaN,0.0372337," ""- N/A -   """
26.79,1004.96,0.04478901, NaN, NaN, NaN,0.0372337," ""- N/A -   """
26.81,1005.9,0.0448251, NaN, NaN, NaN,0.03601294," ""- N/A -   """
26.83,1006.73,0.0448612, NaN, NaN, NaN,0.0347922," ""- N/A -   """
26.85,1007.8,0.0448945, NaN, NaN, NaN,0.0335714," ""- N/A -   """
26.87,1008.62,0.0449278, NaN, NaN, NaN,0.0335714," ""- N/A -   """
26.89,1009.57,0.04496394, NaN, NaN, NaN,0.0323506," ""- N/A -   """
26.91,1010.52,0.0450028, NaN, NaN, NaN,0.03112983," ""- N/A -   """
26.93,1011.46,0.0450389, NaN, NaN, NaN,0.0286883," ""- N/A -   """
26.95,1012.41,0.0450722, NaN, NaN, NaN,0.0286883," ""- N/A -   """
26.97,1013.12,0.0451056, NaN, NaN, NaN,0.0286883," ""- N/A -   """
26.99,1014.07,0.0451389, NaN, NaN, NaN,0.0286883," ""- N/A -   """
27.01,1014.908,0.0451722, NaN, NaN, NaN,0.0299091," ""- N/A -   """
27.03,1015.74,0.04520274, NaN, NaN, NaN,0.0299091," ""- N/A -   """
27.05,1016.58,0.0452361, NaN, NaN, NaN,0.0299091," ""- N/A -   """
27.07,1017.53,0.04527216, NaN, NaN, NaN,0.0286883," ""- N/A -   """
27.09,1018.25,0.04530548, NaN, NaN, NaN,0.0299091," ""- N/A -   """
27.11,1019.2,0.04533603, NaN, NaN, NaN,0.0299091," ""- N/A -   """
27.13,1020.04,0.0453694, NaN, NaN, NaN,0.03112983," ""- N/A -   """
27.15,1020.75,0.0453971, NaN, NaN, NaN,0.0323506," ""- N/A -   """
27.17,1021.47,0.0454249, NaN, NaN, NaN,0.0347922," ""- N/A -   """
27.19,1022.18,0.04545265, NaN, NaN, NaN,0.0372337," ""- N/A -   """
27.21,1022.9,0.0454804, NaN, NaN, NaN,0.0396753," ""- N/A -   """
27.23,1023.49,0.0455082, NaN, NaN, NaN,0.0433376," ""- N/A -   """
27.25,1024.329,0.045536, NaN, NaN, NaN,0.0445584," ""- N/A -   """
27.27,1025.16,0.0455693, NaN, NaN, NaN,0.0445584," ""- N/A -   """
27.29,1026,0.0456026, NaN, NaN, NaN,0.04577916," ""- N/A -   """
27.31,1026.83,0.0456331, NaN, NaN, NaN,0.04577916," ""- N/A -   """
27.33,1027.55,0.04566368, NaN, NaN, NaN,0.04699994," ""- N/A -   """
27.35,1028.38,0.0456942, NaN, NaN, NaN,0.0482207," ""- N/A -   """
27.37,1029.22,0.0457248, NaN, NaN, NaN,0.05066227," ""- N/A -   """
27.39,1029.93,0.0457581, NaN, NaN, NaN,0.0494415," ""- N/A -   """
27.41,1031.01,0.0457942, NaN, NaN, NaN,0.0482207," ""- N/A -   """
27.43,1031.961,0.0458303, NaN, NaN, NaN,0.0482207," ""- N/A -   """
27.45,1032.92,0.0458664, NaN, NaN, NaN,0.04577916," ""- N/A -   """
27.47,1033.99,0.0459053, NaN, NaN, NaN,0.0433376," ""- N/A -   """
27.49,1035.06,0.04594691, NaN, NaN, NaN,0.0396753," ""- N/A -   """
27.51,1036.13,0.0459858, NaN, NaN, NaN,0.0372337," ""- N/A -   """
27.53,1037.33,0.04602466, NaN, NaN, NaN,0.0347922," ""- N/A -   """
27.55,1038.28,0.0460635, NaN, NaN, NaN,0.0323506," ""- N/A -   """
27.57,1039.35,0.0461024, NaN, NaN, NaN,0.0299091," ""- N/A -   """
27.59,1040.19,0.04613851, NaN, NaN, NaN,0.0286883," ""- N/A -   """
27.61,1041.14,0.04617461, NaN, NaN, NaN,0.0274675," ""- N/A -   """
27.63,1042.1,0.0462079, NaN, NaN, NaN,0.0286883," ""- N/A -   """
27.65,1042.813,0.04623847, NaN, NaN, NaN,0.0299091," ""- N/A -   """
27.67,1043.53,0.046269, NaN, NaN, NaN,0.0299091," ""- N/A -   """
27.69,1044.244,0.0462968, NaN, NaN, NaN,0.0323506," ""- N/A -   """
27.71,1045.198,0.04633011, NaN, NaN, NaN,0.0323506," ""- N/A -   """
27.73,1046.03,0.0463607, NaN, NaN, NaN,0.0335714," ""- N/A -   """
27.75,1046.87,0.046394, NaN, NaN, NaN,0.0335714," ""- N/A -   """
27.77,1047.82,0.04642729, NaN, NaN, NaN,0.0335714," ""- N/A -   """
27.79,1048.66,0.0464578, NaN, NaN, NaN,0.0347922," ""- N/A -   """
27.81,1049.37,0.0464912, NaN, NaN, NaN,0.0347922," ""- N/A -   """
27.83,1050.33,0.0465245, NaN, NaN, NaN,0.0347922," ""- N/A -   """
27.85,1051.28,0.0465606, NaN, NaN, NaN,0.0335714," ""- N/A -   """
27.87,1052,0.0465911, NaN, NaN, NaN,0.0347922," ""- N/A -   """
27.89,1052.71,0.04662166, NaN, NaN, NaN,0.03601294," ""- N/A -   """
27.91,1053.43,0.04664666, NaN, NaN, NaN,0.0396753," ""- N/A -   """
27.93,1054.142,0.0466744, NaN, NaN, NaN,0.04211683," ""- N/A -   """
27.95,1054.74,0.0467022, NaN, NaN, NaN,0.0445584," ""- N/A -   """
27.97,1055.69,0.04673551, NaN, NaN, NaN,0.04577916," ""- N/A -   """
27.99,1056.41,0.04676605, NaN, NaN, NaN,0.04699994," ""- N/A -   """
28.01,1057.24,0.0467966, NaN, NaN, NaN,0.04699994," ""- N/A -   """
28.03,1058.2,0.0468299, NaN, NaN, NaN,0.0482207," ""- N/A -   """
28.05,1059.15,0.046866, NaN, NaN, NaN,0.04577916," ""- N/A -   """
28.07,1060.22,0.0469049, NaN, NaN, NaN,0.0433376," ""- N/A -   """
28.09,1061.18,0.04694654, NaN, NaN, NaN,0.0396753," ""- N/A -   """
28.11,1062.25,0.0469882, NaN, NaN, NaN,0.0372337," ""- N/A -   """
28.13,1063.44,0.04702707, NaN, NaN, NaN,0.0347922," ""- N/A -   """
28.15,1064.4,0.04706317, NaN, NaN, NaN,0.0323506," ""- N/A -   """
28.17,1065.471,0.04710204, NaN, NaN, NaN,0.0299091," ""- N/A -   """
28.19,1066.42,0.04713814, NaN, NaN, NaN,0.0286883," ""- N/A -   """
28.21,1067.26,0.0471715, NaN, NaN, NaN,0.0286883," ""- N/A -   """
28.23,1067.98,0.04720478, NaN, NaN, NaN,0.0299091," ""- N/A -   """
28.25,1068.93,0.0472353, NaN, NaN, NaN,0.03112983," ""- N/A -   """
28.27,1069.64,0.04726587, NaN, NaN, NaN,0.0323506," ""- N/A -   """
28.29,1070.36,0.0472964, NaN, NaN, NaN,0.0335714," ""- N/A -   """
28.31,1071.195,0.047327, NaN, NaN, NaN,0.0335714," ""- N/A -   """
28.33,1071.91,0.0473575, NaN, NaN, NaN,0.0347922," ""- N/A -   """
28.35,1072.98,0.0473936, NaN, NaN, NaN,0.0347922," ""- N/A -   """
28.37,1073.94,0.0474269, NaN, NaN, NaN,0.0335714," ""- N/A -   """
28.39,1074.77,0.047463, NaN, NaN, NaN,0.0323506," ""- N/A -   """
28.41,1075.73,0.04749634, NaN, NaN, NaN,0.0323506," ""- N/A -   """
28.43,1076.68,0.0475297, NaN, NaN, NaN,0.0323506," ""- N/A -   """
28.45,1077.396,0.0475602, NaN, NaN, NaN,0.0335714," ""- N/A -   """
28.47,1078.11,0.0475907, NaN, NaN, NaN,0.0347922," ""- N/A -   """
28.49,1078.95,0.04762407, NaN, NaN, NaN,0.0347922," ""- N/A -   """
28.51,1079.9,0.0476546, NaN, NaN, NaN,0.03601294," ""- N/A -   """
28.53,1080.62,0.0476879, NaN, NaN, NaN,0.03601294," ""- N/A -   """
28.55,1081.45,0.0477185, NaN, NaN, NaN,0.0372337," ""- N/A -   """
28.57,1082.17,0.0477463, NaN, NaN, NaN,0.0396753," ""- N/A -   """
28.59,1082.76,0.0477768, NaN, NaN, NaN,0.04211683," ""- N/A -   """
28.61,1083.72,0.0478101, NaN, NaN, NaN,0.04211683," ""- N/A -   """
28.63,1084.67,0.0478462, NaN, NaN, NaN,0.04089605," ""- N/A -   """
28.65,1085.74,0.0478795, NaN, NaN, NaN,0.0396753," ""- N/A -   """
28.67,1086.58,0.0479129, NaN, NaN, NaN,0.0396753," ""- N/A -   """
28.69,1087.41,0.0479462, NaN, NaN, NaN,0.0396753," ""- N/A -   """
28.71,1088.25,0.0479795, NaN, NaN, NaN,0.04089605," ""- N/A -   """
28.73,1088.96,0.04801, NaN, NaN, NaN,0.04089605," ""- N/A -   """
28.75,1089.8,0.04804336, NaN, NaN, NaN,0.04089605," ""- N/A -   """
28.77,1090.75,0.0480795, NaN, NaN, NaN,0.04089605," ""- N/A -   """
28.79,1091.83,0.04811555, NaN, NaN, NaN,0.0384545," ""- N/A -   """
28.81,1092.66,0.0481489, NaN, NaN, NaN,0.0384545," ""- N/A -   """
28.83,1093.61,0.048185, NaN, NaN, NaN,0.0384545," ""- N/A -   """
28.85,1094.57,0.04821829, NaN, NaN, NaN,0.0372337," ""- N/A -   """
28.87,1095.4,0.04825162, NaN, NaN, NaN,0.0372337," ""- N/A -   """
28.89,1096.36,0.04828494, NaN, NaN, NaN,0.0372337," ""- N/A -   """
28.91,1097.19,0.0483238, NaN, NaN, NaN,0.03601294," ""- N/A -   """
28.93,1098.03,0.04835436, NaN, NaN, NaN,0.03601294," ""- N/A -   """
28.95,1098.86,0.04838768, NaN, NaN, NaN,0.03601294," ""- N/A -   """
28.97,1099.82,0.048421, NaN, NaN, NaN,0.03601294," ""- N/A -   """
28.99,1100.77,0.0484571, NaN, NaN, NaN,0.0347922," ""- N/A -   """
29.01,1101.485,0.04849042, NaN, NaN, NaN,0.03601294," ""- N/A -   """
29.03,1102.439,0.04852374, NaN, NaN, NaN,0.03601294," ""- N/A -   """
29.05,1103.393,0.04855706, NaN, NaN, NaN,0.0347922," ""- N/A -   """
29.07,1104.347,0.04859316, NaN, NaN, NaN,0.0335714," ""- N/A -   """
29.09,1105.18,0.048632, NaN, NaN, NaN,0.0323506," ""- N/A -   """
29.11,1106.02,0.0486626, NaN, NaN, NaN,0.0323506," ""- N/A -   """
29.13,1106.85,0.0486959, NaN, NaN, NaN,0.0335714," ""- N/A -   """
29.15,1107.92,0.048732, NaN, NaN, NaN,0.0323506," ""- N/A -   """
29.17,1108.64,0.0487653, NaN, NaN, NaN,0.03112983," ""- N/A -   """
29.19,1109.47,0.0487986, NaN, NaN, NaN,0.03112983," ""- N/A -   """
29.21,1110.31,0.04883196, NaN, NaN, NaN,0.03112983," ""- N/A -   """
29.23,1111.14,0.0488625, NaN, NaN, NaN,0.0323506," ""- N/A -   """
29.25,1111.98,0.048893, NaN, NaN, NaN,0.0335714," ""- N/A -   """
29.27,1112.58,0.04891804, NaN, NaN, NaN,0.0372337," ""- N/A -   """
29.29,1113.29,0.0489486, NaN, NaN, NaN,0.0384545," ""- N/A -   """
29.31,1114.245,0.0489791, NaN, NaN, NaN,0.04089605," ""- N/A -   """
29.33,1114.96,0.04900689, NaN, NaN, NaN,0.04211683," ""- N/A -   """
29.35,1115.8,0.0490402, NaN, NaN, NaN,0.04211683," ""- N/A -   """
29.37,1116.51,0.0490708, NaN, NaN, NaN,0.0433376," ""- N/A -   """
29.39,1117.35,0.0491013, NaN, NaN, NaN,0.0445584," ""- N/A -   """
29.41,1118.18,0.0491346, NaN, NaN, NaN,0.0445584," ""- N/A -   """
29.43,1119.25,0.0491679, NaN, NaN, NaN,0.0445584," ""- N/A -   """
29.45,1119.969,0.049204, NaN, NaN, NaN,0.0445584," ""- N/A -   """
29.47,1121.04,0.0492374, NaN, NaN, NaN,0.0433376," ""- N/A -   """
29.49,1122.12,0.04927902, NaN, NaN, NaN,0.0396753," ""- N/A -   """
29.51,1123.19,0.0493207, NaN, NaN, NaN,0.0372337," ""- N/A -   """
29.53,1124.26,0.0493595, NaN, NaN, NaN,0.0335714," ""- N/A -   """
29.55,1125.22,0.0493984, NaN, NaN, NaN,0.03112983," ""- N/A -   """
29.57,1126.05,0.0494317, NaN, NaN, NaN,0.03112983," ""- N/A -   """
29.59,1126.89,0.0494623, NaN, NaN, NaN,0.0323506," ""- N/A -   """
29.61,1127.72,0.0494956, NaN, NaN, NaN,0.0323506," ""- N/A -   """
29.63,1128.56,0.0495289, NaN, NaN, NaN,0.0335714," ""- N/A -   """
29.65,1129.39,0.04955947, NaN, NaN, NaN,0.0335714," ""- N/A -   """
29.67,1130.22,0.04959279, NaN, NaN, NaN,0.0335714," ""- N/A -   """
29.69,1131.18,0.0496289, NaN, NaN, NaN,0.0335714," ""- N/A -   """
29.71,1132.01,0.049665, NaN, NaN, NaN,0.03112983," ""- N/A -   """
29.73,1132.97,0.0497011, NaN, NaN, NaN,0.0299091," ""- N/A -   """
29.75,1133.92,0.0497344, NaN, NaN, NaN,0.0299091," ""- N/A -   """
29.77,1134.88,0.0497677, NaN, NaN, NaN,0.0299091," ""- N/A -   """
29.774,1134.99,0.04977606, NaN, NaN, NaN,0.0299091," ""- N/A -   """