File: 2_Tensile_Data/Hamel_ForceTest_Bolt7_Test5.csv
Time, Load (lb), Position (in), AxialStrain (in), TransverseStrain (in), Auxiliary (), Control Out (V), Stress (psi)
0.0, 1.17947, 0.0, NaN, NaN, NaN, 0.09094793, "- N/A -   "
0.01, 1.76921, 2.49908e-05, NaN, NaN, NaN, 0.09949338, "- N/A -   "
0.02, 2.476897, 5.27583e-05, NaN, NaN, NaN, 0.106818, "- N/A -   "
0.03, 3.30253, 8.33026e-05, NaN, NaN, NaN, 0.114143, "- N/A -   "
0.04, 4.010214, 0.000116624, NaN, NaN, NaN, 0.106818, "- N/A -   "
0.05, 4.83585, 0.000147168, NaN, NaN, NaN, 0.09949338, "- N/A -   "
0.06, 5.66148, 0.000183266, NaN, NaN, NaN, 0.09094793, "- N/A -   "
0.07, 6.369163, 0.000216587, NaN, NaN, NaN, 0.084844, "- N/A -   "
0.08, 7.07685, 2.471309E-4, NaN, NaN, NaN, 0.07874016, "- N/A -   "
0.09, 7.666586, 0.000274898, NaN, NaN, NaN, 0.07263627, "- N/A -   "
0.1, 8.37427, 0.000302666, NaN, NaN, NaN, 0.0689739, "- N/A -   "
0.11, 8.964007, 0.000327657, NaN, NaN, NaN, 0.0653116, "- N/A -   "
0.12, 9.553744, 0.000349871, NaN, NaN, NaN, 0.06164927, "- N/A -   "
0.13, 10.0255, 0.000377638, NaN, NaN, NaN, 0.0579869, "- N/A -   "
0.14, 10.6153, 0.000399852, NaN, NaN, NaN, 0.0555454, "- N/A -   "
0.15, 11.0871, 4.192895E-4, NaN, NaN, NaN, 0.0531038, "- N/A -   "
0.16, 11.6768, 0.000441504, NaN, NaN, NaN, 0.05188305, "- N/A -   "
0.17, 11.9127, 0.000458164, NaN, NaN, NaN, 0.05066227, "- N/A -   "
0.18, 12.2665, 0.000474825, NaN, NaN, NaN, 0.05066227, "- N/A -   "
0.19, 12.8563, 4.970386E-4, NaN, NaN, NaN, 0.0494415, "- N/A -   "
0.2, 13.2101, 5.192526E-4, NaN, NaN, NaN, 0.04699994, "- N/A -   "
0.21, 13.6819, 5.359131E-4, NaN, NaN, NaN, 0.04577916, "- N/A -   "
0.22, 14.2716, 5.581271E-4, NaN, NaN, NaN, 0.0433376, "- N/A -   "
0.23, 14.7434, 0.000580341, NaN, NaN, NaN, 0.04089605, "- N/A -   "
0.24, 15.2152, 0.000602555, NaN, NaN, NaN, 0.0396753, "- N/A -   "
0.25, 15.687, 6.219924E-4, NaN, NaN, NaN, 0.0372337, "- N/A -   "
0.26, 16.1588, 6.442064E-4, NaN, NaN, NaN, 0.03601294, "- N/A -   "
0.27, 16.6306, 6.636437E-4, NaN, NaN, NaN, 0.0335714, "- N/A -   "
0.28, 16.86649, 6.803042E-4, NaN, NaN, NaN, 0.0335714, "- N/A -   "
0.29, 17.3383, 6.997415E-4, NaN, NaN, NaN, 0.0323506, "- N/A -   "
0.3, 17.6921, 0.000716402, NaN, NaN, NaN, 0.0323506, "- N/A -   "
0.31, 18.046, 0.000733062, NaN, NaN, NaN, 0.0323506, "- N/A -   "
0.32, 18.5178, 7.49723E-4, NaN, NaN, NaN, 0.0335714, "- N/A -   "
0.33, 18.8716, 7.663835E-4, NaN, NaN, NaN, 0.0335714, "- N/A -   "
0.34, 19.1075, 0.000780267, NaN, NaN, NaN, 0.0335714, "- N/A -   "
0.35, 19.4613, 0.000794151, NaN, NaN, NaN, 0.0347922, "- N/A -   "
0.36, 19.6972, 8.080348E-4, NaN, NaN, NaN, 0.03601294, "- N/A -   "
0.37, 20.05107, 0.000821919, NaN, NaN, NaN, 0.0372337, "- N/A -   "
0.38, 20.4049, 8.358023E-4, NaN, NaN, NaN, 0.0384545, "- N/A -   "
0.39, 20.6408, 0.000849686, NaN, NaN, NaN, 0.0396753, "- N/A -   "
0.4, 20.99465, 8.635698E-4, NaN, NaN, NaN, 0.04089605, "- N/A -   "
0.41, 21.3485, 0.00088023, NaN, NaN, NaN, 0.04089605, "- N/A -   "
0.42, 21.7023, 8.968908E-4, NaN, NaN, NaN, 0.04089605, "- N/A -   "
0.43, 21.93823, 9.107746E-4, NaN, NaN, NaN, 0.04211683, "- N/A -   "
0.44, 22.41, 9.246584E-4, NaN, NaN, NaN, 0.0433376, "- N/A -   "
0.45, 22.7639, 9.385421E-4, NaN, NaN, NaN, 0.0445584, "- N/A -   "
0.47, 23.2357, 0.000969086, NaN, NaN, NaN, 0.04577916, "- N/A -   "
0.49, 24.1792, 0.00100241, NaN, NaN, NaN, 0.04577916, "- N/A -   "
0.51, 24.769, 0.00103573, NaN, NaN, NaN, 0.04577916, "- N/A -   "
0.53, 25.5946, 0.00106627, NaN, NaN, NaN, 0.04699994, "- N/A -   "
0.55, 26.3023, 0.00110237, NaN, NaN, NaN, 0.04699994, "- N/A -   "
0.57, 27.2459, 0.001141245, NaN, NaN, NaN, 0.0445584, "- N/A -   "
0.59, 28.0715, 0.00118012, NaN, NaN, NaN, 0.04211683, "- N/A -   "
0.61, 28.89713, 0.00121622, NaN, NaN, NaN, 0.0396753, "- N/A -   "
0.63, 29.84071, 0.00125232, NaN, NaN, NaN, 0.0384545, "- N/A -   "
0.65, 30.5484, 0.00128841, NaN, NaN, NaN, 0.0384545, "- N/A -   "
0.67, 31.374, 0.00132173, NaN, NaN, NaN, 0.0372337, "- N/A -   "
0.69, 32.08171, 0.00135783, NaN, NaN, NaN, 0.03601294, "- N/A -   "
0.71, 32.7894, 0.00139115, NaN, NaN, NaN, 0.03601294, "- N/A -   "
0.73, 33.61503, 0.00142447, NaN, NaN, NaN, 0.03601294, "- N/A -   "
0.75, 34.4407, 0.00145779, NaN, NaN, NaN, 0.03601294, "- N/A -   "
0.77, 35.1483, 0.00149389, NaN, NaN, NaN, 0.0347922, "- N/A -   "
0.79, 36.2099, 0.001532767, NaN, NaN, NaN, 0.0323506, "- N/A -   "
0.81, 37.0355, 0.00157164, NaN, NaN, NaN, 0.03112983, "- N/A -   "
0.83, 37.8611, 0.00160496, NaN, NaN, NaN, 0.0299091, "- N/A -   "
0.85, 38.5688, 0.00163828, NaN, NaN, NaN, 0.0299091, "- N/A -   "
0.87, 39.5124, 0.00167438, NaN, NaN, NaN, 0.0286883, "- N/A -   "
0.89, 40.22009, 0.00171326, NaN, NaN, NaN, 0.0274675, "- N/A -   "
0.91, 41.16367, 0.00174658, NaN, NaN, NaN, 0.0274675, "- N/A -   "
0.93, 41.7534, 0.00177712, NaN, NaN, NaN, 0.0274675, "- N/A -   "
0.95, 42.4611, 0.00180489, NaN, NaN, NaN, 0.0299091, "- N/A -   "
0.97, 43.1688, 0.001835433, NaN, NaN, NaN, 0.03112983, "- N/A -   "
0.99, 43.75851, 0.0018632, NaN, NaN, NaN, 0.0335714, "- N/A -   "
1.01, 44.4662, 0.001890968, NaN, NaN, NaN, 0.0372337, "- N/A -   "
1.03, 45.05593, 0.00191874, NaN, NaN, NaN, 0.0384545, "- N/A -   "
1.05, 45.8816, 0.00194928, NaN, NaN, NaN, 0.0396753, "- N/A -   "
1.07, 46.4713, 0.00197705, NaN, NaN, NaN, 0.04211683, "- N/A -   "
1.09, 47.179, 0.00200759, NaN, NaN, NaN, 0.0433376, "- N/A -   "
1.11, 47.8867, 0.002038136, NaN, NaN, NaN, 0.0445584, "- N/A -   "
1.13, 48.7123, 0.00207146, NaN, NaN, NaN, 0.0445584, "- N/A -   "
1.15, 49.5379, 0.002102001, NaN, NaN, NaN, 0.04577916, "- N/A -   "
1.17, 50.2456, 0.002138099, NaN, NaN, NaN, 0.0445584, "- N/A -   "
1.19, 51.1892, 0.002168643, NaN, NaN, NaN, 0.04577916, "- N/A -   "
1.21, 51.7789, 0.00220196, NaN, NaN, NaN, 0.04577916, "- N/A -   "
1.23, 52.48662, 0.00223251, NaN, NaN, NaN, 0.04699994, "- N/A -   "
1.25, 53.54815, 0.002271383, NaN, NaN, NaN, 0.04577916, "- N/A -   "
1.27, 54.2558, 0.00230748, NaN, NaN, NaN, 0.0433376, "- N/A -   "
1.29, 55.1994, 0.00234358, NaN, NaN, NaN, 0.0433376, "- N/A -   "
1.31, 56.02505, 0.00237968, NaN, NaN, NaN, 0.04089605, "- N/A -   "
1.33, 56.9686, 0.00241577, NaN, NaN, NaN, 0.0396753, "- N/A -   "
1.35, 57.91221, 0.00245465, NaN, NaN, NaN, 0.0372337, "- N/A -   "
1.37, 58.9737, 0.0024963, NaN, NaN, NaN, 0.0335714, "- N/A -   "
1.39, 59.9173, 0.00253795, NaN, NaN, NaN, 0.03112983, "- N/A -   "
1.41, 60.7429, 0.00257405, NaN, NaN, NaN, 0.0286883, "- N/A -   "
1.43, 61.56858, 0.00260737, NaN, NaN, NaN, 0.0286883, "- N/A -   "
1.45, 62.2763, 0.00263791, NaN, NaN, NaN, 0.0299091, "- N/A -   "
1.47, 62.98395, 0.00267124, NaN, NaN, NaN, 0.0299091, "- N/A -   "
1.49, 63.80958, 0.00270178, NaN, NaN, NaN, 0.03112983, "- N/A -   "
1.51, 64.6352, 0.0027351, NaN, NaN, NaN, 0.03112983, "- N/A -   "
1.53, 65.4608, 0.00276287, NaN, NaN, NaN, 0.0335714, "- N/A -   "
1.55, 66.16853, 0.00279341, NaN, NaN, NaN, 0.03601294, "- N/A -   "
1.57, 66.75827, 0.00282118, NaN, NaN, NaN, 0.0372337, "- N/A -   "
1.59, 67.5839, 0.00285728, NaN, NaN, NaN, 0.0372337, "- N/A -   "
1.61, 68.40953, 0.0028906, NaN, NaN, NaN, 0.0372337, "- N/A -   "
1.63, 69.23517, 0.00292392, NaN, NaN, NaN, 0.03601294, "- N/A -   "
1.65, 70.17874, 0.00296002, NaN, NaN, NaN, 0.03601294, "- N/A -   "
1.67, 71.00438, 0.00299334, NaN, NaN, NaN, 0.0347922, "- N/A -   "
1.69, 71.83001, 0.003029436, NaN, NaN, NaN, 0.0347922, "- N/A -   "
1.71, 72.65564, 0.00305998, NaN, NaN, NaN, 0.0347922, "- N/A -   "
1.73, 73.36333, 0.00309052, NaN, NaN, NaN, 0.03601294, "- N/A -   "
1.75, 74.071, 0.00311829, NaN, NaN, NaN, 0.0384545, "- N/A -   "
1.77, 74.66075, 0.00314606, NaN, NaN, NaN, 0.04089605, "- N/A -   "
1.79, 75.48638, 0.0031766, NaN, NaN, NaN, 0.04211683, "- N/A -   "
1.81, 76.07612, 0.00320437, NaN, NaN, NaN, 0.0445584, "- N/A -   "
1.83, 77.0197, 0.00323769, NaN, NaN, NaN, 0.04577916, "- N/A -   "
1.85, 77.84533, 0.003271014, NaN, NaN, NaN, 0.0445584, "- N/A -   "
1.87, 78.55301, 0.003304335, NaN, NaN, NaN, 0.04577916, "- N/A -   "
1.89, 79.37865, 0.00333488, NaN, NaN, NaN, 0.04577916, "- N/A -   "
1.91, 80.20428, 0.003370977, NaN, NaN, NaN, 0.0445584, "- N/A -   "
1.93, 81.38376, 0.003409851, NaN, NaN, NaN, 0.04211683, "- N/A -   "
1.95, 82.32734, 0.0034515, NaN, NaN, NaN, 0.0384545, "- N/A -   "
1.97, 83.38886, 0.003493154, NaN, NaN, NaN, 0.0347922, "- N/A -   "
1.99, 84.33244, 0.00353203, NaN, NaN, NaN, 0.0323506, "- N/A -   "
2.01, 85.15807, 0.00356813, NaN, NaN, NaN, 0.03112983, "- N/A -   "
2.03, 86.1017, 0.00360422, NaN, NaN, NaN, 0.0299091, "- N/A -   "
2.05, 87.04523, 0.00364032, NaN, NaN, NaN, 0.0286883, "- N/A -   "
2.07, 87.75292, 0.00367364, NaN, NaN, NaN, 0.0286883, "- N/A -   "
2.09, 88.4606, 0.00370419, NaN, NaN, NaN, 0.03112983, "- N/A -   "
2.11, 89.28623, 0.00373473, NaN, NaN, NaN, 0.03112983, "- N/A -   "
2.13, 89.99392, 0.00376528, NaN, NaN, NaN, 0.0335714, "- N/A -   "
2.15, 90.70161, 0.00379582, NaN, NaN, NaN, 0.0347922, "- N/A -   "
2.17, 91.40929, 0.00382636, NaN, NaN, NaN, 0.03601294, "- N/A -   "
2.19, 92.23492, 0.00385691, NaN, NaN, NaN, 0.03601294, "- N/A -   "
2.21, 93.0606, 0.00388745, NaN, NaN, NaN, 0.0372337, "- N/A -   "
2.23, 93.8862, 0.00392355, NaN, NaN, NaN, 0.0372337, "- N/A -   "
2.25, 94.8298, 0.00395965, NaN, NaN, NaN, 0.03601294, "- N/A -   "
2.27, 95.7733, 0.003995746, NaN, NaN, NaN, 0.0335714, "- N/A -   "
2.29, 96.599, 0.00403462, NaN, NaN, NaN, 0.0323506, "- N/A -   "
2.31, 97.54256, 0.00407072, NaN, NaN, NaN, 0.03112983, "- N/A -   "
2.33, 98.2502, 0.00410126, NaN, NaN, NaN, 0.03112983, "- N/A -   "
2.35, 98.9579, 0.00413181, NaN, NaN, NaN, 0.0335714, "- N/A -   "
2.37, 99.9015, 0.00416235, NaN, NaN, NaN, 0.0335714, "- N/A -   "
2.39, 100.491, 0.00419012, NaN, NaN, NaN, 0.03601294, "- N/A -   "
2.41, 101.199, 0.004217886, NaN, NaN, NaN, 0.0384545, "- N/A -   "
2.43, 101.789, 0.00424843, NaN, NaN, NaN, 0.0396753, "- N/A -   "
2.45, 102.6143, 0.00427897, NaN, NaN, NaN, 0.04089605, "- N/A -   "
2.47, 103.322, 0.004312296, NaN, NaN, NaN, 0.04211683, "- N/A -   "
2.49, 104.148, 0.00434284, NaN, NaN, NaN, 0.04211683, "- N/A -   "
2.51, 105.091, 0.00437894, NaN, NaN, NaN, 0.04089605, "- N/A -   "
2.53, 105.917, 0.004412259, NaN, NaN, NaN, 0.04089605, "- N/A -   "
2.55, 106.742, 0.00444558, NaN, NaN, NaN, 0.04089605, "- N/A -   "
2.57, 107.568, 0.0044789, NaN, NaN, NaN, 0.04089605, "- N/A -   "
2.59, 108.394, 0.004512222, NaN, NaN, NaN, 0.04089605, "- N/A -   "
2.61, 109.219, 0.004545543, NaN, NaN, NaN, 0.04089605, "- N/A -   "
2.63, 110.163, 0.00457886, NaN, NaN, NaN, 0.04089605, "- N/A -   "
2.65, 110.989, 0.004617738, NaN, NaN, NaN, 0.0384545, "- N/A -   "
2.67, 111.932, 0.004653836, NaN, NaN, NaN, 0.0384545, "- N/A -   "
2.69, 112.64, 0.004687157, NaN, NaN, NaN, 0.0372337, "- N/A -   "
2.71, 113.583, 0.004723255, NaN, NaN, NaN, 0.0372337, "- N/A -   "
2.73, 114.527, 0.004759352, NaN, NaN, NaN, 0.0347922, "- N/A -   "
2.75, 115.235, 0.00479267, NaN, NaN, NaN, 0.03601294, "- N/A -   "
2.77, 116.06, 0.00482599, NaN, NaN, NaN, 0.0347922, "- N/A -   "
2.79, 116.886, 0.004859315, NaN, NaN, NaN, 0.0347922, "- N/A -   "
2.81, 117.83, 0.00489541, NaN, NaN, NaN, 0.0335714, "- N/A -   "
2.83, 118.7731, 0.00493151, NaN, NaN, NaN, 0.0323506, "- N/A -   "
2.85, 119.481, 0.004967609, NaN, NaN, NaN, 0.03112983, "- N/A -   "
2.87, 120.424, 0.00500093, NaN, NaN, NaN, 0.03112983, "- N/A -   "
2.89, 121.014, 0.005028697, NaN, NaN, NaN, 0.0335714, "- N/A -   "
2.91, 121.84, 0.00506202, NaN, NaN, NaN, 0.0335714, "- N/A -   "
2.93, 122.547, 0.00509256, NaN, NaN, NaN, 0.0347922, "- N/A -   "
2.95, 123.373, 0.00512588, NaN, NaN, NaN, 0.0347922, "- N/A -   "
2.97, 123.963, 0.0051592, NaN, NaN, NaN, 0.03601294, "- N/A -   "
2.99, 124.906, 0.00519253, NaN, NaN, NaN, 0.03601294, "- N/A -   "
3.01, 125.732, 0.00522585, NaN, NaN, NaN, 0.0347922, "- N/A -   "
3.03, 126.676, 0.00526194, NaN, NaN, NaN, 0.0335714, "- N/A -   "
3.05, 127.383, 0.00529527, NaN, NaN, NaN, 0.0335714, "- N/A -   "
3.07, 128.327, 0.00533136, NaN, NaN, NaN, 0.0335714, "- N/A -   "
3.09, 129.152, 0.00536468, NaN, NaN, NaN, 0.0335714, "- N/A -   "
3.11, 129.86, 0.00539523, NaN, NaN, NaN, 0.0347922, "- N/A -   "
3.13, 130.4499, 0.00542022, NaN, NaN, NaN, 0.0372337, "- N/A -   "
3.15, 131.276, 0.00545076, NaN, NaN, NaN, 0.0384545, "- N/A -   "
3.17, 131.865, 0.005481308, NaN, NaN, NaN, 0.0396753, "- N/A -   "
3.19, 132.6909, 0.00551463, NaN, NaN, NaN, 0.04089605, "- N/A -   "
3.21, 133.399, 0.00554517, NaN, NaN, NaN, 0.04089605, "- N/A -   "
3.23, 134.224, 0.00557572, NaN, NaN, NaN, 0.04211683, "- N/A -   "
3.25, 134.932, 0.00560626, NaN, NaN, NaN, 0.0433376, "- N/A -   "
3.27, 135.758, 0.005639583, NaN, NaN, NaN, 0.0445584, "- N/A -   "
3.29, 136.583, 0.005670127, NaN, NaN, NaN, 0.0445584, "- N/A -   "
3.31, 137.291, 0.005706225, NaN, NaN, NaN, 0.0445584, "- N/A -   "
3.33, 138.352, 0.00574232, NaN, NaN, NaN, 0.04211683, "- N/A -   "
3.35, 139.296, 0.00577842, NaN, NaN, NaN, 0.04089605, "- N/A -   "
3.37, 140.24, 0.005817295, NaN, NaN, NaN, 0.0384545, "- N/A -   "
3.39, 141.183, 0.00585339, NaN, NaN, NaN, 0.0372337, "- N/A -   "
3.41, 142.1267, 0.00589504, NaN, NaN, NaN, 0.0335714, "- N/A -   "
3.43, 143.07, 0.005931142, NaN, NaN, NaN, 0.0323506, "- N/A -   "
3.45, 143.896, 0.00596724, NaN, NaN, NaN, 0.03112983, "- N/A -   "
3.47, 144.604, 0.006003337, NaN, NaN, NaN, 0.03112983, "- N/A -   "
3.49, 145.429, 0.006033882, NaN, NaN, NaN, 0.03112983, "- N/A -   "
3.51, 146.137, 0.006064426, NaN, NaN, NaN, 0.0335714, "- N/A -   "
3.53, 146.727, 0.00609497, NaN, NaN, NaN, 0.0335714, "- N/A -   "
3.55, 147.552, 0.006128291, NaN, NaN, NaN, 0.0347922, "- N/A -   "
3.57, 148.26, 0.006164389, NaN, NaN, NaN, 0.0347922, "- N/A -   "
3.59, 149.204, 0.00619771, NaN, NaN, NaN, 0.0335714, "- N/A -   "
3.61, 150.147, 0.006233808, NaN, NaN, NaN, 0.0335714, "- N/A -   "
3.63, 150.973, 0.00626991, NaN, NaN, NaN, 0.03112983, "- N/A -   "
3.65, 151.798, 0.006306, NaN, NaN, NaN, 0.0299091, "- N/A -   "
3.67, 152.742, 0.006339324, NaN, NaN, NaN, 0.0299091, "- N/A -   "
3.69, 153.568, 0.006372645, NaN, NaN, NaN, 0.0299091, "- N/A -   "
3.71, 154.2753, 0.00640597, NaN, NaN, NaN, 0.0299091, "- N/A -   "
3.73, 154.983, 0.00643651, NaN, NaN, NaN, 0.03112983, "- N/A -   "
3.75, 155.691, 0.006467055, NaN, NaN, NaN, 0.0323506, "- N/A -   "
3.77, 156.398, 0.00649482, NaN, NaN, NaN, 0.0347922, "- N/A -   "
3.79, 157.106, 0.00652259, NaN, NaN, NaN, 0.0372337, "- N/A -   "
3.81, 157.696, 0.006550357, NaN, NaN, NaN, 0.0396753, "- N/A -   "
3.83, 158.2855, 0.006578125, NaN, NaN, NaN, 0.04211683, "- N/A -   "
3.85, 158.875, 0.006608669, NaN, NaN, NaN, 0.0445584, "- N/A -   "
3.87, 159.701, 0.00663921, NaN, NaN, NaN, 0.04577916, "- N/A -   "
3.89, 160.5265, 0.00667253, NaN, NaN, NaN, 0.0445584, "- N/A -   "
3.91, 161.116, 0.006703079, NaN, NaN, NaN, 0.04577916, "- N/A -   "
3.93, 161.942, 0.00673362, NaN, NaN, NaN, 0.0482207, "- N/A -   "
3.95, 162.65, 0.00676417, NaN, NaN, NaN, 0.0482207, "- N/A -   "
3.97, 163.593, 0.00680304, NaN, NaN, NaN, 0.04699994, "- N/A -   "
3.99, 164.537, 0.00683914, NaN, NaN, NaN, 0.0445584, "- N/A -   "
4.01, 165.362, 0.006878014, NaN, NaN, NaN, 0.04211683, "- N/A -   "
4.03, 166.424, 0.00691689, NaN, NaN, NaN, 0.04089605, "- N/A -   "
4.05, 167.367, 0.00695576, NaN, NaN, NaN, 0.0384545, "- N/A -   "
4.07, 168.193, 0.00698908, NaN, NaN, NaN, 0.0384545, "- N/A -   "
4.09, 168.901, 0.00702518, NaN, NaN, NaN, 0.0372337, "- N/A -   "
4.11, 169.726, 0.00706128, NaN, NaN, NaN, 0.0347922, "- N/A -   "
4.13, 170.552, 0.00709738, NaN, NaN, NaN, 0.0347922, "- N/A -   "
4.15, 171.378, 0.0071307, NaN, NaN, NaN, 0.0335714, "- N/A -   "
4.17, 172.203, 0.0071668, NaN, NaN, NaN, 0.0335714, "- N/A -   "
4.19, 173.1469, 0.00720567, NaN, NaN, NaN, 0.03112983, "- N/A -   "
4.21, 173.973, 0.00724177, NaN, NaN, NaN, 0.0286883, "- N/A -   "
4.23, 174.9161, 0.007277867, NaN, NaN, NaN, 0.0274675, "- N/A -   "
4.25, 175.742, 0.00731119, NaN, NaN, NaN, 0.0274675, "- N/A -   "
4.27, 176.449, 0.00734451, NaN, NaN, NaN, 0.0274675, "- N/A -   "
4.29, 177.039, 0.00737505, NaN, NaN, NaN, 0.0286883, "- N/A -   "
4.31, 177.747, 0.007408374, NaN, NaN, NaN, 0.0299091, "- N/A -   "
4.33, 178.69, 0.007438918, NaN, NaN, NaN, 0.0299091, "- N/A -   "
4.35, 179.28, 0.00746946, NaN, NaN, NaN, 0.03112983, "- N/A -   "
4.37, 179.87, 0.007500007, NaN, NaN, NaN, 0.0323506, "- N/A -   "
4.39, 180.578, 0.007527774, NaN, NaN, NaN, 0.0347922, "- N/A -   "
4.41, 181.167, 0.007555542, NaN, NaN, NaN, 0.0372337, "- N/A -   "
4.43, 181.875, 0.007586086, NaN, NaN, NaN, 0.0384545, "- N/A -   "
4.45, 182.465, 0.007619407, NaN, NaN, NaN, 0.0396753, "- N/A -   "
4.47, 183.172, 0.007649951, NaN, NaN, NaN, 0.0396753, "- N/A -   "
4.49, 183.8801, 0.007677719, NaN, NaN, NaN, 0.04211683, "- N/A -   "
4.51, 184.3519, 0.007708263, NaN, NaN, NaN, 0.0445584, "- N/A -   "
4.53, 185.178, 0.00773881, NaN, NaN, NaN, 0.04577916, "- N/A -   "
4.55, 186.003, 0.007769352, NaN, NaN, NaN, 0.04577916, "- N/A -   "
4.57, 186.711, 0.00780545, NaN, NaN, NaN, 0.0445584, "- N/A -   "
4.59, 187.536, 0.00783877, NaN, NaN, NaN, 0.0445584, "- N/A -   "
4.61, 188.244, 0.007874868, NaN, NaN, NaN, 0.0445584, "- N/A -   "
4.63, 189.0698, 0.007905412, NaN, NaN, NaN, 0.0445584, "- N/A -   "
4.65, 189.895, 0.00794151, NaN, NaN, NaN, 0.0433376, "- N/A -   "
4.67, 190.721, 0.007977608, NaN, NaN, NaN, 0.04211683, "- N/A -   "
4.69, 191.547, 0.008016482, NaN, NaN, NaN, 0.04089605, "- N/A -   "
4.71, 192.372, 0.008049804, NaN, NaN, NaN, 0.0396753, "- N/A -   "
4.73, 193.198, 0.008085901, NaN, NaN, NaN, 0.0384545, "- N/A -   "
4.75, 194.024, 0.008124776, NaN, NaN, NaN, 0.0372337, "- N/A -   "
4.77, 194.967, 0.008160873, NaN, NaN, NaN, 0.0347922, "- N/A -   "
4.79, 195.7928, 0.008199749, NaN, NaN, NaN, 0.0323506, "- N/A -   "
4.81, 196.736, 0.008238623, NaN, NaN, NaN, 0.0299091, "- N/A -   "
4.83, 197.326, 0.008271944, NaN, NaN, NaN, 0.0299091, "- N/A -   "
4.85, 198.152, 0.008305265, NaN, NaN, NaN, 0.0299091, "- N/A -   "
4.87, 198.859, 0.00833859, NaN, NaN, NaN, 0.03112983, "- N/A -   "
4.89, 199.449, 0.008371906, NaN, NaN, NaN, 0.03112983, "- N/A -   "
4.91, 200.393, 0.008405227, NaN, NaN, NaN, 0.0299091, "- N/A -   "
4.93, 201.1, 0.008438549, NaN, NaN, NaN, 0.0299091, "- N/A -   "
4.95, 201.69, 0.008469094, NaN, NaN, NaN, 0.03112983, "- N/A -   "
4.97, 202.398, 0.008502414, NaN, NaN, NaN, 0.03112983, "- N/A -   "
4.99, 203.2235, 0.008532958, NaN, NaN, NaN, 0.0323506, "- N/A -   "
5.01, 203.813, 0.008563503, NaN, NaN, NaN, 0.0335714, "- N/A -   "
5.03, 204.403, 0.008594046, NaN, NaN, NaN, 0.0347922, "- N/A -   "
5.05, 205.347, 0.008627368, NaN, NaN, NaN, 0.0347922, "- N/A -   "
5.07, 205.936, 0.008657913, NaN, NaN, NaN, 0.03601294, "- N/A -   "
5.09, 206.526, 0.008691234, NaN, NaN, NaN, 0.03601294, "- N/A -   "
5.11, 207.352, 0.008724554, NaN, NaN, NaN, 0.03601294, "- N/A -   "
5.13, 208.059, 0.008757875, NaN, NaN, NaN, 0.03601294, "- N/A -   "
5.15, 208.649, 0.008785643, NaN, NaN, NaN, 0.0384545, "- N/A -   "
5.17, 209.357, 0.008816187, NaN, NaN, NaN, 0.0396753, "- N/A -   "
5.19, 209.946, 0.008849508, NaN, NaN, NaN, 0.04089605, "- N/A -   "
5.21, 210.654, 0.00887728, NaN, NaN, NaN, 0.04211683, "- N/A -   "
5.23, 211.244, 0.00890782, NaN, NaN, NaN, 0.0445584, "- N/A -   "
5.25, 211.9516, 0.008941141, NaN, NaN, NaN, 0.0445584, "- N/A -   "
5.27, 212.6593, 0.008971685, NaN, NaN, NaN, 0.0445584, "- N/A -   "
5.29, 213.367, 0.009005006, NaN, NaN, NaN, 0.0445584, "- N/A -   "
5.31, 214.1926, 0.009038327, NaN, NaN, NaN, 0.0445584, "- N/A -   "
5.33, 214.9, 0.009074425, NaN, NaN, NaN, 0.0433376, "- N/A -   "
5.35, 215.844, 0.009110522, NaN, NaN, NaN, 0.04211683, "- N/A -   "
5.37, 216.67, 0.009149397, NaN, NaN, NaN, 0.04089605, "- N/A -   "
5.39, 217.495, 0.009188272, NaN, NaN, NaN, 0.0372337, "- N/A -   "
5.41, 218.321, 0.00922437, NaN, NaN, NaN, 0.0372337, "- N/A -   "
5.43, 219.1464, 0.009260467, NaN, NaN, NaN, 0.03601294, "- N/A -   "
5.45, 219.8541, 0.009293788, NaN, NaN, NaN, 0.0347922, "- N/A -   "
5.47, 220.68, 0.009329886, NaN, NaN, NaN, 0.0335714, "- N/A -   "
5.49, 221.387, 0.009365984, NaN, NaN, NaN, 0.0335714, "- N/A -   "
5.51, 221.977, 0.009396528, NaN, NaN, NaN, 0.0335714, "- N/A -   "
5.53, 222.685, 0.009429849, NaN, NaN, NaN, 0.0335714, "- N/A -   "
5.55, 223.3925, 0.009460393, NaN, NaN, NaN, 0.03601294, "- N/A -   "
5.57, 223.982, 0.009490938, NaN, NaN, NaN, 0.0372337, "- N/A -   "
5.59, 224.69, 0.00952148, NaN, NaN, NaN, 0.0372337, "- N/A -   "
5.61, 225.398, 0.00955758, NaN, NaN, NaN, 0.03601294, "- N/A -   "
5.63, 226.223, 0.009593678, NaN, NaN, NaN, 0.0347922, "- N/A -   "
5.65, 227.167, 0.009632552, NaN, NaN, NaN, 0.0323506, "- N/A -   "
5.67, 227.992, 0.009671426, NaN, NaN, NaN, 0.03112983, "- N/A -   "
5.69, 228.7, 0.009701971, NaN, NaN, NaN, 0.03112983, "- N/A -   "
5.71, 229.29, 0.009732515, NaN, NaN, NaN, 0.0323506, "- N/A -   "
5.73, 229.88, 0.00976306, NaN, NaN, NaN, 0.0335714, "- N/A -   "
5.75, 230.587, 0.00979638, NaN, NaN, NaN, 0.0347922, "- N/A -   "
5.77, 231.295, 0.009826925, NaN, NaN, NaN, 0.0347922, "- N/A -   "
5.79, 231.885, 0.009857468, NaN, NaN, NaN, 0.03601294, "- N/A -   "
5.81, 232.71, 0.009888013, NaN, NaN, NaN, 0.0372337, "- N/A -   "
5.83, 233.418, 0.009921335, NaN, NaN, NaN, 0.0372337, "- N/A -   "
5.85, 234.008, 0.009954655, NaN, NaN, NaN, 0.0372337, "- N/A -   "
5.87, 234.715, 0.009982423, NaN, NaN, NaN, 0.0396753, "- N/A -   "
5.89, 235.3052, 0.0100157, NaN, NaN, NaN, 0.04089605, "- N/A -   "
5.91, 236.0129, 0.0100463, NaN, NaN, NaN, 0.04089605, "- N/A -   "
5.93, 236.721, 0.0100796, NaN, NaN, NaN, 0.04089605, "- N/A -   "
5.95, 237.5462, 0.0101157, NaN, NaN, NaN, 0.04089605, "- N/A -   "
5.97, 238.254, 0.0101463, NaN, NaN, NaN, 0.04089605, "- N/A -   "
5.99, 238.962, 0.0101796, NaN, NaN, NaN, 0.04089605, "- N/A -   "
6.01, 239.669, 0.0102129, NaN, NaN, NaN, 0.04089605, "- N/A -   "
6.03, 240.495, 0.010249, NaN, NaN, NaN, 0.0396753, "- N/A -   "
6.05, 241.321, 0.0102851, NaN, NaN, NaN, 0.0384545, "- N/A -   "
6.07, 242.146, 0.0103212, NaN, NaN, NaN, 0.0372337, "- N/A -   "
6.09, 242.853, 0.0103573, NaN, NaN, NaN, 0.03601294, "- N/A -   "
6.11, 243.678, 0.0103934, NaN, NaN, NaN, 0.0347922, "- N/A -   "
6.13, 244.385, 0.0104267, NaN, NaN, NaN, 0.0347922, "- N/A -   "
6.15, 245.092, 0.0104572, NaN, NaN, NaN, 0.03601294, "- N/A -   "
6.17, 245.799, 0.0104906, NaN, NaN, NaN, 0.0372337, "- N/A -   "
6.19, 246.506, 0.0105239, NaN, NaN, NaN, 0.0372337, "- N/A -   "
6.21, 247.213, 0.01056, NaN, NaN, NaN, 0.0347922, "- N/A -   "
6.23, 247.92, 0.0105905, NaN, NaN, NaN, 0.03601294, "- N/A -   "
6.25, 248.745, 0.0106266, NaN, NaN, NaN, 0.0347922, "- N/A -   "
6.27, 249.6874, 0.0106683, NaN, NaN, NaN, 0.0323506, "- N/A -   "
6.29, 250.394, 0.0107044, NaN, NaN, NaN, 0.03112983, "- N/A -   "
6.31, 251.101, 0.0107377, NaN, NaN, NaN, 0.03112983, "- N/A -   "
6.33, 251.808, 0.0107682, NaN, NaN, NaN, 0.03112983, "- N/A -   "
6.35, 252.397, 0.0108016, NaN, NaN, NaN, 0.0323506, "- N/A -   "
6.37, 253.104, 0.0108321, NaN, NaN, NaN, 0.0323506, "- N/A -   "
6.39, 253.811, 0.0108654, NaN, NaN, NaN, 0.0323506, "- N/A -   "
6.41, 254.518, 0.0108988, NaN, NaN, NaN, 0.0335714, "- N/A -   "
6.43, 255.225, 0.0109293, NaN, NaN, NaN, 0.0335714, "- N/A -   "
6.45, 255.814, 0.0109626, NaN, NaN, NaN, 0.0347922, "- N/A -   "
6.47, 256.757, 0.0109987, NaN, NaN, NaN, 0.0323506, "- N/A -   "
6.49, 257.4639, 0.011032, NaN, NaN, NaN, 0.0323506, "- N/A -   "
6.51, 258.171, 0.0110626, NaN, NaN, NaN, 0.0335714, "- N/A -   "
6.53, 258.642, 0.0110931, NaN, NaN, NaN, 0.0347922, "- N/A -   "
6.55, 259.231, 0.0111237, NaN, NaN, NaN, 0.03601294, "- N/A -   "
6.57, 259.938, 0.0111542, NaN, NaN, NaN, 0.0372337, "- N/A -   "
6.59, 260.527, 0.0111848, NaN, NaN, NaN, 0.0384545, "- N/A -   "
6.61, 261.234, 0.0112181, NaN, NaN, NaN, 0.0384545, "- N/A -   "
6.63, 262.059, 0.0112486, NaN, NaN, NaN, 0.0396753, "- N/A -   "
6.65, 262.648, 0.0112792, NaN, NaN, NaN, 0.04089605, "- N/A -   "
6.67, 263.355, 0.0113097, NaN, NaN, NaN, 0.04211683, "- N/A -   "
6.69, 263.944, 0.0113403, NaN, NaN, NaN, 0.0433376, "- N/A -   "
6.71, 264.6513, 0.0113736, NaN, NaN, NaN, 0.0433376, "- N/A -   "
6.73, 265.476, 0.0114097, NaN, NaN, NaN, 0.0433376, "- N/A -   "
6.75, 266.183, 0.0114402, NaN, NaN, NaN, 0.0445584, "- N/A -   "
6.77, 266.89, 0.0114735, NaN, NaN, NaN, 0.0433376, "- N/A -   "
6.79, 267.597, 0.0115096, NaN, NaN, NaN, 0.04211683, "- N/A -   "
6.81, 268.422, 0.0115457, NaN, NaN, NaN, 0.04089605, "- N/A -   "
6.83, 269.364, 0.0115846, NaN, NaN, NaN, 0.0396753, "- N/A -   "
6.85, 270.307, 0.0116235, NaN, NaN, NaN, 0.03601294, "- N/A -   "
6.87, 271.014, 0.0116624, NaN, NaN, NaN, 0.0335714, "- N/A -   "
6.89, 271.839, 0.0116985, NaN, NaN, NaN, 0.0323506, "- N/A -   "
6.91, 272.546, 0.0117318, NaN, NaN, NaN, 0.0323506, "- N/A -   "
6.93, 273.253, 0.0117651, NaN, NaN, NaN, 0.0335714, "- N/A -   "
6.95, 273.96, 0.0117956, NaN, NaN, NaN, 0.0335714, "- N/A -   "
6.97, 274.549, 0.011829, NaN, NaN, NaN, 0.0335714, "- N/A -   "
6.99, 275.256, 0.01186506, NaN, NaN, NaN, 0.0335714, "- N/A -   "
7.01, 276.198, 0.0118984, NaN, NaN, NaN, 0.0323506, "- N/A -   "
7.03, 276.9052, 0.0119373, NaN, NaN, NaN, 0.0299091, "- N/A -   "
7.05, 277.8478, 0.0119734, NaN, NaN, NaN, 0.0286883, "- N/A -   "
7.07, 278.555, 0.0120095, NaN, NaN, NaN, 0.0274675, "- N/A -   "
7.09, 279.144, 0.01204, NaN, NaN, NaN, 0.0286883, "- N/A -   "
7.11, 279.733, 0.01207054, NaN, NaN, NaN, 0.0299091, "- N/A -   "
7.13, 280.44, 0.0121011, NaN, NaN, NaN, 0.0323506, "- N/A -   "
7.15, 281.147, 0.0121316, NaN, NaN, NaN, 0.0323506, "- N/A -   "
7.17, 281.736, 0.0121649, NaN, NaN, NaN, 0.0335714, "- N/A -   "
7.19, 282.443, 0.0121927, NaN, NaN, NaN, 0.0347922, "- N/A -   "
7.21, 283.032, 0.0122233, NaN, NaN, NaN, 0.03601294, "- N/A -   "
7.23, 283.6213, 0.01225103, NaN, NaN, NaN, 0.0384545, "- N/A -   "
7.25, 284.093, 0.0122788, NaN, NaN, NaN, 0.04089605, "- N/A -   "
7.27, 284.8, 0.0123093, NaN, NaN, NaN, 0.04211683, "- N/A -   "
7.29, 285.5065, 0.0123399, NaN, NaN, NaN, 0.0433376, "- N/A -   "
7.31, 286.213, 0.01237043, NaN, NaN, NaN, 0.0445584, "- N/A -   "
7.33, 286.8026, 0.012401, NaN, NaN, NaN, 0.04577916, "- N/A -   "
7.35, 287.51, 0.0124315, NaN, NaN, NaN, 0.04699994, "- N/A -   "
7.37, 288.334, 0.0124676, NaN, NaN, NaN, 0.04699994, "- N/A -   "
7.39, 289.277, 0.0125037, NaN, NaN, NaN, 0.0445584, "- N/A -   "
7.41, 290.102, 0.0125426, NaN, NaN, NaN, 0.0433376, "- N/A -   "
7.43, 290.927, 0.0125815, NaN, NaN, NaN, 0.0396753, "- N/A -   "
7.45, 291.633, 0.01261756, NaN, NaN, NaN, 0.0384545, "- N/A -   "
7.47, 292.576, 0.0126564, NaN, NaN, NaN, 0.0372337, "- N/A -   "
7.49, 293.519, 0.01269531, NaN, NaN, NaN, 0.0335714, "- N/A -   "
7.51, 294.343, 0.0127342, NaN, NaN, NaN, 0.0323506, "- N/A -   "
7.53, 295.168, 0.0127675, NaN, NaN, NaN, 0.03112983, "- N/A -   "
7.55, 295.7574, 0.012798, NaN, NaN, NaN, 0.0323506, "- N/A -   "
7.57, 296.464, 0.0128341, NaN, NaN, NaN, 0.0323506, "- N/A -   "
7.59, 297.289, 0.0128702, NaN, NaN, NaN, 0.03112983, "- N/A -   "
7.61, 298.114, 0.0129036, NaN, NaN, NaN, 0.0299091, "- N/A -   "
7.63, 298.821, 0.0129397, NaN, NaN, NaN, 0.0286883, "- N/A -   "
7.65, 299.528, 0.0129758, NaN, NaN, NaN, 0.0274675, "- N/A -   "
7.67, 300.235, 0.0130091, NaN, NaN, NaN, 0.0274675, "- N/A -   "
7.69, 300.9417, 0.0130396, NaN, NaN, NaN, 0.0286883, "- N/A -   "
7.71, 301.6487, 0.0130729, NaN, NaN, NaN, 0.0299091, "- N/A -   "
7.73, 302.356, 0.0131063, NaN, NaN, NaN, 0.0286883, "- N/A -   "
7.75, 303.18, 0.01313959, NaN, NaN, NaN, 0.0299091, "- N/A -   "
7.77, 303.652, 0.0131674, NaN, NaN, NaN, 0.03112983, "- N/A -   "
7.79, 304.3587, 0.0131979, NaN, NaN, NaN, 0.0323506, "- N/A -   "
7.81, 304.948, 0.0132284, NaN, NaN, NaN, 0.0335714, "- N/A -   "
7.83, 305.6548, 0.01325899, NaN, NaN, NaN, 0.0347922, "- N/A -   "
7.85, 306.48, 0.0132923, NaN, NaN, NaN, 0.03601294, "- N/A -   "
7.87, 307.0687, 0.0133229, NaN, NaN, NaN, 0.03601294, "- N/A -   "
7.89, 307.658, 0.0133506, NaN, NaN, NaN, 0.0384545, "- N/A -   "
7.91, 308.365, 0.01337839, NaN, NaN, NaN, 0.04089605, "- N/A -   "
7.93, 309.072, 0.0134089, NaN, NaN, NaN, 0.04211683, "- N/A -   "
7.95, 309.6609, 0.0134395, NaN, NaN, NaN, 0.0433376, "- N/A -   "
7.97, 310.486, 0.0134728, NaN, NaN, NaN, 0.0433376, "- N/A -   "
7.99, 311.1926, 0.0135089, NaN, NaN, NaN, 0.04211683, "- N/A -   "
8.01, 312.0174, 0.0135422, NaN, NaN, NaN, 0.04211683, "- N/A -   "
8.03, 312.724, 0.0135728, NaN, NaN, NaN, 0.0433376, "- N/A -   "
8.05, 313.4313, 0.0136061, NaN, NaN, NaN, 0.0433376, "- N/A -   "
8.07, 314.138, 0.0136422, NaN, NaN, NaN, 0.0433376, "- N/A -   "
8.09, 315.081, 0.0136755, NaN, NaN, NaN, 0.0433376, "- N/A -   "
8.11, 315.788, 0.0137116, NaN, NaN, NaN, 0.0433376, "- N/A -   "
8.13, 316.495, 0.0137449, NaN, NaN, NaN, 0.0433376, "- N/A -   "
8.15, 317.4374, 0.013781, NaN, NaN, NaN, 0.04089605, "- N/A -   "
8.17, 318.144, 0.0138171, NaN, NaN, NaN, 0.0396753, "- N/A -   "
8.19, 319.087, 0.0138588, NaN, NaN, NaN, 0.0372337, "- N/A -   "
8.21, 320.03, 0.0138976, NaN, NaN, NaN, 0.0335714, "- N/A -   "
8.23, 320.9722, 0.0139393, NaN, NaN, NaN, 0.03112983, "- N/A -   "
8.25, 321.915, 0.0139754, NaN, NaN, NaN, 0.0286883, "- N/A -   "
8.27, 322.622, 0.0140115, NaN, NaN, NaN, 0.0274675, "- N/A -   "
8.29, 323.3287, 0.0140448, NaN, NaN, NaN, 0.0286883, "- N/A -   "
8.3, 323.8, 0.0140587, NaN, NaN, NaN, 0.0286883, "- N/A -   "
8.31, 324.153, 0.0140754, NaN, NaN, NaN, 0.0286883, "- N/A -   "
8.32, 324.389, 0.014092, NaN, NaN, NaN, 0.0286883, "- N/A -   "
8.33, 324.86, 0.0141087, NaN, NaN, NaN, 0.0286883, "- N/A -   "
8.34, 325.0961, 0.01412256, NaN, NaN, NaN, 0.0299091, "- N/A -   "
8.35, 325.567, 0.0141392, NaN, NaN, NaN, 0.0299091, "- N/A -   "
8.36, 325.921, 0.0141559, NaN, NaN, NaN, 0.0299091, "- N/A -   "
8.37, 326.274, 0.0141725, NaN, NaN, NaN, 0.0299091, "- N/A -   "
8.38, 326.51, 0.0141864, NaN, NaN, NaN, 0.03112983, "- N/A -   "
8.39, 326.863, 0.0142003, NaN, NaN, NaN, 0.0323506, "- N/A -   "
8.4, 327.217, 0.01421697, NaN, NaN, NaN, 0.0323506, "- N/A -   "
8.41, 327.57, 0.0142336, NaN, NaN, NaN, 0.0323506, "- N/A -   "
8.42, 328.042, 0.0142503, NaN, NaN, NaN, 0.0323506, "- N/A -   "
8.43, 328.395, 0.014267, NaN, NaN, NaN, 0.0323506, "- N/A -   "
8.44, 328.631, 0.0142808, NaN, NaN, NaN, 0.0335714, "- N/A -   "
8.45, 328.867, 0.0142947, NaN, NaN, NaN, 0.03601294, "- N/A -   "
8.46, 329.22, 0.0143114, NaN, NaN, NaN, 0.03601294, "- N/A -   "
8.47, 329.573, 0.0143253, NaN, NaN, NaN, 0.03601294, "- N/A -   "
8.48, 330.0448, 0.0143419, NaN, NaN, NaN, 0.03601294, "- N/A -   "
8.49, 330.28, 0.0143586, NaN, NaN, NaN, 0.03601294, "- N/A -   "
8.5, 330.752, 0.0143752, NaN, NaN, NaN, 0.0372337, "- N/A -   "
8.51, 331.105, 0.0143891, NaN, NaN, NaN, 0.0372337, "- N/A -   "
8.52, 331.4587, 0.0144058, NaN, NaN, NaN, 0.0384545, "- N/A -   "
8.53, 331.812, 0.0144197, NaN, NaN, NaN, 0.0384545, "- N/A -   "
8.54, 332.283, 0.01443911, NaN, NaN, NaN, 0.0372337, "- N/A -   "
8.55, 332.637, 0.0144558, NaN, NaN, NaN, 0.0372337, "- N/A -   "
8.56, 333.108, 0.0144724, NaN, NaN, NaN, 0.0372337, "- N/A -   "
8.57, 333.344, 0.0144891, NaN, NaN, NaN, 0.0372337, "- N/A -   "
8.58, 333.815, 0.014503, NaN, NaN, NaN, 0.0384545, "- N/A -   "
8.59, 334.051, 0.0145196, NaN, NaN, NaN, 0.0384545, "- N/A -   "
8.6, 334.5222, 0.0145335, NaN, NaN, NaN, 0.0396753, "- N/A -   "
8.61, 334.758, 0.0145502, NaN, NaN, NaN, 0.0396753, "- N/A -   "
8.62, 335.1113, 0.0145641, NaN, NaN, NaN, 0.04089605, "- N/A -   "
8.63, 335.347, 0.0145779, NaN, NaN, NaN, 0.04211683, "- N/A -   "
8.64, 335.7, 0.0145974, NaN, NaN, NaN, 0.04211683, "- N/A -   "
8.65, 336.172, 0.0146113, NaN, NaN, NaN, 0.04211683, "- N/A -   "
8.66, 336.5252, 0.0146279, NaN, NaN, NaN, 0.0433376, "- N/A -   "
8.67, 336.8787, 0.0146418, NaN, NaN, NaN, 0.0433376, "- N/A -   "
8.68, 337.232, 0.0146585, NaN, NaN, NaN, 0.0433376, "- N/A -   "
8.69, 337.468, 0.0146724, NaN, NaN, NaN, 0.0445584, "- N/A -   "
8.7, 337.939, 0.0146862, NaN, NaN, NaN, 0.04577916, "- N/A -   "
8.71, 338.175, 0.0147001, NaN, NaN, NaN, 0.04699994, "- N/A -   "
8.72, 338.528, 0.0147168, NaN, NaN, NaN, 0.04699994, "- N/A -   "
8.73, 339, 0.0147362, NaN, NaN, NaN, 0.04577916, "- N/A -   "
8.74, 339.353, 0.0147529, NaN, NaN, NaN, 0.04577916, "- N/A -   "
8.75, 339.824, 0.0147751, NaN, NaN, NaN, 0.0445584, "- N/A -   "
8.76, 340.296, 0.0147945, NaN, NaN, NaN, 0.0433376, "- N/A -   "
8.77, 340.767, 0.014814, NaN, NaN, NaN, 0.04211683, "- N/A -   "
8.78, 341.3561, 0.0148334, NaN, NaN, NaN, 0.04089605, "- N/A -   "
8.79, 341.8274, 0.0148528, NaN, NaN, NaN, 0.0384545, "- N/A -   "
8.8, 342.181, 0.0148723, NaN, NaN, NaN, 0.0372337, "- N/A -   "
8.81, 342.652, 0.0148917, NaN, NaN, NaN, 0.0372337, "- N/A -   "
8.82, 343.006, 0.0149084, NaN, NaN, NaN, 0.03601294, "- N/A -   "
8.83, 343.477, 0.0149278, NaN, NaN, NaN, 0.0347922, "- N/A -   "
8.84, 343.948, 0.01495, NaN, NaN, NaN, 0.0335714, "- N/A -   "
8.85, 344.4196, 0.0149667, NaN, NaN, NaN, 0.0323506, "- N/A -   "
8.86, 344.891, 0.0149861, NaN, NaN, NaN, 0.03112983, "- N/A -   "
8.87, 345.244, 0.0150056, NaN, NaN, NaN, 0.0299091, "- N/A -   "
8.88, 345.716, 0.0150222, NaN, NaN, NaN, 0.0299091, "- N/A -   "
8.89, 346.069, 0.0150389, NaN, NaN, NaN, 0.0299091, "- N/A -   "
8.9, 346.4226, 0.0150555, NaN, NaN, NaN, 0.0299091, "- N/A -   "
8.91, 346.7761, 0.01507221, NaN, NaN, NaN, 0.0299091, "- N/A -   "
8.92, 347.13, 0.0150916, NaN, NaN, NaN, 0.0299091, "- N/A -   "
8.93, 347.483, 0.0151028, NaN, NaN, NaN, 0.03112983, "- N/A -   "
8.94, 347.837, 0.0151194, NaN, NaN, NaN, 0.0323506, "- N/A -   "
8.95, 348.19, 0.0151333, NaN, NaN, NaN, 0.0323506, "- N/A -   "
8.96, 348.5435, 0.0151472, NaN, NaN, NaN, 0.0335714, "- N/A -   "
8.97, 348.779, 0.0151611, NaN, NaN, NaN, 0.0347922, "- N/A -   "
8.98, 349.1326, 0.0151777, NaN, NaN, NaN, 0.03601294, "- N/A -   "
8.99, 349.486, 0.01519161, NaN, NaN, NaN, 0.03601294, "- N/A -   "
9, 349.84, 0.0152055, NaN, NaN, NaN, 0.0372337, "- N/A -   "
9.01, 350.193, 0.01522493, NaN, NaN, NaN, 0.03601294, "- N/A -   "
9.05, 351.96, 0.01529435, NaN, NaN, NaN, 0.0347922, "- N/A -   "
9.09, 353.4922, 0.0153638, NaN, NaN, NaN, 0.0335714, "- N/A -   "
9.13, 355.26, 0.015436, NaN, NaN, NaN, 0.03112983, "- N/A -   "
9.17, 356.673, 0.0154998, NaN, NaN, NaN, 0.0323506, "- N/A -   "
9.21, 357.97, 0.01555814, NaN, NaN, NaN, 0.03601294, "- N/A -   "
9.25, 359.383, 0.0156192, NaN, NaN, NaN, 0.0384545, "- N/A -   "
9.29, 360.68, 0.0156803, NaN, NaN, NaN, 0.04089605, "- N/A -   "
9.33, 362.447, 0.0157497, NaN, NaN, NaN, 0.04089605, "- N/A -   "
9.37, 363.861, 0.0158192, NaN, NaN, NaN, 0.0396753, "- N/A -   "
9.41, 365.393, 0.0158802, NaN, NaN, NaN, 0.04089605, "- N/A -   "
9.45, 367.042, 0.0159497, NaN, NaN, NaN, 0.0396753, "- N/A -   "
9.49, 368.692, 0.0160219, NaN, NaN, NaN, 0.0384545, "- N/A -   "
9.53, 370.223, 0.0160857, NaN, NaN, NaN, 0.0384545, "- N/A -   "
9.57, 371.873, 0.0161551, NaN, NaN, NaN, 0.0372337, "- N/A -   "
9.61, 373.405, 0.0162246, NaN, NaN, NaN, 0.0372337, "- N/A -   "
9.65, 375.054, 0.01629398, NaN, NaN, NaN, 0.0347922, "- N/A -   "
9.69, 376.822, 0.016369, NaN, NaN, NaN, 0.0323506, "- N/A -   "
9.73, 378.353, 0.0164356, NaN, NaN, NaN, 0.03112983, "- N/A -   "
9.77, 379.7674, 0.01649946, NaN, NaN, NaN, 0.0335714, "- N/A -   "
9.81, 381.417, 0.0165633, NaN, NaN, NaN, 0.0335714, "- N/A -   "
9.85, 382.831, 0.01662719, NaN, NaN, NaN, 0.0347922, "- N/A -   "
9.89, 384.3626, 0.0166938, NaN, NaN, NaN, 0.0347922, "- N/A -   "
9.93, 386.012, 0.0167605, NaN, NaN, NaN, 0.0347922, "- N/A -   "
9.97, 387.308, 0.0168216, NaN, NaN, NaN, 0.0372337, "- N/A -   "
10.01, 388.722, 0.0168854, NaN, NaN, NaN, 0.0396753, "- N/A -   "
10.05, 390.372, 0.0169493, NaN, NaN, NaN, 0.0396753, "- N/A -   "
10.09, 391.668, 0.0170104, NaN, NaN, NaN, 0.04211683, "- N/A -   "
10.13, 393.082, 0.01707147, NaN, NaN, NaN, 0.0445584, "- N/A -   "
10.17, 394.849, 0.0171437, NaN, NaN, NaN, 0.04211683, "- N/A -   "
10.21, 396.852, 0.0172214, NaN, NaN, NaN, 0.0372337, "- N/A -   "
10.25, 398.62, 0.0172992, NaN, NaN, NaN, 0.0323506, "- N/A -   "
10.29, 400.1513, 0.0173658, NaN, NaN, NaN, 0.0323506, "- N/A -   "
10.33, 401.565, 0.0174297, NaN, NaN, NaN, 0.0347922, "- N/A -   "
10.37, 403.097, 0.0174935, NaN, NaN, NaN, 0.0347922, "- N/A -   "
10.41, 404.747, 0.017563, NaN, NaN, NaN, 0.0347922, "- N/A -   "
10.45, 406.514, 0.0176352, NaN, NaN, NaN, 0.03112983, "- N/A -   "
10.49, 408.3991, 0.0177129, NaN, NaN, NaN, 0.0274675, "- N/A -   "
10.53, 410.049, 0.0177795, NaN, NaN, NaN, 0.0262467, "- N/A -   "
10.57, 411.4626, 0.0178462, NaN, NaN, NaN, 0.0262467, "- N/A -   "
10.61, 412.877, 0.0179017, NaN, NaN, NaN, 0.03112983, "- N/A -   "
10.65, 413.937, 0.0179573, NaN, NaN, NaN, 0.0372337, "- N/A -   "
10.69, 415.233, 0.01801, NaN, NaN, NaN, 0.04211683, "- N/A -   "
10.73, 416.529, 0.0180655, NaN, NaN, NaN, 0.04699994, "- N/A -   "
10.77, 418.1787, 0.0181294, NaN, NaN, NaN, 0.0482207, "- N/A -   "
10.81, 419.828, 0.0182044, NaN, NaN, NaN, 0.0445584, "- N/A -   "
10.85, 421.713, 0.0182794, NaN, NaN, NaN, 0.04089605, "- N/A -   "
10.89, 423.4809, 0.01835433, NaN, NaN, NaN, 0.0372337, "- N/A -   "
10.93, 424.8948, 0.0184182, NaN, NaN, NaN, 0.0384545, "- N/A -   "
10.97, 426.4265, 0.01848206, NaN, NaN, NaN, 0.0396753, "- N/A -   "
11.01, 428.076, 0.0185487, NaN, NaN, NaN, 0.0396753, "- N/A -   "
11.05, 430.079, 0.0186292, NaN, NaN, NaN, 0.0335714, "- N/A -   "
11.09, 431.8465, 0.018707, NaN, NaN, NaN, 0.0299091, "- N/A -   "
11.13, 433.614, 0.01877362, NaN, NaN, NaN, 0.0286883, "- N/A -   "
11.17, 435.146, 0.018843, NaN, NaN, NaN, 0.0286883, "- N/A -   "
11.21, 436.56, 0.01890135, NaN, NaN, NaN, 0.03112983, "- N/A -   "
11.25, 437.973, 0.0189569, NaN, NaN, NaN, 0.03601294, "- N/A -   "
11.29, 439.152, 0.01901242, NaN, NaN, NaN, 0.04089605, "- N/A -   "
11.33, 440.33, 0.0190707, NaN, NaN, NaN, 0.04577916, "- N/A -   "
11.37, 442.215, 0.01914015, NaN, NaN, NaN, 0.0433376, "- N/A -   "
11.41, 444.1, 0.0192151, NaN, NaN, NaN, 0.0396753, "- N/A -   "
11.45, 445.514, 0.0192762, NaN, NaN, NaN, 0.04211683, "- N/A -   "
11.49, 447.046, 0.0193401, NaN, NaN, NaN, 0.0433376, "- N/A -   "
11.53, 448.813, 0.0194123, NaN, NaN, NaN, 0.04089605, "- N/A -   "
11.57, 450.6987, 0.01949, NaN, NaN, NaN, 0.03601294, "- N/A -   "
11.61, 452.82, 0.0195705, NaN, NaN, NaN, 0.03112983, "- N/A -   "
11.65, 454.587, 0.0196455, NaN, NaN, NaN, 0.0274675, "- N/A -   "
11.69, 456.237, 0.0197094, NaN, NaN, NaN, 0.0274675, "- N/A -   "
11.73, 457.8861, 0.0197788, NaN, NaN, NaN, 0.0274675, "- N/A -   "
11.77, 459.182, 0.0198371, NaN, NaN, NaN, 0.0299091, "- N/A -   "
11.81, 460.714, 0.0198982, NaN, NaN, NaN, 0.0323506, "- N/A -   "
11.85, 462.1278, 0.0199593, NaN, NaN, NaN, 0.0347922, "- N/A -   "
11.89, 463.66, 0.0200232, NaN, NaN, NaN, 0.03601294, "- N/A -   "
11.93, 465.309, 0.0200926, NaN, NaN, NaN, 0.03601294, "- N/A -   "
11.97, 466.9587, 0.02015922, NaN, NaN, NaN, 0.03601294, "- N/A -   "
12.01, 468.373, 0.02021753, NaN, NaN, NaN, 0.0396753, "- N/A -   "
12.05, 469.904, 0.02027862, NaN, NaN, NaN, 0.04089605, "- N/A -   "
12.09, 471.318, 0.0203397, NaN, NaN, NaN, 0.0445584, "- N/A -   "
12.13, 473.086, 0.0204036, NaN, NaN, NaN, 0.0445584, "- N/A -   "
12.17, 474.853, 0.02047577, NaN, NaN, NaN, 0.0433376, "- N/A -   "
12.21, 476.856, 0.02055352, NaN, NaN, NaN, 0.0372337, "- N/A -   "
12.25, 478.859, 0.020634, NaN, NaN, NaN, 0.03112983, "- N/A -   "
12.29, 480.5087, 0.0207035, NaN, NaN, NaN, 0.03112983, "- N/A -   "
12.33, 482.04, 0.0207673, NaN, NaN, NaN, 0.03112983, "- N/A -   "
12.37, 483.572, 0.0208284, NaN, NaN, NaN, 0.0335714, "- N/A -   "
12.41, 485.1039, 0.0208923, NaN, NaN, NaN, 0.03601294, "- N/A -   "
12.45, 486.753, 0.0209617, NaN, NaN, NaN, 0.0347922, "- N/A -   "
12.49, 488.403, 0.0210283, NaN, NaN, NaN, 0.0347922, "- N/A -   "
12.53, 490.288, 0.02109776, NaN, NaN, NaN, 0.0323506, "- N/A -   "
12.57, 491.9378, 0.0211644, NaN, NaN, NaN, 0.0323506, "- N/A -   "
12.61, 493.47, 0.02122827, NaN, NaN, NaN, 0.0347922, "- N/A -   "
12.65, 494.883, 0.02128658, NaN, NaN, NaN, 0.0384545, "- N/A -   "
[...]
20.33, 827.8905, 0.0340735, NaN, NaN, NaN, 0.0433376, "- N/A -   "
20.37, 829.783, 0.03413739, NaN, NaN, NaN, 0.0445584, "- N/A -   "
20.41, 831.5572, 0.0342096, NaN, NaN, NaN, 0.0433376, "- N/A -   "
20.45, 833.6863, 0.0342846, NaN, NaN, NaN, 0.0384545, "- N/A -   "
20.49, 835.8153, 0.03435953, NaN, NaN, NaN, 0.0347922, "- N/A -   "
20.53, 837.5895, 0.03442617, NaN, NaN, NaN, 0.0347922, "- N/A -   "
20.57, 839.482, 0.0344956, NaN, NaN, NaN, 0.0347922, "- N/A -   "
20.61, 841.2562, 0.03455668, NaN, NaN, NaN, 0.03601294, "- N/A -   "
20.65, 842.9121, 0.03462332, NaN, NaN, NaN, 0.03601294, "- N/A -   "
20.69, 845.0412, 0.0347011, NaN, NaN, NaN, 0.03112983, "- N/A -   "
20.73, 846.9337, 0.0347733, NaN, NaN, NaN, 0.0286883, "- N/A -   "
20.77, 848.708, 0.0348399, NaN, NaN, NaN, 0.0299091, "- N/A -   "
20.81, 850.127, 0.0348954, NaN, NaN, NaN, 0.0335714, "- N/A -   "
20.85, 851.7832, 0.03495653, NaN, NaN, NaN, 0.0372337, "- N/A -   "
20.89, 853.0843, 0.0350121, NaN, NaN, NaN, 0.04089605, "- N/A -   "
20.93, 854.74, 0.03507038, NaN, NaN, NaN, 0.0445584, "- N/A -   "
20.97, 856.3961, 0.0351342, NaN, NaN, NaN, 0.04699994, "- N/A -   "
21.01, 858.289, 0.0351981, NaN, NaN, NaN, 0.04699994, "- N/A -   "
21.05, 860.4177, 0.03527308, NaN, NaN, NaN, 0.0433376, "- N/A -   "
21.09, 862.547, 0.0353536, NaN, NaN, NaN, 0.0372337, "- N/A -   "
21.13, 864.558, 0.0354314, NaN, NaN, NaN, 0.0335714, "- N/A -   "
21.17, 866.5683, 0.0355008, NaN, NaN, NaN, 0.0323506, "- N/A -   "
21.21, 868.106, 0.03556464, NaN, NaN, NaN, 0.0335714, "- N/A -   "
21.25, 870.117, 0.0356341, NaN, NaN, NaN, 0.03112983, "- N/A -   "
21.29, 872.128, 0.03570625, NaN, NaN, NaN, 0.0286883, "- N/A -   "
21.33, 873.902, 0.0357784, NaN, NaN, NaN, 0.0274675, "- N/A -   "
21.37, 875.794, 0.03584509, NaN, NaN, NaN, 0.0262467, "- N/A -   "
21.41, 877.3319, 0.03590618, NaN, NaN, NaN, 0.0286883, "- N/A -   "
21.45, 878.9878, 0.03597, NaN, NaN, NaN, 0.03112983, "- N/A -   "
21.49, 880.407, 0.03602558, NaN, NaN, NaN, 0.0347922, "- N/A -   "
21.53, 881.9448, 0.0360811, NaN, NaN, NaN, 0.0396753, "- N/A -   "
21.57, 883.601, 0.03613943, NaN, NaN, NaN, 0.0433376, "- N/A -   "
21.61, 885.2567, 0.0362061, NaN, NaN, NaN, 0.0445584, "- N/A -   "
21.65, 887.0309, 0.0362727, NaN, NaN, NaN, 0.04577916, "- N/A -   "
21.69, 888.9234, 0.0363366, NaN, NaN, NaN, 0.04577916, "- N/A -   "
21.73, 890.8159, 0.036406, NaN, NaN, NaN, 0.0445584, "- N/A -   "
21.77, 892.827, 0.036481, NaN, NaN, NaN, 0.04089605, "- N/A -   "
21.81, 894.8374, 0.03655594, NaN, NaN, NaN, 0.0372337, "- N/A -   "
21.85, 897.203, 0.03663924, NaN, NaN, NaN, 0.03112983, "- N/A -   "
21.89, 898.9773, 0.0367059, NaN, NaN, NaN, 0.0299091, "- N/A -   "
21.93, 900.6332, 0.03676975, NaN, NaN, NaN, 0.03112983, "- N/A -   "
21.97, 902.2891, 0.03683084, NaN, NaN, NaN, 0.0335714, "- N/A -   "
22.01, 903.8268, 0.0368947, NaN, NaN, NaN, 0.0347922, "- N/A -   "
22.05, 905.601, 0.036953, NaN, NaN, NaN, 0.0396753, "- N/A -   "
22.09, 907.493, 0.03701966, NaN, NaN, NaN, 0.0384545, "- N/A -   "
22.13, 909.0312, 0.0370863, NaN, NaN, NaN, 0.0396753, "- N/A -   "
22.17, 911.0419, 0.0371557, NaN, NaN, NaN, 0.0384545, "- N/A -   "
22.21, 912.8161, 0.03722236, NaN, NaN, NaN, 0.0384545, "- N/A -   "
22.25, 914.3538, 0.03728067, NaN, NaN, NaN, 0.04089605, "- N/A -   "
22.29, 916.0097, 0.03734176, NaN, NaN, NaN, 0.0445584, "- N/A -   "
22.33, 917.9022, 0.03741118, NaN, NaN, NaN, 0.0433376, "- N/A -   "
22.37, 919.676, 0.03747782, NaN, NaN, NaN, 0.0433376, "- N/A -   "
22.41, 921.569, 0.0375445, NaN, NaN, NaN, 0.04211683, "- N/A -   "
22.45, 923.8162, 0.0376222, NaN, NaN, NaN, 0.0372337, "- N/A -   "
22.49, 925.827, 0.03769996, NaN, NaN, NaN, 0.0323506, "- N/A -   "
22.53, 927.956, 0.03777771, NaN, NaN, NaN, 0.0286883, "- N/A -   "
22.57, 929.612, 0.0378388, NaN, NaN, NaN, 0.0299091, "- N/A -   "
22.61, 931.0314, 0.03789711, NaN, NaN, NaN, 0.0347922, "- N/A -   "
22.65, 932.6873, 0.0379554, NaN, NaN, NaN, 0.0372337, "- N/A -   "
22.69, 934.5798, 0.03802484, NaN, NaN, NaN, 0.03601294, "- N/A -   "
22.73, 936.4723, 0.038097, NaN, NaN, NaN, 0.0347922, "- N/A -   "
22.77, 938.6014, 0.03816923, NaN, NaN, NaN, 0.03112983, "- N/A -   "
22.81, 940.2573, 0.0382331, NaN, NaN, NaN, 0.0323506, "- N/A -   "
22.85, 941.7949, 0.0382942, NaN, NaN, NaN, 0.03601294, "- N/A -   "
22.89, 943.3326, 0.0383525, NaN, NaN, NaN, 0.0396753, "- N/A -   "
22.93, 944.8702, 0.03841081, NaN, NaN, NaN, 0.0433376, "- N/A -   "
22.97, 946.6445, 0.03847745, NaN, NaN, NaN, 0.0433376, "- N/A -   "
23.01, 948.6552, 0.0385441, NaN, NaN, NaN, 0.04211683, "- N/A -   "
23.05, 950.3111, 0.0386107, NaN, NaN, NaN, 0.0433376, "- N/A -   "
23.09, 952.2036, 0.03868015, NaN, NaN, NaN, 0.04089605, "- N/A -   "
23.13, 954.2144, 0.03874957, NaN, NaN, NaN, 0.0396753, "- N/A -   "
23.17, 956.107, 0.0388218, NaN, NaN, NaN, 0.0384545, "- N/A -   "
23.21, 958.1177, 0.0388912, NaN, NaN, NaN, 0.03601294, "- N/A -   "
23.25, 959.7736, 0.0389606, NaN, NaN, NaN, 0.03601294, "- N/A -   "
23.29, 961.7844, 0.03903, NaN, NaN, NaN, 0.0335714, "- N/A -   "
23.33, 963.44, 0.03909389, NaN, NaN, NaN, 0.0347922, "- N/A -   "
23.37, 965.215, 0.0391605, NaN, NaN, NaN, 0.03601294, "- N/A -   "
23.41, 966.9888, 0.0392272, NaN, NaN, NaN, 0.0347922, "- N/A -   "
23.45, 968.6447, 0.03929104, NaN, NaN, NaN, 0.03601294, "- N/A -   "
23.49, 970.4189, 0.0393549, NaN, NaN, NaN, 0.0372337, "- N/A -   "
23.53, 972.4297, 0.0394271, NaN, NaN, NaN, 0.03601294, "- N/A -   "
23.57, 974.2039, 0.0394937, NaN, NaN, NaN, 0.0347922, "- N/A -   "
23.61, 975.7415, 0.03955205, NaN, NaN, NaN, 0.0384545, "- N/A -   "
23.65, 977.397, 0.0396159, NaN, NaN, NaN, 0.0396753, "- N/A -   "
23.69, 979.1717, 0.0396798, NaN, NaN, NaN, 0.04089605, "- N/A -   "
23.73, 980.946, 0.0397464, NaN, NaN, NaN, 0.04089605, "- N/A -   "
23.77, 982.8384, 0.0398131, NaN, NaN, NaN, 0.04089605, "- N/A -   "
23.81, 984.7309, 0.0398769, NaN, NaN, NaN, 0.04211683, "- N/A -   "
23.85, 986.505, 0.0399491, NaN, NaN, NaN, 0.0396753, "- N/A -   "
23.89, 988.752, 0.0400324, NaN, NaN, NaN, 0.0335714, "- N/A -   "
23.93, 990.7632, 0.0401046, NaN, NaN, NaN, 0.03112983, "- N/A -   "
23.97, 992.5374, 0.0401713, NaN, NaN, NaN, 0.03112983, "- N/A -   "
24.01, 994.1933, 0.0402351, NaN, NaN, NaN, 0.03112983, "- N/A -   "
24.05, 995.9675, 0.040299, NaN, NaN, NaN, 0.0323506, "- N/A -   "
24.09, 997.86, 0.0403712, NaN, NaN, NaN, 0.0299091, "- N/A -   "
24.13, 999.871, 0.04044339, NaN, NaN, NaN, 0.0274675, "- N/A -   "
24.17, 1001.53, 0.0405073, NaN, NaN, NaN, 0.0286883, "- N/A -   "
24.21, 1003.42, 0.04057112, NaN, NaN, NaN, 0.03112983, "- N/A -   "
24.25, 1004.84, 0.0406294, NaN, NaN, NaN, 0.0335714, "- N/A -   "
24.29, 1006.258, 0.0406822, NaN, NaN, NaN, 0.0396753, "- N/A -   "
24.33, 1007.91, 0.0407433, NaN, NaN, NaN, 0.0433376, "- N/A -   "
24.37, 1009.33, 0.0408016, NaN, NaN, NaN, 0.04577916, "- N/A -   "
24.41, 1010.99, 0.0408627, NaN, NaN, NaN, 0.0482207, "- N/A -   "
24.45, 1013, 0.0409349, NaN, NaN, NaN, 0.04577916, "- N/A -   "
24.49, 1015.03, 0.0410098, NaN, NaN, NaN, 0.04211683, "- N/A -   "
24.53, 1017.17, 0.04108482, NaN, NaN, NaN, 0.0384545, "- N/A -   "
24.57, 1019.08, 0.0411598, NaN, NaN, NaN, 0.03601294, "- N/A -   "
24.61, 1020.99, 0.04122921, NaN, NaN, NaN, 0.0347922, "- N/A -   "
24.65, 1022.78, 0.0412903, NaN, NaN, NaN, 0.03601294, "- N/A -   "
24.69, 1024.69, 0.04136527, NaN, NaN, NaN, 0.0323506, "- N/A -   "
24.73, 1026.714, 0.0414375, NaN, NaN, NaN, 0.0299091, "- N/A -   "
24.77, 1028.622, 0.0415069, NaN, NaN, NaN, 0.0286883, "- N/A -   "
24.81, 1030.29, 0.041568, NaN, NaN, NaN, 0.03112983, "- N/A -   "
24.85, 1031.961, 0.04163184, NaN, NaN, NaN, 0.0323506, "- N/A -   "
24.89, 1033.39, 0.0416874, NaN, NaN, NaN, 0.0372337, "- N/A -   "
24.93, 1035.06, 0.0417512, NaN, NaN, NaN, 0.0384545, "- N/A -   "
24.97, 1036.49, 0.0418068, NaN, NaN, NaN, 0.0433376, "- N/A -   "
25.01, 1038.16, 0.0418706, NaN, NaN, NaN, 0.0445584, "- N/A -   "
25.05, 1040.19, 0.04194006, NaN, NaN, NaN, 0.0433376, "- N/A -   "
25.09, 1042.1, 0.0420095, NaN, NaN, NaN, 0.04211683, "- N/A -   "
25.13, 1043.89, 0.0420789, NaN, NaN, NaN, 0.04089605, "- N/A -   "
25.17, 1045.91, 0.0421511, NaN, NaN, NaN, 0.0384545, "- N/A -   "
25.21, 1047.82, 0.04222051, NaN, NaN, NaN, 0.0372337, "- N/A -   "
25.25, 1049.97, 0.04229826, NaN, NaN, NaN, 0.0323506, "- N/A -   "
25.29, 1052.11, 0.042376, NaN, NaN, NaN, 0.0274675, "- N/A -   "
25.33, 1053.9, 0.0424454, NaN, NaN, NaN, 0.0274675, "- N/A -   "
25.37, 1055.69, 0.0425093, NaN, NaN, NaN, 0.0274675, "- N/A -   "
25.41, 1057.24, 0.04257038, NaN, NaN, NaN, 0.0299091, "- N/A -   "
25.45, 1059.03, 0.04263147, NaN, NaN, NaN, 0.0335714, "- N/A -   "
25.49, 1060.7, 0.0426953, NaN, NaN, NaN, 0.0335714, "- N/A -   "
25.53, 1062.37, 0.0427592, NaN, NaN, NaN, 0.03601294, "- N/A -   "
25.57, 1064.28, 0.0428231, NaN, NaN, NaN, 0.03601294, "- N/A -   "
25.61, 1066.19, 0.04289526, NaN, NaN, NaN, 0.0335714, "- N/A -   "
25.65, 1067.856, 0.0429564, NaN, NaN, NaN, 0.0372337, "- N/A -   "
25.69, 1069.287, 0.04300911, NaN, NaN, NaN, 0.04211683, "- N/A -   "
25.73, 1070.96, 0.0430702, NaN, NaN, NaN, 0.0445584, "- N/A -   "
25.77, 1072.626, 0.0431341, NaN, NaN, NaN, 0.04577916, "- N/A -   "
25.81, 1074.534, 0.04320348, NaN, NaN, NaN, 0.0445584, "- N/A -   "
25.85, 1076.8, 0.043284, NaN, NaN, NaN, 0.0396753, "- N/A -   "
25.89, 1078.827, 0.043359, NaN, NaN, NaN, 0.03601294, "- N/A -   "
25.93, 1080.97, 0.0434312, NaN, NaN, NaN, 0.0323506, "- N/A -   "
25.97, 1082.76, 0.0435006, NaN, NaN, NaN, 0.0323506, "- N/A -   "
26.01, 1084.43, 0.0435617, NaN, NaN, NaN, 0.0335714, "- N/A -   "
26.05, 1085.98, 0.04362277, NaN, NaN, NaN, 0.03601294, "- N/A -   "
26.09, 1087.65, 0.04368941, NaN, NaN, NaN, 0.0372337, "- N/A -   "
26.13, 1089.68, 0.0437588, NaN, NaN, NaN, 0.0347922, "- N/A -   "
26.17, 1091.587, 0.043831, NaN, NaN, NaN, 0.0335714, "- N/A -   "
26.21, 1093.5, 0.04389767, NaN, NaN, NaN, 0.0335714, "- N/A -   "
26.25, 1095.28, 0.0439615, NaN, NaN, NaN, 0.0347922, "- N/A -   "
26.29, 1096.83, 0.0440198, NaN, NaN, NaN, 0.0384545, "- N/A -   "
26.33, 1098.38, 0.04408093, NaN, NaN, NaN, 0.04211683, "- N/A -   "
26.37, 1100.054, 0.044142, NaN, NaN, NaN, 0.0433376, "- N/A -   "
26.41, 1102.08, 0.044217, NaN, NaN, NaN, 0.04089605, "- N/A -   "
26.45, 1103.87, 0.0442836, NaN, NaN, NaN, 0.0396753, "- N/A -   "
26.49, 1105.78, 0.0443503, NaN, NaN, NaN, 0.0396753, "- N/A -   "
26.53, 1107.686, 0.0444253, NaN, NaN, NaN, 0.0372337, "- N/A -   "
26.57, 1109.59, 0.04449189, NaN, NaN, NaN, 0.03601294, "- N/A -   "
26.61, 1111.14, 0.0445502, NaN, NaN, NaN, 0.0396753, "- N/A -   "
26.65, 1113.05, 0.0446196, NaN, NaN, NaN, 0.0384545, "- N/A -   "
26.69, 1115.08, 0.0446974, NaN, NaN, NaN, 0.0347922, "- N/A -   "
26.73, 1117.11, 0.04477235, NaN, NaN, NaN, 0.03112983, "- N/A -   "
26.77, 1118.9, 0.0448362, NaN, NaN, NaN, 0.03112983, "- N/A -   "
26.81, 1120.57, 0.0449001, NaN, NaN, NaN, 0.0335714, "- N/A -   "
26.85, 1122.354, 0.04496672, NaN, NaN, NaN, 0.0323506, "- N/A -   "
26.89, 1124.38, 0.04503336, NaN, NaN, NaN, 0.0323506, "- N/A -   "
26.93, 1126.17, 0.04510278, NaN, NaN, NaN, 0.0323506, "- N/A -   "
26.97, 1127.96, 0.04516942, NaN, NaN, NaN, 0.0323506, "- N/A -   "
27.01, 1129.39, 0.045225, NaN, NaN, NaN, 0.03601294, "- N/A -   "
27.05, 1130.94, 0.04528327, NaN, NaN, NaN, 0.04089605, "- N/A -   "
27.09, 1132.61, 0.04534158, NaN, NaN, NaN, 0.0433376, "- N/A -   "
27.13, 1134.4, 0.0454054, NaN, NaN, NaN, 0.0445584, "- N/A -   "
27.17, 1136.19, 0.04546931, NaN, NaN, NaN, 0.04577916, "- N/A -   "
27.21, 1137.98, 0.045536, NaN, NaN, NaN, 0.04577916, "- N/A -   "
27.25, 1139.88, 0.04560815, NaN, NaN, NaN, 0.0433376, "- N/A -   "
27.29, 1142.15, 0.0456859, NaN, NaN, NaN, 0.0384545, "- N/A -   "
27.33, 1144.3, 0.04576087, NaN, NaN, NaN, 0.0347922, "- N/A -   "
27.37, 1146.2, 0.04582751, NaN, NaN, NaN, 0.0347922, "- N/A -   "
27.41, 1147.99, 0.0458914, NaN, NaN, NaN, 0.03601294, "- N/A -   "
27.45, 1149.782, 0.0459608, NaN, NaN, NaN, 0.0347922, "- N/A -   "
27.49, 1151.69, 0.0460302, NaN, NaN, NaN, 0.0347922, "- N/A -   "
27.53, 1153.598, 0.0461024, NaN, NaN, NaN, 0.03112983, "- N/A -   "
27.57, 1155.63, 0.04617461, NaN, NaN, NaN, 0.0299091, "- N/A -   "
27.61, 1157.18, 0.0462329, NaN, NaN, NaN, 0.0323506, "- N/A -   "
27.65, 1158.85, 0.0462968, NaN, NaN, NaN, 0.0335714, "- N/A -   "
27.69, 1160.4, 0.0463551, NaN, NaN, NaN, 0.0384545, "- N/A -   "
27.73, 1161.83, 0.0464079, NaN, NaN, NaN, 0.0433376, "- N/A -   "
27.77, 1163.496, 0.04646894, NaN, NaN, NaN, 0.04577916, "- N/A -   "
27.81, 1165.28, 0.04653281, NaN, NaN, NaN, 0.04699994, "- N/A -   "
27.85, 1167.19, 0.0466022, NaN, NaN, NaN, 0.04577916, "- N/A -   "
27.89, 1169.46, 0.04668, NaN, NaN, NaN, 0.04089605, "- N/A -   "
27.93, 1171.49, 0.0467577, NaN, NaN, NaN, 0.03601294, "- N/A -   "
27.97, 1173.51, 0.04682714, NaN, NaN, NaN, 0.0347922, "- N/A -   "
28.01, 1175.3, 0.0468938, NaN, NaN, NaN, 0.0347922, "- N/A -   "
28.05, 1177.21, 0.0469632, NaN, NaN, NaN, 0.0335714, "- N/A -   "
28.09, 1179.36, 0.047041, NaN, NaN, NaN, 0.0286883, "- N/A -   "
28.13, 1181.38, 0.0471131, NaN, NaN, NaN, 0.0262467, "- N/A -   "
28.17, 1183.17, 0.04717979, NaN, NaN, NaN, 0.0262467, "- N/A -   "
28.21, 1184.842, 0.04724366, NaN, NaN, NaN, 0.0274675, "- N/A -   "
28.25, 1186.39, 0.0473047, NaN, NaN, NaN, 0.0299091, "- N/A -   "
28.29, 1188.3, 0.0473658, NaN, NaN, NaN, 0.0323506, "- N/A -   "
28.33, 1189.61, 0.04742137, NaN, NaN, NaN, 0.0372337, "- N/A -   "
28.37, 1191.16, 0.0474769, NaN, NaN, NaN, 0.04211683, "- N/A -   "
28.41, 1192.71, 0.0475352, NaN, NaN, NaN, 0.04577916, "- N/A -   "
28.45, 1194.5, 0.0476019, NaN, NaN, NaN, 0.04577916, "- N/A -   "
28.49, 1196.41, 0.0476685, NaN, NaN, NaN, 0.04577916, "- N/A -   "
28.53, 1198.32, 0.04773514, NaN, NaN, NaN, 0.04577916, "- N/A -   "
28.57, 1200.11, 0.04780456, NaN, NaN, NaN, 0.0445584, "- N/A -   "
28.61, 1202.25, 0.0478768, NaN, NaN, NaN, 0.04211683, "- N/A -   "
28.65, 1204.28, 0.0479545, NaN, NaN, NaN, 0.0372337, "- N/A -   "
28.69, 1206.546, 0.04803225, NaN, NaN, NaN, 0.0323506, "- N/A -   "
28.73, 1208.33, 0.04810167, NaN, NaN, NaN, 0.0323506, "- N/A -   "
28.77, 1210.24, 0.0481711, NaN, NaN, NaN, 0.0299091, "- N/A -   "
28.81, 1212.03, 0.04823496, NaN, NaN, NaN, 0.03112983, "- N/A -   "
28.85, 1213.701, 0.0483016, NaN, NaN, NaN, 0.0323506, "- N/A -   "
28.89, 1215.61, 0.0483599, NaN, NaN, NaN, 0.0347922, "- N/A -   "
28.93, 1217.28, 0.04842655, NaN, NaN, NaN, 0.03601294, "- N/A -   "
28.97, 1219.07, 0.04849319, NaN, NaN, NaN, 0.03601294, "- N/A -   "
29.01, 1220.98, 0.0485598, NaN, NaN, NaN, 0.03601294, "- N/A -   "
29.05, 1222.64, 0.0486209, NaN, NaN, NaN, 0.0384545, "- N/A -   "
29.09, 1224.2, 0.04867646, NaN, NaN, NaN, 0.04211683, "- N/A -   "
29.13, 1225.86, 0.0487403, NaN, NaN, NaN, 0.0433376, "- N/A -   "
29.17, 1227.65, 0.04880419, NaN, NaN, NaN, 0.0445584, "- N/A -   "
29.21, 1229.56, 0.0488764, NaN, NaN, NaN, 0.04211683, "- N/A -   "
29.25, 1231.83, 0.0489514, NaN, NaN, NaN, 0.0384545, "- N/A -   "
29.29, 1234.09, 0.0490319, NaN, NaN, NaN, 0.0323506, "- N/A -   "
29.33, 1236.12, 0.04910686, NaN, NaN, NaN, 0.0286883, "- N/A -   "
29.37, 1237.91, 0.04917072, NaN, NaN, NaN, 0.0299091, "- N/A -   "
29.41, 1239.46, 0.0492318, NaN, NaN, NaN, 0.0323506, "- N/A -   "
29.45, 1241.13, 0.0492929, NaN, NaN, NaN, 0.0347922, "- N/A -   "
29.49, 1243.037, 0.0493595, NaN, NaN, NaN, 0.0347922, "- N/A -   "
29.53, 1244.95, 0.0494345, NaN, NaN, NaN, 0.0323506, "- N/A -   "
29.57, 1246.97, 0.04950115, NaN, NaN, NaN, 0.03112983, "- N/A -   "
29.61, 1248.642, 0.04956502, NaN, NaN, NaN, 0.0323506, "- N/A -   "
29.65, 1250.43, 0.0496289, NaN, NaN, NaN, 0.0335714, "- N/A -   "
29.69, 1252.1, 0.04969, NaN, NaN, NaN, 0.03601294, "- N/A -   "
29.73, 1253.65, 0.0497538, NaN, NaN, NaN, 0.0372337, "- N/A -   "
29.77, 1255.32, 0.04981493, NaN, NaN, NaN, 0.0396753, "- N/A -   "
29.81, 1257.59, 0.0498899, NaN, NaN, NaN, 0.03601294, "- N/A -   "
29.85, 1259.49, 0.04995654, NaN, NaN, NaN, 0.03601294, "- N/A -   "
29.89, 1260.92, 0.05001763, NaN, NaN, NaN, 0.0396753, "- N/A -   "
29.93, 1262.59, 0.05007872, NaN, NaN, NaN, 0.04089605, "- N/A -   "
29.97, 1264.5, 0.0501454, NaN, NaN, NaN, 0.04089605, "- N/A -   "
30.01, 1266.41, 0.050212, NaN, NaN, NaN, 0.04089605, "- N/A -   "
30.05, 1268.08, 0.0502786, NaN, NaN, NaN, 0.04089605, "- N/A -   "
30.09, 1269.99, 0.0503453, NaN, NaN, NaN, 0.04089605, "- N/A -   "
30.13, 1271.896, 0.0504147, NaN, NaN, NaN, 0.0396753, "- N/A -   "
30.17, 1273.92, 0.05048968, NaN, NaN, NaN, 0.03601294, "- N/A -   "
30.21, 1275.83, 0.0505591, NaN, NaN, NaN, 0.0347922, "- N/A -   "
30.25, 1277.98, 0.05063407, NaN, NaN, NaN, 0.03112983, "- N/A -   "
30.29, 1279.77, 0.0507007, NaN, NaN, NaN, 0.03112983, "- N/A -   "
30.33, 1281.67, 0.05077013, NaN, NaN, NaN, 0.0299091, "- N/A -   "
30.37, 1283.34, 0.05083677, NaN, NaN, NaN, 0.03112983, "- N/A -   "
30.41, 1285.01, 0.0508951, NaN, NaN, NaN, 0.0335714, "- N/A -   "
30.45, 1286.44, 0.0509534, NaN, NaN, NaN, 0.0372337, "- N/A -   "
30.49, 1288.11, 0.0510145, NaN, NaN, NaN, 0.04089605, "- N/A -   "
30.53, 1289.903, 0.05107835, NaN, NaN, NaN, 0.04089605, "- N/A -   "
30.57, 1291.811, 0.0511422, NaN, NaN, NaN, 0.04211683, "- N/A -   "
30.61, 1293.72, 0.0512144, NaN, NaN, NaN, 0.0396753, "- N/A -   "
30.65, 1295.63, 0.05128383, NaN, NaN, NaN, 0.0384545, "- N/A -   "
30.69, 1297.89, 0.05136158, NaN, NaN, NaN, 0.0347922, "- N/A -   "
30.73, 1299.92, 0.05143655, NaN, NaN, NaN, 0.0323506, "- N/A -   "
30.77, 1301.47, 0.0515004, NaN, NaN, NaN, 0.0323506, "- N/A -   "
30.81, 1303.26, 0.05156428, NaN, NaN, NaN, 0.0347922, "- N/A -   "
30.85, 1305.05, 0.0516309, NaN, NaN, NaN, 0.0335714, "- N/A -   "
30.89, 1306.84, 0.0516976, NaN, NaN, NaN, 0.0335714, "- N/A -   "
30.93, 1308.86, 0.05176976, NaN, NaN, NaN, 0.03112983, "- N/A -   "
30.97, 1310.77, 0.05183918, NaN, NaN, NaN, 0.0299091, "- N/A -   "
31.01, 1312.44, 0.051903, NaN, NaN, NaN, 0.0323506, "- N/A -   "
31.05, 1314.23, 0.05196691, NaN, NaN, NaN, 0.0323506, "- N/A -   "
31.09, 1315.66, 0.0520224, NaN, NaN, NaN, 0.0372337, "- N/A -   "
31.13, 1317.21, 0.0520808, NaN, NaN, NaN, 0.04089605, "- N/A -   "
31.17, 1318.762, 0.05213907, NaN, NaN, NaN, 0.0445584, "- N/A -   "
31.21, 1320.43, 0.0522002, NaN, NaN, NaN, 0.04699994, "- N/A -   "
31.25, 1322.22, 0.0522668, NaN, NaN, NaN, 0.04699994, "- N/A -   "
31.29, 1324.25, 0.052339, NaN, NaN, NaN, 0.0445584, "- N/A -   "
31.33, 1326.39, 0.05241952, NaN, NaN, NaN, 0.0384545, "- N/A -   "
31.37, 1328.42, 0.0524917, NaN, NaN, NaN, 0.03601294, "- N/A -   "
31.41, 1330.21, 0.0525584, NaN, NaN, NaN, 0.03601294, "- N/A -   "
31.45, 1331.999, 0.05262778, NaN, NaN, NaN, 0.03601294, "- N/A -   "
31.49, 1334.03, 0.0526972, NaN, NaN, NaN, 0.0335714, "- N/A -   "
31.53, 1336.05, 0.0527694, NaN, NaN, NaN, 0.03112983, "- N/A -   "
31.57, 1337.72, 0.05283881, NaN, NaN, NaN, 0.0299091, "- N/A -   "
31.61, 1339.51, 0.0529027, NaN, NaN, NaN, 0.03112983, "- N/A -   "
31.65, 1341.42, 0.0529721, NaN, NaN, NaN, 0.0299091, "- N/A -   "
31.69, 1342.97, 0.0530304, NaN, NaN, NaN, 0.0335714, "- N/A -   "
31.73, 1344.52, 0.05308594, NaN, NaN, NaN, 0.0384545, "- N/A -   "
31.77, 1346.07, 0.05314703, NaN, NaN, NaN, 0.04089605, "- N/A -   "
31.81, 1347.62, 0.05320534, NaN, NaN, NaN, 0.0445584, "- N/A -   "
31.85, 1349.41, 0.053272, NaN, NaN, NaN, 0.0445584, "- N/A -   "
31.89, 1351.2, 0.05333863, NaN, NaN, NaN, 0.0445584, "- N/A -   "
31.93, 1353.11, 0.053408, NaN, NaN, NaN, 0.0433376, "- N/A -   "
31.97, 1355.13, 0.05348024, NaN, NaN, NaN, 0.04211683, "- N/A -   "
32.01, 1357.16, 0.0535524, NaN, NaN, NaN, 0.0384545, "- N/A -   "
32.05, 1359.19, 0.0536302, NaN, NaN, NaN, 0.0335714, "- N/A -   "
32.09, 1361.335, 0.0537079, NaN, NaN, NaN, 0.0299091, "- N/A -   "
32.13, 1363.12, 0.0537746, NaN, NaN, NaN, 0.0286883, "- N/A -   "
32.17, 1364.91, 0.0538412, NaN, NaN, NaN, 0.0286883, "- N/A -   "
32.21, 1366.7, 0.0539051, NaN, NaN, NaN, 0.0299091, "- N/A -   "
32.229, 1367.66, 0.0539412, NaN, NaN, NaN, 0.0286883, "- N/A -   "