File: 2_Tensile_Data/Hamel_ForceTest_Bolt9_Test4.csv
Time, Load (lb), Position (in), AxialStrain (in), TransverseStrain (in), Auxiliary (), Control Out (V), Stress (psi)
0.0, 1.41537, 0.0, NaN, NaN, NaN, 0.101935, "- N/A -   "
0.01, 1.88716, 3.054427E-5, NaN, NaN, NaN, 0.104376, "- N/A -   "
0.02, 2.35895, 6.6642e-05, NaN, NaN, NaN, 0.09705182, "- N/A -   "
0.03, 2.83074, 9.718631E-5, NaN, NaN, NaN, 0.0897272, "- N/A -   "
0.04, 3.18458, 0.000130507, NaN, NaN, NaN, 0.08240249, "- N/A -   "
0.05, 3.65637, 1.610516E-4, NaN, NaN, NaN, 0.0762986, "- N/A -   "
0.06, 4.12816, 0.000194373, NaN, NaN, NaN, 0.0689739, "- N/A -   "
0.07, 4.482, 0.000224917, NaN, NaN, NaN, 0.0640908, "- N/A -   "
0.08, 4.83585, 0.000249908, NaN, NaN, NaN, 0.0592077, "- N/A -   "
0.09, 5.071741, 2.721217E-4, NaN, NaN, NaN, 0.05676616, "- N/A -   "
0.1, 5.425584, 0.000294336, NaN, NaN, NaN, 0.0555454, "- N/A -   "
0.11, 5.66148, 0.000313773, NaN, NaN, NaN, 0.0531038, "- N/A -   "
0.12, 5.897373, 0.000335987, NaN, NaN, NaN, 0.05066227, "- N/A -   "
0.13, 6.13327, 0.000358201, NaN, NaN, NaN, 0.0494415, "- N/A -   "
0.14, 6.369163, 3.748615E-4, NaN, NaN, NaN, 0.0482207, "- N/A -   "
0.15, 6.60506, 0.000391522, NaN, NaN, NaN, 0.0482207, "- N/A -   "
0.16, 6.84095, 4.081825E-4, NaN, NaN, NaN, 0.0482207, "- N/A -   "
0.17, 6.9589, 0.000424843, NaN, NaN, NaN, 0.0482207, "- N/A -   "
0.18, 7.1948, 0.000441504, NaN, NaN, NaN, 0.0494415, "- N/A -   "
0.19, 7.430691, 4.553873E-4, NaN, NaN, NaN, 0.05066227, "- N/A -   "
0.2, 7.548638, 0.000469271, NaN, NaN, NaN, 0.05066227, "- N/A -   "
0.21, 7.90248, 0.000485932, NaN, NaN, NaN, 0.05066227, "- N/A -   "
0.22, 8.020428, 0.000502592, NaN, NaN, NaN, 0.05066227, "- N/A -   "
0.23, 8.256323, 5.192526E-4, NaN, NaN, NaN, 0.05066227, "- N/A -   "
0.24, 8.37427, 5.359131E-4, NaN, NaN, NaN, 0.05066227, "- N/A -   "
0.25, 8.610166, 5.525736E-4, NaN, NaN, NaN, 0.05066227, "- N/A -   "
0.26, 8.846061, 0.000569234, NaN, NaN, NaN, 0.05188305, "- N/A -   "
0.27, 9.081955, 5.858946E-4, NaN, NaN, NaN, 0.05188305, "- N/A -   "
0.28, 9.31785, 0.000602555, NaN, NaN, NaN, 0.05188305, "- N/A -   "
0.29, 9.553744, 0.000619216, NaN, NaN, NaN, 0.05066227, "- N/A -   "
0.3, 9.78964, 0.000638653, NaN, NaN, NaN, 0.0494415, "- N/A -   "
0.31, 10.0255, 0.00065809, NaN, NaN, NaN, 0.0482207, "- N/A -   "
0.32, 10.26143, 6.747507E-4, NaN, NaN, NaN, 0.0482207, "- N/A -   "
0.33, 10.4973, 0.000694188, NaN, NaN, NaN, 0.04699994, "- N/A -   "
0.34, 10.73322, 7.136252E-4, NaN, NaN, NaN, 0.04577916, "- N/A -   "
0.35, 10.9691, 0.000733062, NaN, NaN, NaN, 0.0445584, "- N/A -   "
0.36, 11.323, 7.552765E-4, NaN, NaN, NaN, 0.0433376, "- N/A -   "
0.37, 11.5589, 0.000774714, NaN, NaN, NaN, 0.04089605, "- N/A -   "
0.38, 11.7947, 0.000791374, NaN, NaN, NaN, 0.04089605, "- N/A -   "
0.39, 11.9127, 8.108115E-4, NaN, NaN, NaN, 0.0396753, "- N/A -   "
0.4, 12.2665, 8.302488E-4, NaN, NaN, NaN, 0.0396753, "- N/A -   "
0.41, 12.5024, 8.469093E-4, NaN, NaN, NaN, 0.0384545, "- N/A -   "
0.44, 13.2101, 0.000902444, NaN, NaN, NaN, 0.03601294, "- N/A -   "
0.47, 13.7999, 9.552026E-4, NaN, NaN, NaN, 0.0347922, "- N/A -   "
0.5, 14.6255, 0.00100796, NaN, NaN, NaN, 0.0335714, "- N/A -   "
0.53, 15.4511, 0.001063496, NaN, NaN, NaN, 0.03112983, "- N/A -   "
0.56, 16.1588, 0.001119031, NaN, NaN, NaN, 0.0286883, "- N/A -   "
0.59, 16.74854, 0.00116901, NaN, NaN, NaN, 0.0286883, "- N/A -   "
0.62, 17.4562, 0.001218994, NaN, NaN, NaN, 0.0286883, "- N/A -   "
0.65, 18.16391, 0.00126898, NaN, NaN, NaN, 0.0286883, "- N/A -   "
0.68, 18.8716, 0.00131618, NaN, NaN, NaN, 0.0299091, "- N/A -   "
0.71, 19.4613, 0.00136616, NaN, NaN, NaN, 0.03112983, "- N/A -   "
0.74, 20.169, 0.00141059, NaN, NaN, NaN, 0.0323506, "- N/A -   "
0.77, 20.7588, 0.001455018, NaN, NaN, NaN, 0.0347922, "- N/A -   "
0.8, 21.2305, 0.00149389, NaN, NaN, NaN, 0.04089605, "- N/A -   "
0.83, 21.93823, 0.00153554, NaN, NaN, NaN, 0.0433376, "- N/A -   "
0.86, 22.6459, 0.00158275, NaN, NaN, NaN, 0.0445584, "- N/A -   "
0.89, 23.4715, 0.00163551, NaN, NaN, NaN, 0.0445584, "- N/A -   "
0.92, 24.1792, 0.00168271, NaN, NaN, NaN, 0.0445584, "- N/A -   "
0.95, 25.0049, 0.00173547, NaN, NaN, NaN, 0.0445584, "- N/A -   "
0.98, 25.7125, 0.001779898, NaN, NaN, NaN, 0.04577916, "- N/A -   "
1.01, 26.5382, 0.00183266, NaN, NaN, NaN, 0.0445584, "- N/A -   "
1.04, 27.3638, 0.00188541, NaN, NaN, NaN, 0.0433376, "- N/A -   "
1.07, 28.3074, 0.00194373, NaN, NaN, NaN, 0.0396753, "- N/A -   "
1.1, 29.251, 0.00200481, NaN, NaN, NaN, 0.0347922, "- N/A -   "
1.13, 30.1946, 0.00206868, NaN, NaN, NaN, 0.0299091, "- N/A -   "
1.16, 31.1381, 0.00212144, NaN, NaN, NaN, 0.0274675, "- N/A -   "
1.19, 31.72787, 0.002168643, NaN, NaN, NaN, 0.0286883, "- N/A -   "
1.22, 32.67145, 0.00221862, NaN, NaN, NaN, 0.0299091, "- N/A -   "
1.25, 33.3791, 0.00226583, NaN, NaN, NaN, 0.0299091, "- N/A -   "
1.28, 34.08682, 0.00231303, NaN, NaN, NaN, 0.0323506, "- N/A -   "
1.31, 34.9125, 0.00235746, NaN, NaN, NaN, 0.0335714, "- N/A -   "
1.34, 35.7381, 0.00240467, NaN, NaN, NaN, 0.03601294, "- N/A -   "
1.37, 36.5637, 0.00245187, NaN, NaN, NaN, 0.03601294, "- N/A -   "
1.4, 37.3893, 0.00249908, NaN, NaN, NaN, 0.0384545, "- N/A -   "
1.43, 38.215, 0.00254906, NaN, NaN, NaN, 0.0384545, "- N/A -   "
1.46, 39.04061, 0.00259904, NaN, NaN, NaN, 0.0384545, "- N/A -   "
1.49, 39.7483, 0.00264624, NaN, NaN, NaN, 0.0384545, "- N/A -   "
1.52, 40.57393, 0.00269345, NaN, NaN, NaN, 0.04089605, "- N/A -   "
1.55, 41.39956, 0.00273788, NaN, NaN, NaN, 0.04211683, "- N/A -   "
1.58, 42.2252, 0.002785082, NaN, NaN, NaN, 0.0433376, "- N/A -   "
1.61, 43.0508, 0.00283229, NaN, NaN, NaN, 0.04577916, "- N/A -   "
1.64, 43.9944, 0.00287949, NaN, NaN, NaN, 0.04577916, "- N/A -   "
1.67, 44.93799, 0.00293225, NaN, NaN, NaN, 0.04577916, "- N/A -   "
1.7, 45.8816, 0.00299056, NaN, NaN, NaN, 0.04089605, "- N/A -   "
1.73, 47.179, 0.00304887, NaN, NaN, NaN, 0.0372337, "- N/A -   "
1.76, 48.12257, 0.00310719, NaN, NaN, NaN, 0.0335714, "- N/A -   "
1.79, 49.1841, 0.00316272, NaN, NaN, NaN, 0.03112983, "- N/A -   "
1.82, 50.1277, 0.00321826, NaN, NaN, NaN, 0.0286883, "- N/A -   "
1.85, 50.9533, 0.00326546, NaN, NaN, NaN, 0.0299091, "- N/A -   "
1.88, 51.7789, 0.003312665, NaN, NaN, NaN, 0.0323506, "- N/A -   "
1.91, 52.72252, 0.003357093, NaN, NaN, NaN, 0.0335714, "- N/A -   "
1.94, 53.6661, 0.003404298, NaN, NaN, NaN, 0.0347922, "- N/A -   "
1.97, 54.6097, 0.00345428, NaN, NaN, NaN, 0.0347922, "- N/A -   "
2, 55.6712, 0.00350704, NaN, NaN, NaN, 0.0347922, "- N/A -   "
2.03, 56.6148, 0.00355702, NaN, NaN, NaN, 0.0335714, "- N/A -   "
2.06, 57.5584, 0.003607, NaN, NaN, NaN, 0.0335714, "- N/A -   "
2.09, 58.5019, 0.00365976, NaN, NaN, NaN, 0.0323506, "- N/A -   "
2.12, 59.4455, 0.00370696, NaN, NaN, NaN, 0.0335714, "- N/A -   "
2.15, 60.3891, 0.00375139, NaN, NaN, NaN, 0.03601294, "- N/A -   "
2.18, 61.2147, 0.00379582, NaN, NaN, NaN, 0.0384545, "- N/A -   "
2.21, 62.0404, 0.00384025, NaN, NaN, NaN, 0.04089605, "- N/A -   "
2.24, 62.98395, 0.00389023, NaN, NaN, NaN, 0.04089605, "- N/A -   "
2.27, 64.16342, 0.00394299, NaN, NaN, NaN, 0.0396753, "- N/A -   "
2.3, 65.107, 0.003995746, NaN, NaN, NaN, 0.0384545, "- N/A -   "
2.33, 66.05058, 0.00404573, NaN, NaN, NaN, 0.0396753, "- N/A -   "
2.36, 67.1121, 0.00409293, NaN, NaN, NaN, 0.04089605, "- N/A -   "
2.39, 68.05569, 0.00414569, NaN, NaN, NaN, 0.0396753, "- N/A -   "
2.42, 69.11722, 0.004195672, NaN, NaN, NaN, 0.0384545, "- N/A -   "
2.45, 70.29669, 0.00424565, NaN, NaN, NaN, 0.0384545, "- N/A -   "
2.48, 71.24027, 0.00430119, NaN, NaN, NaN, 0.0372337, "- N/A -   "
2.51, 72.41975, 0.004353947, NaN, NaN, NaN, 0.0347922, "- N/A -   "
2.54, 73.36333, 0.004406705, NaN, NaN, NaN, 0.0335714, "- N/A -   "
2.57, 74.42485, 0.004456687, NaN, NaN, NaN, 0.0347922, "- N/A -   "
2.6, 75.48638, 0.004506668, NaN, NaN, NaN, 0.0335714, "- N/A -   "
2.63, 76.43, 0.00455665, NaN, NaN, NaN, 0.0347922, "- N/A -   "
2.66, 77.49149, 0.004606631, NaN, NaN, NaN, 0.0335714, "- N/A -   "
2.69, 78.4351, 0.004656613, NaN, NaN, NaN, 0.0335714, "- N/A -   "
2.72, 79.61454, 0.004709371, NaN, NaN, NaN, 0.0323506, "- N/A -   "
2.75, 80.44018, 0.004756576, NaN, NaN, NaN, 0.0335714, "- N/A -   "
2.78, 81.5017, 0.004809334, NaN, NaN, NaN, 0.0335714, "- N/A -   "
2.81, 82.44528, 0.004859315, NaN, NaN, NaN, 0.0335714, "- N/A -   "
2.84, 83.50681, 0.004909297, NaN, NaN, NaN, 0.0335714, "- N/A -   "
2.87, 84.45039, 0.00495373, NaN, NaN, NaN, 0.0347922, "- N/A -   "
2.9, 85.39397, 0.00500093, NaN, NaN, NaN, 0.03601294, "- N/A -   "
2.93, 86.33755, 0.00504813, NaN, NaN, NaN, 0.0372337, "- N/A -   "
2.96, 87.28113, 0.00509256, NaN, NaN, NaN, 0.0396753, "- N/A -   "
2.99, 88.4606, 0.00514254, NaN, NaN, NaN, 0.04089605, "- N/A -   "
3.02, 89.16828, 0.005186972, NaN, NaN, NaN, 0.04211683, "- N/A -   "
3.05, 90.34776, 0.005234177, NaN, NaN, NaN, 0.0433376, "- N/A -   "
3.08, 91.40929, 0.00528416, NaN, NaN, NaN, 0.0433376, "- N/A -   "
3.11, 92.47082, 0.00533969, NaN, NaN, NaN, 0.04089605, "- N/A -   "
3.14, 93.65029, 0.00539523, NaN, NaN, NaN, 0.0384545, "- N/A -   "
3.17, 94.9477, 0.00545354, NaN, NaN, NaN, 0.0347922, "- N/A -   "
3.2, 96.12719, 0.00550908, NaN, NaN, NaN, 0.0323506, "- N/A -   "
3.23, 96.95282, 0.00555628, NaN, NaN, NaN, 0.0335714, "- N/A -   "
3.26, 98.01435, 0.00560626, NaN, NaN, NaN, 0.0347922, "- N/A -   "
3.29, 99.0759, 0.005656244, NaN, NaN, NaN, 0.0347922, "- N/A -   "
3.32, 100.019, 0.005706225, NaN, NaN, NaN, 0.0335714, "- N/A -   "
3.35, 101.199, 0.005756207, NaN, NaN, NaN, 0.0335714, "- N/A -   "
3.38, 102.3784, 0.005808965, NaN, NaN, NaN, 0.0323506, "- N/A -   "
3.41, 103.44, 0.0058645, NaN, NaN, NaN, 0.0299091, "- N/A -   "
3.44, 104.501, 0.005914481, NaN, NaN, NaN, 0.03112983, "- N/A -   "
3.47, 105.563, 0.005958909, NaN, NaN, NaN, 0.0323506, "- N/A -   "
3.5, 106.507, 0.006008891, NaN, NaN, NaN, 0.0323506, "- N/A -   "
3.53, 107.45, 0.006056096, NaN, NaN, NaN, 0.03601294, "- N/A -   "
3.56, 108.394, 0.006097747, NaN, NaN, NaN, 0.0384545, "- N/A -   "
3.59, 109.101, 0.006139398, NaN, NaN, NaN, 0.04211683, "- N/A -   "
3.62, 110.163, 0.00618938, NaN, NaN, NaN, 0.0433376, "- N/A -   "
3.65, 111.224, 0.006233808, NaN, NaN, NaN, 0.0445584, "- N/A -   "
3.68, 112.286, 0.006281012, NaN, NaN, NaN, 0.04577916, "- N/A -   "
3.71, 113.465, 0.00633655, NaN, NaN, NaN, 0.0445584, "- N/A -   "
3.74, 114.527, 0.006389306, NaN, NaN, NaN, 0.04211683, "- N/A -   "
3.77, 115.706, 0.00644206, NaN, NaN, NaN, 0.04211683, "- N/A -   "
3.8, 116.768, 0.00649482, NaN, NaN, NaN, 0.0396753, "- N/A -   "
3.83, 117.947, 0.006547581, NaN, NaN, NaN, 0.0384545, "- N/A -   "
3.86, 119.127, 0.006603116, NaN, NaN, NaN, 0.0372337, "- N/A -   "
3.89, 120.188, 0.006655874, NaN, NaN, NaN, 0.03601294, "- N/A -   "
3.92, 121.486, 0.006708632, NaN, NaN, NaN, 0.0347922, "- N/A -   "
3.95, 122.429, 0.00676139, NaN, NaN, NaN, 0.0335714, "- N/A -   "
3.98, 123.609, 0.0068086, NaN, NaN, NaN, 0.0335714, "- N/A -   "
4.01, 124.788, 0.00686135, NaN, NaN, NaN, 0.0323506, "- N/A -   "
4.04, 125.9679, 0.00691411, NaN, NaN, NaN, 0.03112983, "- N/A -   "
4.07, 126.911, 0.00696409, NaN, NaN, NaN, 0.03112983, "- N/A -   "
4.1, 128.091, 0.00701408, NaN, NaN, NaN, 0.03112983, "- N/A -   "
4.13, 129.152, 0.00706406, NaN, NaN, NaN, 0.03112983, "- N/A -   "
4.16, 130.214, 0.00711404, NaN, NaN, NaN, 0.03112983, "- N/A -   "
4.19, 131.04, 0.00715569, NaN, NaN, NaN, 0.0347922, "- N/A -   "
4.22, 131.983, 0.00719734, NaN, NaN, NaN, 0.0384545, "- N/A -   "
4.25, 132.9268, 0.007238992, NaN, NaN, NaN, 0.04211683, "- N/A -   "
4.28, 133.87, 0.0072862, NaN, NaN, NaN, 0.0433376, "- N/A -   "
4.31, 134.932, 0.0073334, NaN, NaN, NaN, 0.0445584, "- N/A -   "
4.34, 135.993, 0.00738616, NaN, NaN, NaN, 0.0445584, "- N/A -   "
4.37, 137.055, 0.00743336, NaN, NaN, NaN, 0.0445584, "- N/A -   "
4.4, 138.234, 0.007483346, NaN, NaN, NaN, 0.04577916, "- N/A -   "
4.43, 139.178, 0.00753333, NaN, NaN, NaN, 0.0445584, "- N/A -   "
4.46, 140.593, 0.007588863, NaN, NaN, NaN, 0.04211683, "- N/A -   "
4.49, 141.773, 0.0076444, NaN, NaN, NaN, 0.0396753, "- N/A -   "
4.52, 143.07, 0.007705486, NaN, NaN, NaN, 0.0347922, "- N/A -   "
4.55, 144.368, 0.007763798, NaN, NaN, NaN, 0.03112983, "- N/A -   "
4.58, 145.547, 0.007819333, NaN, NaN, NaN, 0.0299091, "- N/A -   "
4.61, 146.6087, 0.007869315, NaN, NaN, NaN, 0.0286883, "- N/A -   "
4.64, 147.788, 0.007916519, NaN, NaN, NaN, 0.0299091, "- N/A -   "
4.67, 148.8497, 0.007966501, NaN, NaN, NaN, 0.03112983, "- N/A -   "
4.7, 149.675, 0.008013706, NaN, NaN, NaN, 0.03112983, "- N/A -   "
4.73, 150.855, 0.008060911, NaN, NaN, NaN, 0.0323506, "- N/A -   "
4.76, 151.68, 0.008108115, NaN, NaN, NaN, 0.0335714, "- N/A -   "
4.79, 152.742, 0.00815532, NaN, NaN, NaN, 0.03601294, "- N/A -   "
4.82, 153.8035, 0.008199749, NaN, NaN, NaN, 0.0372337, "- N/A -   "
4.85, 154.747, 0.008244176, NaN, NaN, NaN, 0.0396753, "- N/A -   "
4.88, 155.809, 0.008296934, NaN, NaN, NaN, 0.0396753, "- N/A -   "
4.91, 156.988, 0.008346916, NaN, NaN, NaN, 0.0384545, "- N/A -   "
4.94, 157.932, 0.00839412, NaN, NaN, NaN, 0.0396753, "- N/A -   "
4.97, 158.9932, 0.008441325, NaN, NaN, NaN, 0.04211683, "- N/A -   "
5, 159.937, 0.00848853, NaN, NaN, NaN, 0.04211683, "- N/A -   "
5.03, 160.88, 0.008532958, NaN, NaN, NaN, 0.0445584, "- N/A -   "
5.06, 162.06, 0.008582939, NaN, NaN, NaN, 0.0445584, "- N/A -   "
5.09, 163.357, 0.008641251, NaN, NaN, NaN, 0.04089605, "- N/A -   "
5.12, 164.655, 0.008699563, NaN, NaN, NaN, 0.0372337, "- N/A -   "
5.15, 165.834, 0.008755099, NaN, NaN, NaN, 0.0347922, "- N/A -   "
5.18, 166.896, 0.008802303, NaN, NaN, NaN, 0.03601294, "- N/A -   "
5.21, 167.9572, 0.008855062, NaN, NaN, NaN, 0.0347922, "- N/A -   "
5.24, 169.137, 0.008910596, NaN, NaN, NaN, 0.0323506, "- N/A -   "
5.27, 170.1982, 0.008963355, NaN, NaN, NaN, 0.0323506, "- N/A -   "
5.3, 171.142, 0.009007783, NaN, NaN, NaN, 0.0335714, "- N/A -   "
5.33, 172.203, 0.009054988, NaN, NaN, NaN, 0.0347922, "- N/A -   "
5.36, 173.1469, 0.00909942, NaN, NaN, NaN, 0.0372337, "- N/A -   "
5.39, 174.208, 0.009149397, NaN, NaN, NaN, 0.0372337, "- N/A -   "
5.42, 175.388, 0.009202156, NaN, NaN, NaN, 0.03601294, "- N/A -   "
5.45, 176.567, 0.009257691, NaN, NaN, NaN, 0.0335714, "- N/A -   "
5.48, 177.629, 0.009313226, NaN, NaN, NaN, 0.03112983, "- N/A -   "
5.51, 178.572, 0.00936043, NaN, NaN, NaN, 0.0323506, "- N/A -   "
5.54, 179.516, 0.009407635, NaN, NaN, NaN, 0.0335714, "- N/A -   "
5.57, 180.46, 0.009452064, NaN, NaN, NaN, 0.03601294, "- N/A -   "
5.6, 181.521, 0.009499268, NaN, NaN, NaN, 0.0372337, "- N/A -   "
5.63, 182.229, 0.009540919, NaN, NaN, NaN, 0.04089605, "- N/A -   "
5.66, 183.29, 0.009590901, NaN, NaN, NaN, 0.04211683, "- N/A -   "
5.69, 184.47, 0.00964366, NaN, NaN, NaN, 0.0396753, "- N/A -   "
5.72, 185.531, 0.009693641, NaN, NaN, NaN, 0.0396753, "- N/A -   "
5.75, 186.475, 0.009740846, NaN, NaN, NaN, 0.04089605, "- N/A -   "
5.78, 187.536, 0.00979083, NaN, NaN, NaN, 0.04089605, "- N/A -   "
5.81, 188.716, 0.00984914, NaN, NaN, NaN, 0.0372337, "- N/A -   "
5.84, 189.777, 0.009901898, NaN, NaN, NaN, 0.0372337, "- N/A -   "
5.87, 190.721, 0.009951879, NaN, NaN, NaN, 0.0372337, "- N/A -   "
5.9, 191.7826, 0.0100019, NaN, NaN, NaN, 0.03601294, "- N/A -   "
5.93, 192.844, 0.0100546, NaN, NaN, NaN, 0.03601294, "- N/A -   "
5.96, 193.7877, 0.0101018, NaN, NaN, NaN, 0.03601294, "- N/A -   "
5.99, 194.731, 0.0101518, NaN, NaN, NaN, 0.03601294, "- N/A -   "
6.02, 195.911, 0.01020734, NaN, NaN, NaN, 0.0335714, "- N/A -   "
6.05, 196.854, 0.0102573, NaN, NaN, NaN, 0.0347922, "- N/A -   "
6.08, 197.916, 0.0103073, NaN, NaN, NaN, 0.0335714, "- N/A -   "
6.11, 198.859, 0.0103573, NaN, NaN, NaN, 0.0335714, "- N/A -   "
6.14, 199.921, 0.01041, NaN, NaN, NaN, 0.0323506, "- N/A -   "
6.17, 200.865, 0.0104572, NaN, NaN, NaN, 0.0347922, "- N/A -   "
6.2, 201.808, 0.0105017, NaN, NaN, NaN, 0.03601294, "- N/A -   "
6.23, 202.7517, 0.0105572, NaN, NaN, NaN, 0.0347922, "- N/A -   "
6.26, 203.931, 0.0106072, NaN, NaN, NaN, 0.0335714, "- N/A -   "
6.29, 204.521, 0.01065162, NaN, NaN, NaN, 0.0372337, "- N/A -   "
6.32, 205.582, 0.0106988, NaN, NaN, NaN, 0.0372337, "- N/A -   "
6.35, 206.526, 0.01074603, NaN, NaN, NaN, 0.0384545, "- N/A -   "
6.38, 207.4696, 0.0107932, NaN, NaN, NaN, 0.0396753, "- N/A -   "
6.41, 208.295, 0.01084044, NaN, NaN, NaN, 0.04089605, "- N/A -   "
6.44, 209.121, 0.0108876, NaN, NaN, NaN, 0.04211683, "- N/A -   "
6.47, 210.3, 0.0109376, NaN, NaN, NaN, 0.04211683, "- N/A -   "
6.5, 211.362, 0.0109904, NaN, NaN, NaN, 0.04089605, "- N/A -   "
6.53, 212.4234, 0.0110431, NaN, NaN, NaN, 0.0396753, "- N/A -   "
6.56, 213.485, 0.0110987, NaN, NaN, NaN, 0.0384545, "- N/A -   "
6.59, 214.546, 0.0111514, NaN, NaN, NaN, 0.03601294, "- N/A -   "
6.62, 215.726, 0.011207, NaN, NaN, NaN, 0.0347922, "- N/A -   "
6.65, 216.67, 0.011257, NaN, NaN, NaN, 0.0335714, "- N/A -   "
6.68, 217.849, 0.0113097, NaN, NaN, NaN, 0.0323506, "- N/A -   "
6.71, 218.793, 0.0113597, NaN, NaN, NaN, 0.0335714, "- N/A -   "
6.74, 219.6182, 0.0114069, NaN, NaN, NaN, 0.0335714, "- N/A -   "
6.77, 220.68, 0.0114569, NaN, NaN, NaN, 0.0335714, "- N/A -   "
6.8, 221.859, 0.0115124, NaN, NaN, NaN, 0.03112983, "- N/A -   "
6.83, 222.921, 0.0115679, NaN, NaN, NaN, 0.0286883, "- N/A -   "
6.86, 224.1002, 0.0116179, NaN, NaN, NaN, 0.0286883, "- N/A -   "
6.89, 225.044, 0.0116679, NaN, NaN, NaN, 0.0286883, "- N/A -   "
6.92, 225.8694, 0.01171234, NaN, NaN, NaN, 0.03112983, "- N/A -   "
6.95, 226.695, 0.011754, NaN, NaN, NaN, 0.0347922, "- N/A -   "
6.98, 227.403, 0.0117984, NaN, NaN, NaN, 0.0384545, "- N/A -   "
7.01, 228.228, 0.0118373, NaN, NaN, NaN, 0.0433376, "- N/A -   "
7.04, 229.172, 0.0118817, NaN, NaN, NaN, 0.04577916, "- N/A -   "
7.07, 230.233, 0.0119289, NaN, NaN, NaN, 0.04577916, "- N/A -   "
7.1, 231.295, 0.0119817, NaN, NaN, NaN, 0.0445584, "- N/A -   "
7.13, 232.357, 0.0120344, NaN, NaN, NaN, 0.0445584, "- N/A -   "
7.16, 233.418, 0.0120872, NaN, NaN, NaN, 0.04211683, "- N/A -   "
7.19, 234.598, 0.0121455, NaN, NaN, NaN, 0.0384545, "- N/A -   "
7.22, 235.659, 0.0121955, NaN, NaN, NaN, 0.0384545, "- N/A -   "
7.25, 236.839, 0.01225103, NaN, NaN, NaN, 0.03601294, "- N/A -   "
7.28, 237.7821, 0.012301, NaN, NaN, NaN, 0.0372337, "- N/A -   "
7.31, 238.608, 0.0123482, NaN, NaN, NaN, 0.0384545, "- N/A -   "
7.34, 239.787, 0.0124038, NaN, NaN, NaN, 0.0347922, "- N/A -   "
7.37, 241.085, 0.0124621, NaN, NaN, NaN, 0.0323506, "- N/A -   "
7.4, 242.146, 0.0125148, NaN, NaN, NaN, 0.0299091, "- N/A -   "
7.43, 243.207, 0.0125704, NaN, NaN, NaN, 0.0286883, "- N/A -   "
7.46, 244.2674, 0.0126203, NaN, NaN, NaN, 0.0274675, "- N/A -   "
7.49, 245.328, 0.0126731, NaN, NaN, NaN, 0.0262467, "- N/A -   "
7.52, 246.153, 0.0127203, NaN, NaN, NaN, 0.0286883, "- N/A -   "
7.55, 247.095, 0.012762, NaN, NaN, NaN, 0.03112983, "- N/A -   "
7.58, 247.92, 0.01280638, NaN, NaN, NaN, 0.0335714, "- N/A -   "
7.61, 248.863, 0.012848, NaN, NaN, NaN, 0.0372337, "- N/A -   "
7.64, 249.6874, 0.0128897, NaN, NaN, NaN, 0.04089605, "- N/A -   "
7.67, 250.748, 0.0129369, NaN, NaN, NaN, 0.04211683, "- N/A -   "
7.7, 251.455, 0.0129813, NaN, NaN, NaN, 0.0445584, "- N/A -   "
7.73, 252.515, 0.0130313, NaN, NaN, NaN, 0.0445584, "- N/A -   "
7.76, 253.811, 0.0130868, NaN, NaN, NaN, 0.04211683, "- N/A -   "
7.79, 254.872, 0.0131368, NaN, NaN, NaN, 0.04211683, "- N/A -   "
7.82, 255.932, 0.0131868, NaN, NaN, NaN, 0.04211683, "- N/A -   "
7.85, 257.11, 0.01324233, NaN, NaN, NaN, 0.0396753, "- N/A -   "
7.88, 258.053, 0.0132979, NaN, NaN, NaN, 0.0384545, "- N/A -   "
7.91, 259.113, 0.0133506, NaN, NaN, NaN, 0.03601294, "- N/A -   "
7.94, 260.41, 0.0134089, NaN, NaN, NaN, 0.0335714, "- N/A -   "
7.97, 261.588, 0.0134617, NaN, NaN, NaN, 0.03112983, "- N/A -   "
8, 262.766, 0.0135172, NaN, NaN, NaN, 0.0299091, "- N/A -   "
8.03, 263.7087, 0.01357, NaN, NaN, NaN, 0.0286883, "- N/A -   "
8.06, 264.887, 0.01362, NaN, NaN, NaN, 0.0286883, "- N/A -   "
8.09, 265.712, 0.0136672, NaN, NaN, NaN, 0.0299091, "- N/A -   "
8.12, 266.7722, 0.0137144, NaN, NaN, NaN, 0.03112983, "- N/A -   "
8.15, 267.715, 0.013756, NaN, NaN, NaN, 0.0347922, "- N/A -   "
8.18, 268.54, 0.0138005, NaN, NaN, NaN, 0.0372337, "- N/A -   "
8.21, 269.6, 0.0138477, NaN, NaN, NaN, 0.0384545, "- N/A -   "
8.24, 270.66, 0.0139004, NaN, NaN, NaN, 0.0384545, "- N/A -   "
8.27, 271.7209, 0.0139532, NaN, NaN, NaN, 0.0372337, "- N/A -   "
8.3, 272.7813, 0.01400316, NaN, NaN, NaN, 0.0372337, "- N/A -   "
8.33, 273.7239, 0.0140476, NaN, NaN, NaN, 0.0384545, "- N/A -   "
8.36, 274.667, 0.014092, NaN, NaN, NaN, 0.04089605, "- N/A -   "
8.39, 275.609, 0.0141337, NaN, NaN, NaN, 0.0445584, "- N/A -   "
8.42, 276.552, 0.0141809, NaN, NaN, NaN, 0.04577916, "- N/A -   "
8.45, 277.612, 0.0142309, NaN, NaN, NaN, 0.04577916, "- N/A -   "
8.48, 278.79, 0.0142836, NaN, NaN, NaN, 0.0445584, "- N/A -   "
8.51, 279.9687, 0.0143419, NaN, NaN, NaN, 0.04211683, "- N/A -   "
8.54, 281.147, 0.0143975, NaN, NaN, NaN, 0.0384545, "- N/A -   "
8.57, 282.561, 0.0144585, NaN, NaN, NaN, 0.0335714, "- N/A -   "
8.6, 283.739, 0.0145169, NaN, NaN, NaN, 0.0299091, "- N/A -   "
8.63, 284.8, 0.0145696, NaN, NaN, NaN, 0.0286883, "- N/A -   "
8.66, 285.86, 0.0146196, NaN, NaN, NaN, 0.0286883, "- N/A -   "
8.69, 286.9204, 0.0146668, NaN, NaN, NaN, 0.0299091, "- N/A -   "
8.72, 287.981, 0.014714, NaN, NaN, NaN, 0.03112983, "- N/A -   "
8.75, 288.9235, 0.0147584, NaN, NaN, NaN, 0.0335714, "- N/A -   "
8.78, 289.748, 0.0148029, NaN, NaN, NaN, 0.03601294, "- N/A -   "
8.81, 290.8087, 0.0148556, NaN, NaN, NaN, 0.03601294, "- N/A -   "
8.84, 291.8691, 0.0149056, NaN, NaN, NaN, 0.0347922, "- N/A -   "
8.87, 293.0474, 0.0149584, NaN, NaN, NaN, 0.0335714, "- N/A -   "
8.9, 294.108, 0.0150111, NaN, NaN, NaN, 0.0335714, "- N/A -   "
8.93, 295.05, 0.0150528, NaN, NaN, NaN, 0.03601294, "- N/A -   "
8.96, 295.8752, 0.0150972, NaN, NaN, NaN, 0.0384545, "- N/A -   "
8.99, 296.8178, 0.0151416, NaN, NaN, NaN, 0.04089605, "- N/A -   "
9.02, 297.76, 0.0151861, NaN, NaN, NaN, 0.0445584, "- N/A -   "
9.05, 298.5852, 0.0152277, NaN, NaN, NaN, 0.04699994, "- N/A -   "
9.08, 299.7635, 0.0152749, NaN, NaN, NaN, 0.0482207, "- N/A -   "
9.11, 300.9417, 0.0153332, NaN, NaN, NaN, 0.0445584, "- N/A -   "
9.14, 302.238, 0.01538876, NaN, NaN, NaN, 0.04211683, "- N/A -   "
9.17, 303.416, 0.0154471, NaN, NaN, NaN, 0.0396753, "- N/A -   "
9.2, 304.594, 0.0154998, NaN, NaN, NaN, 0.0384545, "- N/A -   "
9.23, 305.8904, 0.0155554, NaN, NaN, NaN, 0.0347922, "- N/A -   "
9.26, 307.0687, 0.0156109, NaN, NaN, NaN, 0.0335714, "- N/A -   "
9.29, 308.011, 0.0156581, NaN, NaN, NaN, 0.0335714, "- N/A -   "
9.32, 309.072, 0.01570531, NaN, NaN, NaN, 0.0347922, "- N/A -   "
9.35, 310.014, 0.0157525, NaN, NaN, NaN, 0.03601294, "- N/A -   "
9.38, 311.1926, 0.0158053, NaN, NaN, NaN, 0.03601294, "- N/A -   "
9.41, 312.371, 0.0158608, NaN, NaN, NaN, 0.0335714, "- N/A -   "
9.44, 313.549, 0.0159136, NaN, NaN, NaN, 0.03112983, "- N/A -   "
9.47, 314.7274, 0.0159635, NaN, NaN, NaN, 0.03112983, "- N/A -   "
9.5, 315.788, 0.0160135, NaN, NaN, NaN, 0.0323506, "- N/A -   "
9.53, 316.73, 0.0160607, NaN, NaN, NaN, 0.0323506, "- N/A -   "
9.56, 317.673, 0.0161052, NaN, NaN, NaN, 0.03601294, "- N/A -   "
9.59, 318.616, 0.0161524, NaN, NaN, NaN, 0.03601294, "- N/A -   "
9.62, 319.7939, 0.0162023, NaN, NaN, NaN, 0.03601294, "- N/A -   "
9.65, 320.9722, 0.0162551, NaN, NaN, NaN, 0.0347922, "- N/A -   "
9.68, 322.15, 0.0163079, NaN, NaN, NaN, 0.0347922, "- N/A -   "
9.71, 322.9752, 0.0163523, NaN, NaN, NaN, 0.0372337, "- N/A -   "
9.74, 323.8, 0.0163939, NaN, NaN, NaN, 0.0396753, "- N/A -   "
9.77, 324.86, 0.0164411, NaN, NaN, NaN, 0.04089605, "- N/A -   "
9.8, 325.921, 0.01649113, NaN, NaN, NaN, 0.04211683, "- N/A -   "
9.83, 326.863, 0.0165356, NaN, NaN, NaN, 0.0445584, "- N/A -   "
9.86, 328.042, 0.01658, NaN, NaN, NaN, 0.04577916, "- N/A -   "
9.89, 329.102, 0.01663552, NaN, NaN, NaN, 0.0433376, "- N/A -   "
9.92, 330.398, 0.0166855, NaN, NaN, NaN, 0.0433376, "- N/A -   "
9.95, 331.5765, 0.016741, NaN, NaN, NaN, 0.04089605, "- N/A -   "
9.98, 332.873, 0.01679935, NaN, NaN, NaN, 0.0372337, "- N/A -   "
10.01, 334.051, 0.0168549, NaN, NaN, NaN, 0.0347922, "- N/A -   "
10.04, 335.229, 0.0169076, NaN, NaN, NaN, 0.0335714, "- N/A -   "
10.07, 336.4074, 0.0169576, NaN, NaN, NaN, 0.0335714, "- N/A -   "
10.1, 337.586, 0.0170104, NaN, NaN, NaN, 0.0323506, "- N/A -   "
10.13, 338.528, 0.0170604, NaN, NaN, NaN, 0.0323506, "- N/A -   "
10.16, 339.589, 0.0171103, NaN, NaN, NaN, 0.0335714, "- N/A -   "
10.19, 340.885, 0.01716588, NaN, NaN, NaN, 0.03112983, "- N/A -   "
10.22, 342.181, 0.0172214, NaN, NaN, NaN, 0.0274675, "- N/A -   "
10.25, 343.3591, 0.0172742, NaN, NaN, NaN, 0.0262467, "- N/A -   "
10.28, 344.4196, 0.0173242, NaN, NaN, NaN, 0.0274675, "- N/A -   "
10.31, 345.362, 0.0173658, NaN, NaN, NaN, 0.0299091, "- N/A -   "
10.34, 346.187, 0.0174075, NaN, NaN, NaN, 0.0335714, "- N/A -   "
10.37, 347.247, 0.0174519, NaN, NaN, NaN, 0.03601294, "- N/A -   "
10.4, 348.072, 0.0174935, NaN, NaN, NaN, 0.0396753, "- N/A -   "
10.43, 349.015, 0.01753519, NaN, NaN, NaN, 0.0433376, "- N/A -   "
10.46, 350.075, 0.0175824, NaN, NaN, NaN, 0.0445584, "- N/A -   "
10.49, 351.136, 0.0176296, NaN, NaN, NaN, 0.04577916, "- N/A -   "
10.52, 352.432, 0.01767958, NaN, NaN, NaN, 0.04577916, "- N/A -   "
10.55, 353.4922, 0.0177351, NaN, NaN, NaN, 0.0445584, "- N/A -   "
10.58, 354.788, 0.01779065, NaN, NaN, NaN, 0.04089605, "- N/A -   "
10.61, 355.8487, 0.0178434, NaN, NaN, NaN, 0.0396753, "- N/A -   "
10.64, 357.145, 0.0179017, NaN, NaN, NaN, 0.0372337, "- N/A -   "
10.67, 358.4409, 0.0179573, NaN, NaN, NaN, 0.0347922, "- N/A -   "
10.7, 359.5013, 0.0180045, NaN, NaN, NaN, 0.0347922, "- N/A -   "
10.73, 360.68, 0.0180572, NaN, NaN, NaN, 0.0347922, "- N/A -   "
10.76, 361.858, 0.0181072, NaN, NaN, NaN, 0.0335714, "- N/A -   "
10.79, 363.154, 0.0181655, NaN, NaN, NaN, 0.0299091, "- N/A -   "
10.82, 364.45, 0.018221, NaN, NaN, NaN, 0.0286883, "- N/A -   "
10.85, 365.7461, 0.018271, NaN, NaN, NaN, 0.0286883, "- N/A -   "
10.88, 366.6887, 0.01832101, NaN, NaN, NaN, 0.0274675, "- N/A -   "
10.91, 367.749, 0.0183682, NaN, NaN, NaN, 0.0299091, "- N/A -   "
10.94, 368.81, 0.0184126, NaN, NaN, NaN, 0.03112983, "- N/A -   "
10.97, 369.7522, 0.0184543, NaN, NaN, NaN, 0.0347922, "- N/A -   "
11, 370.813, 0.01849872, NaN, NaN, NaN, 0.0372337, "- N/A -   "
11.03, 371.755, 0.0185459, NaN, NaN, NaN, 0.0384545, "- N/A -   "
11.06, 372.6978, 0.0185904, NaN, NaN, NaN, 0.04089605, "- N/A -   "
11.09, 373.758, 0.0186376, NaN, NaN, NaN, 0.0433376, "- N/A -   "
11.12, 374.8187, 0.0186848, NaN, NaN, NaN, 0.0433376, "- N/A -   "
11.15, 376.1148, 0.0187375, NaN, NaN, NaN, 0.0433376, "- N/A -   "
11.18, 377.4109, 0.01879028, NaN, NaN, NaN, 0.04211683, "- N/A -   "
11.21, 378.353, 0.0188375, NaN, NaN, NaN, 0.04211683, "- N/A -   "
11.24, 379.532, 0.0188875, NaN, NaN, NaN, 0.04211683, "- N/A -   "
11.27, 380.71, 0.018943, NaN, NaN, NaN, 0.04089605, "- N/A -   "
11.3, 382.006, 0.018993, NaN, NaN, NaN, 0.0396753, "- N/A -   "
11.33, 383.184, 0.0190485, NaN, NaN, NaN, 0.0372337, "- N/A -   "
11.36, 384.598, 0.01910683, NaN, NaN, NaN, 0.0335714, "- N/A -   "
11.39, 385.777, 0.0191624, NaN, NaN, NaN, 0.03112983, "- N/A -   "
11.42, 387.0726, 0.0192151, NaN, NaN, NaN, 0.0299091, "- N/A -   "
11.45, 388.133, 0.0192651, NaN, NaN, NaN, 0.0299091, "- N/A -   "
11.48, 389.3113, 0.0193179, NaN, NaN, NaN, 0.0299091, "- N/A -   "
11.51, 390.49, 0.0193678, NaN, NaN, NaN, 0.0299091, "- N/A -   "
11.54, 391.55, 0.019415, NaN, NaN, NaN, 0.0299091, "- N/A -   "
11.57, 392.8461, 0.0194623, NaN, NaN, NaN, 0.03112983, "- N/A -   "
11.6, 393.671, 0.0195067, NaN, NaN, NaN, 0.0335714, "- N/A -   "
11.63, 394.7313, 0.0195539, NaN, NaN, NaN, 0.0347922, "- N/A -   "
11.66, 395.792, 0.0196011, NaN, NaN, NaN, 0.03601294, "- N/A -   "
11.69, 396.97, 0.0196511, NaN, NaN, NaN, 0.03601294, "- N/A -   "
11.72, 398.266, 0.0197011, NaN, NaN, NaN, 0.03601294, "- N/A -   "
11.75, 399.2087, 0.0197455, NaN, NaN, NaN, 0.0384545, "- N/A -   "
11.78, 400.1513, 0.01978991, NaN, NaN, NaN, 0.04089605, "- N/A -   "
11.81, 401.212, 0.0198343, NaN, NaN, NaN, 0.0433376, "- N/A -   "
11.84, 402.2722, 0.0198843, NaN, NaN, NaN, 0.0433376, "- N/A -   "
11.87, 403.568, 0.0199315, NaN, NaN, NaN, 0.0445584, "- N/A -   "
11.9, 404.6287, 0.01998706, NaN, NaN, NaN, 0.04211683, "- N/A -   "
11.93, 406.16, 0.0200454, NaN, NaN, NaN, 0.0396753, "- N/A -   "
11.96, 407.574, 0.0201009, NaN, NaN, NaN, 0.0372337, "- N/A -   "
11.99, 408.87, 0.02015922, NaN, NaN, NaN, 0.0335714, "- N/A -   "
12.02, 410.167, 0.0202148, NaN, NaN, NaN, 0.0299091, "- N/A -   "
12.05, 411.4626, 0.0202703, NaN, NaN, NaN, 0.0286883, "- N/A -   "
12.08, 412.523, 0.0203175, NaN, NaN, NaN, 0.0286883, "- N/A -   "
12.11, 413.466, 0.0203591, NaN, NaN, NaN, 0.0335714, "- N/A -   "
12.14, 414.5261, 0.0204036, NaN, NaN, NaN, 0.0347922, "- N/A -   "
12.17, 415.469, 0.020448, NaN, NaN, NaN, 0.0372337, "- N/A -   "
12.2, 416.647, 0.020498, NaN, NaN, NaN, 0.0372337, "- N/A -   "
12.23, 417.825, 0.0205507, NaN, NaN, NaN, 0.0372337, "- N/A -   "
12.26, 419.239, 0.0206035, NaN, NaN, NaN, 0.0347922, "- N/A -   "
12.29, 420.4174, 0.020659, NaN, NaN, NaN, 0.0335714, "- N/A -   "
12.32, 421.596, 0.020709, NaN, NaN, NaN, 0.0335714, "- N/A -   "
12.35, 422.6561, 0.0207507, NaN, NaN, NaN, 0.03601294, "- N/A -   "
12.38, 423.717, 0.0208006, NaN, NaN, NaN, 0.0372337, "- N/A -   "
12.41, 424.8948, 0.0208479, NaN, NaN, NaN, 0.0372337, "- N/A -   "
12.44, 425.955, 0.0208923, NaN, NaN, NaN, 0.0396753, "- N/A -   "
12.47, 427.016, 0.0209423, NaN, NaN, NaN, 0.0396753, "- N/A -   "
12.5, 428.312, 0.020995, NaN, NaN, NaN, 0.0396753, "- N/A -   "
12.53, 429.608, 0.021045, NaN, NaN, NaN, 0.0384545, "- N/A -   "
12.56, 430.786, 0.021095, NaN, NaN, NaN, 0.0384545, "- N/A -   "
12.59, 431.964, 0.021145, NaN, NaN, NaN, 0.0396753, "- N/A -   "
12.62, 433.1426, 0.0211977, NaN, NaN, NaN, 0.0384545, "- N/A -   "
12.65, 434.4387, 0.0212505, NaN, NaN, NaN, 0.0384545, "- N/A -   "
12.68, 435.617, 0.0213005, NaN, NaN, NaN, 0.0372337, "- N/A -   "
12.71, 436.6774, 0.02134767, NaN, NaN, NaN, 0.0384545, "- N/A -   "
12.74, 438.0913, 0.0214004, NaN, NaN, NaN, 0.0372337, "- N/A -   "
12.77, 439.0339, 0.0214504, NaN, NaN, NaN, 0.0384545, "- N/A -   "
12.8, 440.33, 0.0215032, NaN, NaN, NaN, 0.03601294, "- N/A -   "
12.83, 441.7439, 0.02156148, NaN, NaN, NaN, 0.0335714, "- N/A -   "
12.86, 442.922, 0.0216142, NaN, NaN, NaN, 0.0323506, "- N/A -   "
12.89, 444.218, 0.021667, NaN, NaN, NaN, 0.0299091, "- N/A -   "
12.92, 445.3965, 0.0217142, NaN, NaN, NaN, 0.03112983, "- N/A -   "
12.95, 446.5748, 0.021767, NaN, NaN, NaN, 0.0299091, "- N/A -   "
12.98, 447.635, 0.0218114, NaN, NaN, NaN, 0.0323506, "- N/A -   "
13.01, 448.813, 0.0218614, NaN, NaN, NaN, 0.0323506, "- N/A -   "
13.04, 449.874, 0.0219086, NaN, NaN, NaN, 0.0347922, "- N/A -   "
13.07, 451.0522, 0.0219586, NaN, NaN, NaN, 0.0335714, "- N/A -   "
13.1, 452.23, 0.0220085, NaN, NaN, NaN, 0.0347922, "- N/A -   "
13.13, 453.173, 0.0220502, NaN, NaN, NaN, 0.0372337, "- N/A -   "
13.16, 454.351, 0.0220946, NaN, NaN, NaN, 0.0396753, "- N/A -   "
13.19, 455.412, 0.0221418, NaN, NaN, NaN, 0.04089605, "- N/A -   "
13.22, 456.472, 0.022189, NaN, NaN, NaN, 0.04211683, "- N/A -   "
13.25, 457.5326, 0.0222335, NaN, NaN, NaN, 0.0445584, "- N/A -   "
13.28, 458.475, 0.0222751, NaN, NaN, NaN, 0.0482207, "- N/A -   "
13.31, 460.007, 0.0223279, NaN, NaN, NaN, 0.04699994, "- N/A -   "
13.34, 461.1852, 0.0223862, NaN, NaN, NaN, 0.0445584, "- N/A -   "
13.37, 462.599, 0.02244171, NaN, NaN, NaN, 0.04211683, "- N/A -   "
13.4, 464.131, 0.02250002, NaN, NaN, NaN, 0.0372337, "- N/A -   "
13.43, 465.427, 0.0225583, NaN, NaN, NaN, 0.0347922, "- N/A -   "
13.46, 466.723, 0.0226083, NaN, NaN, NaN, 0.0335714, "- N/A -   "
13.49, 467.901, 0.0226583, NaN, NaN, NaN, 0.0335714, "- N/A -   "
13.52, 468.962, 0.0227083, NaN, NaN, NaN, 0.0347922, "- N/A -   "
13.55, 470.0222, 0.0227527, NaN, NaN, NaN, 0.03601294, "- N/A -   "
13.58, 471.318, 0.0228027, NaN, NaN, NaN, 0.0372337, "- N/A -   "
13.61, 472.614, 0.0228582, NaN, NaN, NaN, 0.0347922, "- N/A -   "
13.64, 474.1461, 0.0229165, NaN, NaN, NaN, 0.0299091, "- N/A -   "
13.67, 475.442, 0.0229721, NaN, NaN, NaN, 0.0274675, "- N/A -   "
13.7, 476.62, 0.0230193, NaN, NaN, NaN, 0.0299091, "- N/A -   "
13.73, 477.563, 0.0230637, NaN, NaN, NaN, 0.0323506, "- N/A -   "
13.76, 478.6235, 0.0231054, NaN, NaN, NaN, 0.0347922, "- N/A -   "
13.79, 479.684, 0.02314978, NaN, NaN, NaN, 0.0372337, "- N/A -   "
13.82, 480.627, 0.0231914, NaN, NaN, NaN, 0.04089605, "- N/A -   "
13.85, 481.569, 0.0232331, NaN, NaN, NaN, 0.0445584, "- N/A -   "
13.88, 482.8652, 0.0232803, NaN, NaN, NaN, 0.04699994, "- N/A -   "
13.91, 483.926, 0.0233275, NaN, NaN, NaN, 0.04699994, "- N/A -   "
13.94, 485.222, 0.023383, NaN, NaN, NaN, 0.04577916, "- N/A -   "
13.97, 486.636, 0.0234386, NaN, NaN, NaN, 0.0433376, "- N/A -   "
14, 487.932, 0.0234913, NaN, NaN, NaN, 0.04211683, "- N/A -   "
14.03, 489.463, 0.0235496, NaN, NaN, NaN, 0.0384545, "- N/A -   "
14.06, 490.76, 0.02360239, NaN, NaN, NaN, 0.03601294, "- N/A -   "
14.09, 492.056, 0.0236579, NaN, NaN, NaN, 0.0335714, "- N/A -   "
14.12, 493.352, 0.0237107, NaN, NaN, NaN, 0.0323506, "- N/A -   "
14.15, 494.648, 0.0237634, NaN, NaN, NaN, 0.03112983, "- N/A -   "
14.18, 495.944, 0.0238218, NaN, NaN, NaN, 0.0286883, "- N/A -   "
14.21, 497.476, 0.02387729, NaN, NaN, NaN, 0.0250259, "- N/A -   "
14.24, 498.772, 0.02393, NaN, NaN, NaN, 0.0238052, "- N/A -   "
14.27, 499.95, 0.0239773, NaN, NaN, NaN, 0.0250259, "- N/A -   "
14.3, 501.128, 0.0240272, NaN, NaN, NaN, 0.0250259, "- N/A -   "
14.33, 502.1887, 0.0240717, NaN, NaN, NaN, 0.0274675, "- N/A -   "
14.36, 503.131, 0.0241105, NaN, NaN, NaN, 0.0323506, "- N/A -   "
14.39, 504.0739, 0.0241522, NaN, NaN, NaN, 0.0372337, "- N/A -   "
14.42, 504.899, 0.0241911, NaN, NaN, NaN, 0.04089605, "- N/A -   "
14.45, 505.9591, 0.0242327, NaN, NaN, NaN, 0.0445584, "- N/A -   "
14.48, 507.1374, 0.0242799, NaN, NaN, NaN, 0.04577916, "- N/A -   "
14.51, 508.1978, 0.0243271, NaN, NaN, NaN, 0.0482207, "- N/A -   "
14.54, 509.3761, 0.0243743, NaN, NaN, NaN, 0.0482207, "- N/A -   "
14.57, 510.672, 0.02442431, NaN, NaN, NaN, 0.0494415, "- N/A -   "
14.6, 511.7326, 0.0244715, NaN, NaN, NaN, 0.05066227, "- N/A -   "
14.63, 513.0287, 0.0245187, NaN, NaN, NaN, 0.05066227, "- N/A -   "
14.66, 514.328, 0.0245743, NaN, NaN, NaN, 0.0482207, "- N/A -   "
14.69, 515.8656, 0.0246353, NaN, NaN, NaN, 0.0445584, "- N/A -   "
14.72, 517.522, 0.0246964, NaN, NaN, NaN, 0.0396753, "- N/A -   "
14.75, 519.1775, 0.02476585, NaN, NaN, NaN, 0.03112983, "- N/A -   "
14.78, 520.833, 0.0248269, NaN, NaN, NaN, 0.0250259, "- N/A -   "
14.81, 522.1345, 0.0248825, NaN, NaN, NaN, 0.0225844, "- N/A -   "
14.84, 523.4356, 0.0249325, NaN, NaN, NaN, 0.0225844, "- N/A -   "
14.87, 524.5001, 0.02497966, NaN, NaN, NaN, 0.0238052, "- N/A -   "
14.9, 525.446, 0.02502131, NaN, NaN, NaN, 0.0286883, "- N/A -   "
14.93, 526.5109, 0.025063, NaN, NaN, NaN, 0.03112983, "- N/A -   "
14.96, 527.6937, 0.0251074, NaN, NaN, NaN, 0.0335714, "- N/A -   "
14.99, 528.8765, 0.0251546, NaN, NaN, NaN, 0.0347922, "- N/A -   "
15.02, 530.0593, 0.0252046, NaN, NaN, NaN, 0.03601294, "- N/A -   "
15.05, 531.2421, 0.0252518, NaN, NaN, NaN, 0.0372337, "- N/A -   "
15.08, 532.5432, 0.025299, NaN, NaN, NaN, 0.0372337, "- N/A -   "
15.11, 533.6077, 0.025349, NaN, NaN, NaN, 0.0384545, "- N/A -   "
15.14, 534.7905, 0.0253934, NaN, NaN, NaN, 0.0396753, "- N/A -   "
15.17, 535.9733, 0.0254406, NaN, NaN, NaN, 0.04089605, "- N/A -   "
15.2, 537.0379, 0.025485, NaN, NaN, NaN, 0.0445584, "- N/A -   "
15.23, 538.1024, 0.0255322, NaN, NaN, NaN, 0.04577916, "- N/A -   "
15.26, 539.2852, 0.0255767, NaN, NaN, NaN, 0.04699994, "- N/A -   "
15.29, 540.7046, 0.0256322, NaN, NaN, NaN, 0.0445584, "- N/A -   "
15.32, 542.124, 0.02568773, NaN, NaN, NaN, 0.04211683, "- N/A -   "
15.35, 543.543, 0.0257488, NaN, NaN, NaN, 0.0384545, "- N/A -   "
15.38, 545.1993, 0.0258071, NaN, NaN, NaN, 0.0335714, "- N/A -   "
15.41, 546.619, 0.0258627, NaN, NaN, NaN, 0.03112983, "- N/A -   "
15.44, 547.92, 0.0259182, NaN, NaN, NaN, 0.0286883, "- N/A -   "
15.47, 549.2208, 0.025971, NaN, NaN, NaN, 0.0274675, "- N/A -   "
15.5, 550.4036, 0.02601539, NaN, NaN, NaN, 0.0299091, "- N/A -   "
15.53, 551.35, 0.0260598, NaN, NaN, NaN, 0.0323506, "- N/A -   "
15.56, 552.4144, 0.0261042, NaN, NaN, NaN, 0.0347922, "- N/A -   "
15.59, 553.7155, 0.0261514, NaN, NaN, NaN, 0.03601294, "- N/A -   "
15.62, 554.8983, 0.0262014, NaN, NaN, NaN, 0.03601294, "- N/A -   "
15.65, 556.3177, 0.026257, NaN, NaN, NaN, 0.0347922, "- N/A -   "
15.68, 557.6188, 0.0263097, NaN, NaN, NaN, 0.0323506, "- N/A -   "
15.71, 559.038, 0.02636526, NaN, NaN, NaN, 0.0299091, "- N/A -   "
15.74, 560.221, 0.0264125, NaN, NaN, NaN, 0.0323506, "- N/A -   "
15.77, 561.404, 0.0264569, NaN, NaN, NaN, 0.0335714, "- N/A -   "
15.8, 562.468, 0.0264985, NaN, NaN, NaN, 0.0372337, "- N/A -   "
15.83, 563.5328, 0.0265457, NaN, NaN, NaN, 0.0384545, "- N/A -   "
15.86, 564.716, 0.0265902, NaN, NaN, NaN, 0.04089605, "- N/A -   "
15.89, 565.78, 0.0266374, NaN, NaN, NaN, 0.04211683, "- N/A -   "
15.92, 567.081, 0.0266929, NaN, NaN, NaN, 0.04089605, "- N/A -   "
15.95, 568.3823, 0.02674012, NaN, NaN, NaN, 0.04089605, "- N/A -   "
15.98, 569.565, 0.0267901, NaN, NaN, NaN, 0.04211683, "- N/A -   "
16.01, 570.9845, 0.0268429, NaN, NaN, NaN, 0.04089605, "- N/A -   "
16.04, 572.4039, 0.02689562, NaN, NaN, NaN, 0.0384545, "- N/A -   "
16.07, 573.823, 0.0269512, NaN, NaN, NaN, 0.03601294, "- N/A -   "
16.1, 575.1243, 0.0270039, NaN, NaN, NaN, 0.0347922, "- N/A -   "
16.13, 576.4254, 0.02705667, NaN, NaN, NaN, 0.0347922, "- N/A -   "
16.16, 577.6083, 0.0271039, NaN, NaN, NaN, 0.0347922, "- N/A -   "
16.19, 578.9093, 0.0271539, NaN, NaN, NaN, 0.0347922, "- N/A -   "
16.22, 580.21, 0.0272094, NaN, NaN, NaN, 0.0323506, "- N/A -   "
16.25, 581.63, 0.0272649, NaN, NaN, NaN, 0.03112983, "- N/A -   "
16.28, 582.8126, 0.0273121, NaN, NaN, NaN, 0.03112983, "- N/A -   "
16.31, 583.995, 0.0273566, NaN, NaN, NaN, 0.0335714, "- N/A -   "
16.34, 585.178, 0.0274065, NaN, NaN, NaN, 0.0347922, "- N/A -   "
16.37, 586.361, 0.0274565, NaN, NaN, NaN, 0.0347922, "- N/A -   "
16.4, 587.662, 0.0275037, NaN, NaN, NaN, 0.03601294, "- N/A -   "
16.43, 588.7266, 0.0275509, NaN, NaN, NaN, 0.03601294, "- N/A -   "
16.46, 590.146, 0.0276037, NaN, NaN, NaN, 0.0347922, "- N/A -   "
16.49, 591.4471, 0.0276564, NaN, NaN, NaN, 0.0347922, "- N/A -   "
16.52, 592.748, 0.0277009, NaN, NaN, NaN, 0.03601294, "- N/A -   "
16.55, 593.694, 0.0277453, NaN, NaN, NaN, 0.0384545, "- N/A -   "
16.58, 594.7589, 0.0277897, NaN, NaN, NaN, 0.04089605, "- N/A -   "
16.61, 596.06, 0.0278425, NaN, NaN, NaN, 0.0396753, "- N/A -   "
16.64, 597.243, 0.02788692, NaN, NaN, NaN, 0.04211683, "- N/A -   "
16.67, 598.426, 0.0279369, NaN, NaN, NaN, 0.0433376, "- N/A -   "
16.7, 599.845, 0.0279869, NaN, NaN, NaN, 0.04211683, "- N/A -   "
16.73, 601.1461, 0.0280396, NaN, NaN, NaN, 0.04089605, "- N/A -   "
16.76, 602.4472, 0.0280924, NaN, NaN, NaN, 0.04089605, "- N/A -   "
16.79, 603.985, 0.02815071, NaN, NaN, NaN, 0.0372337, "- N/A -   "
16.82, 605.522, 0.028209, NaN, NaN, NaN, 0.0335714, "- N/A -   "
16.85, 606.7053, 0.0282646, NaN, NaN, NaN, 0.03112983, "- N/A -   "
16.88, 608.125, 0.0283118, NaN, NaN, NaN, 0.03112983, "- N/A -   "
16.91, 609.3075, 0.028359, NaN, NaN, NaN, 0.0323506, "- N/A -   "
16.94, 610.4903, 0.0284089, NaN, NaN, NaN, 0.0323506, "- N/A -   "
16.97, 611.91, 0.0284617, NaN, NaN, NaN, 0.03112983, "- N/A -   "
17, 613.211, 0.0285145, NaN, NaN, NaN, 0.0299091, "- N/A -   "
17.03, 614.512, 0.0285672, NaN, NaN, NaN, 0.0286883, "- N/A -   "
17.06, 616.0495, 0.0286228, NaN, NaN, NaN, 0.0262467, "- N/A -   "
17.09, 617.2323, 0.02867, NaN, NaN, NaN, 0.0274675, "- N/A -   "
17.12, 618.4151, 0.02871717, NaN, NaN, NaN, 0.03112983, "- N/A -   "
17.15, 619.4797, 0.0287616, NaN, NaN, NaN, 0.0323506, "- N/A -   "
17.18, 620.4259, 0.0288032, NaN, NaN, NaN, 0.03601294, "- N/A -   "
[...]
20.28, 753.6101, 0.0339763, NaN, NaN, NaN, 0.0323506, "- N/A -   "
20.3, 754.556, 0.0340097, NaN, NaN, NaN, 0.0323506, "- N/A -   "
20.32, 755.5026, 0.034043, NaN, NaN, NaN, 0.0323506, "- N/A -   "
20.34, 756.331, 0.0340763, NaN, NaN, NaN, 0.0323506, "- N/A -   "
20.36, 757.0402, 0.0341096, NaN, NaN, NaN, 0.0335714, "- N/A -   "
20.38, 757.9865, 0.0341402, NaN, NaN, NaN, 0.0335714, "- N/A -   "
20.4, 758.933, 0.0341735, NaN, NaN, NaN, 0.0335714, "- N/A -   "
20.42, 759.7607, 0.03421236, NaN, NaN, NaN, 0.0323506, "- N/A -   "
20.44, 760.707, 0.0342485, NaN, NaN, NaN, 0.0299091, "- N/A -   "
20.46, 761.5349, 0.03428178, NaN, NaN, NaN, 0.03112983, "- N/A -   "
20.48, 762.481, 0.0343151, NaN, NaN, NaN, 0.0299091, "- N/A -   "
20.5, 763.309, 0.0343456, NaN, NaN, NaN, 0.03112983, "- N/A -   "
20.52, 764.1371, 0.034379, NaN, NaN, NaN, 0.03112983, "- N/A -   "
20.54, 765.0833, 0.0344151, NaN, NaN, NaN, 0.03112983, "- N/A -   "
20.56, 765.9113, 0.0344456, NaN, NaN, NaN, 0.03112983, "- N/A -   "
20.58, 766.621, 0.0344734, NaN, NaN, NaN, 0.0335714, "- N/A -   "
20.6, 767.3307, 0.0345011, NaN, NaN, NaN, 0.03601294, "- N/A -   "
20.62, 768.0404, 0.0345317, NaN, NaN, NaN, 0.0384545, "- N/A -   "
20.64, 768.75, 0.0345595, NaN, NaN, NaN, 0.04089605, "- N/A -   "
20.66, 769.4597, 0.0345872, NaN, NaN, NaN, 0.04211683, "- N/A -   "
20.68, 770.1694, 0.034615, NaN, NaN, NaN, 0.0445584, "- N/A -   "
20.7, 770.997, 0.03464831, NaN, NaN, NaN, 0.04577916, "- N/A -   "
20.72, 771.8254, 0.0346789, NaN, NaN, NaN, 0.04699994, "- N/A -   "
20.74, 772.6533, 0.0347094, NaN, NaN, NaN, 0.04699994, "- N/A -   "
20.76, 773.4813, 0.03474272, NaN, NaN, NaN, 0.04699994, "- N/A -   "
20.78, 774.546, 0.0347788, NaN, NaN, NaN, 0.04577916, "- N/A -   "
20.8, 775.492, 0.0348149, NaN, NaN, NaN, 0.0445584, "- N/A -   "
20.82, 776.5566, 0.03485657, NaN, NaN, NaN, 0.04211683, "- N/A -   "
20.84, 777.5028, 0.03489544, NaN, NaN, NaN, 0.0384545, "- N/A -   "
20.86, 778.4491, 0.0349315, NaN, NaN, NaN, 0.0372337, "- N/A -   "
20.88, 779.3953, 0.0349676, NaN, NaN, NaN, 0.03601294, "- N/A -   "
20.9, 780.342, 0.0350037, NaN, NaN, NaN, 0.0347922, "- N/A -   "
20.92, 781.4061, 0.03504261, NaN, NaN, NaN, 0.0335714, "- N/A -   "
20.94, 782.352, 0.03507593, NaN, NaN, NaN, 0.0323506, "- N/A -   "
20.96, 783.1803, 0.035112, NaN, NaN, NaN, 0.0323506, "- N/A -   "
20.98, 784.1266, 0.03514535, NaN, NaN, NaN, 0.03112983, "- N/A -   "
21, 785.0728, 0.0351842, NaN, NaN, NaN, 0.0299091, "- N/A -   "
21.02, 786.1374, 0.03522032, NaN, NaN, NaN, 0.0286883, "- N/A -   "
21.04, 786.847, 0.0352536, NaN, NaN, NaN, 0.0274675, "- N/A -   "
21.06, 787.912, 0.035287, NaN, NaN, NaN, 0.0274675, "- N/A -   "
21.08, 788.6212, 0.0353203, NaN, NaN, NaN, 0.0274675, "- N/A -   "
21.1, 789.5675, 0.0353536, NaN, NaN, NaN, 0.0286883, "- N/A -   "
21.12, 790.395, 0.0353869, NaN, NaN, NaN, 0.0286883, "- N/A -   "
21.14, 791.342, 0.0354202, NaN, NaN, NaN, 0.0274675, "- N/A -   "
21.16, 792.0514, 0.03545357, NaN, NaN, NaN, 0.0286883, "- N/A -   "
21.18, 792.761, 0.0354813, NaN, NaN, NaN, 0.03112983, "- N/A -   "
21.2, 793.589, 0.0355091, NaN, NaN, NaN, 0.0323506, "- N/A -   "
21.22, 794.417, 0.0355424, NaN, NaN, NaN, 0.0335714, "- N/A -   "
21.24, 795.1267, 0.03557297, NaN, NaN, NaN, 0.0347922, "- N/A -   "
21.26, 795.836, 0.0356007, NaN, NaN, NaN, 0.03601294, "- N/A -   "
21.28, 796.5461, 0.0356285, NaN, NaN, NaN, 0.0384545, "- N/A -   "
21.3, 797.374, 0.03565905, NaN, NaN, NaN, 0.0396753, "- N/A -   "
21.32, 798.32, 0.03569237, NaN, NaN, NaN, 0.04089605, "- N/A -   "
21.34, 799.148, 0.03572291, NaN, NaN, NaN, 0.04089605, "- N/A -   "
21.36, 799.9762, 0.03575346, NaN, NaN, NaN, 0.04211683, "- N/A -   "
21.38, 800.686, 0.035784, NaN, NaN, NaN, 0.0445584, "- N/A -   "
21.4, 801.5138, 0.0358145, NaN, NaN, NaN, 0.04577916, "- N/A -   "
21.42, 802.4601, 0.0358479, NaN, NaN, NaN, 0.0445584, "- N/A -   "
21.44, 803.2881, 0.0358812, NaN, NaN, NaN, 0.0445584, "- N/A -   "
21.46, 804.234, 0.03591451, NaN, NaN, NaN, 0.04577916, "- N/A -   "
21.48, 805.181, 0.03594783, NaN, NaN, NaN, 0.0445584, "- N/A -   "
21.5, 806.1268, 0.0359839, NaN, NaN, NaN, 0.0433376, "- N/A -   "
21.52, 806.955, 0.03602, NaN, NaN, NaN, 0.0433376, "- N/A -   "
21.54, 807.901, 0.03605335, NaN, NaN, NaN, 0.04211683, "- N/A -   "
21.56, 808.9655, 0.03609222, NaN, NaN, NaN, 0.0396753, "- N/A -   "
21.58, 809.9118, 0.0361311, NaN, NaN, NaN, 0.0372337, "- N/A -   "
21.6, 810.9763, 0.03617, NaN, NaN, NaN, 0.0347922, "- N/A -   "
21.62, 812.041, 0.0362088, NaN, NaN, NaN, 0.0323506, "- N/A -   "
21.64, 812.9871, 0.03624772, NaN, NaN, NaN, 0.03112983, "- N/A -   "
21.66, 813.815, 0.036281, NaN, NaN, NaN, 0.03112983, "- N/A -   "
21.68, 814.761, 0.03631436, NaN, NaN, NaN, 0.0323506, "- N/A -   "
21.7, 815.5893, 0.0363477, NaN, NaN, NaN, 0.0323506, "- N/A -   "
21.72, 816.5355, 0.03638378, NaN, NaN, NaN, 0.0299091, "- N/A -   "
21.74, 817.3635, 0.0364171, NaN, NaN, NaN, 0.0299091, "- N/A -   "
21.76, 818.31, 0.0364504, NaN, NaN, NaN, 0.03112983, "- N/A -   "
21.78, 819.1377, 0.0364782, NaN, NaN, NaN, 0.0323506, "- N/A -   "
21.8, 819.9657, 0.03651151, NaN, NaN, NaN, 0.0335714, "- N/A -   "
21.82, 820.794, 0.03653928, NaN, NaN, NaN, 0.0347922, "- N/A -   "
21.84, 821.5033, 0.036567, NaN, NaN, NaN, 0.0372337, "- N/A -   "
21.86, 822.0947, 0.03659759, NaN, NaN, NaN, 0.0396753, "- N/A -   "
21.88, 823.041, 0.0366281, NaN, NaN, NaN, 0.04089605, "- N/A -   "
21.9, 823.869, 0.0366615, NaN, NaN, NaN, 0.0396753, "- N/A -   "
21.92, 824.8151, 0.0366948, NaN, NaN, NaN, 0.0396753, "- N/A -   "
21.94, 825.6432, 0.0367309, NaN, NaN, NaN, 0.0384545, "- N/A -   "
21.96, 826.5894, 0.036767, NaN, NaN, NaN, 0.0384545, "- N/A -   "
21.98, 827.5356, 0.0367975, NaN, NaN, NaN, 0.0384545, "- N/A -   "
22, 828.245, 0.03682806, NaN, NaN, NaN, 0.0396753, "- N/A -   "
22.02, 828.955, 0.0368558, NaN, NaN, NaN, 0.04211683, "- N/A -   "
22.04, 829.901, 0.03688915, NaN, NaN, NaN, 0.04211683, "- N/A -   "
22.06, 830.611, 0.0369197, NaN, NaN, NaN, 0.0445584, "- N/A -   "
22.08, 831.4389, 0.0369502, NaN, NaN, NaN, 0.04577916, "- N/A -   "
22.1, 832.267, 0.03698078, NaN, NaN, NaN, 0.04577916, "- N/A -   "
22.12, 833.095, 0.0370141, NaN, NaN, NaN, 0.04577916, "- N/A -   "
22.14, 834.0411, 0.037053, NaN, NaN, NaN, 0.0445584, "- N/A -   "
22.16, 835.2239, 0.03709185, NaN, NaN, NaN, 0.04211683, "- N/A -   "
22.18, 836.407, 0.03713073, NaN, NaN, NaN, 0.0384545, "- N/A -   "
22.2, 837.353, 0.0371724, NaN, NaN, NaN, 0.0347922, "- N/A -   "
22.22, 838.299, 0.0372085, NaN, NaN, NaN, 0.0335714, "- N/A -   "
22.24, 839.3637, 0.0372446, NaN, NaN, NaN, 0.0335714, "- N/A -   "
22.26, 840.192, 0.03728067, NaN, NaN, NaN, 0.0323506, "- N/A -   "
22.28, 841.2562, 0.03731677, NaN, NaN, NaN, 0.0299091, "- N/A -   "
22.3, 842.202, 0.0373529, NaN, NaN, NaN, 0.0286883, "- N/A -   "
22.32, 843.0304, 0.03738341, NaN, NaN, NaN, 0.0299091, "- N/A -   "
22.34, 843.7401, 0.037414, NaN, NaN, NaN, 0.0323506, "- N/A -   "
22.36, 844.4498, 0.0374445, NaN, NaN, NaN, 0.0323506, "- N/A -   "
22.38, 845.396, 0.037475, NaN, NaN, NaN, 0.0335714, "- N/A -   "
22.4, 846.224, 0.03750559, NaN, NaN, NaN, 0.0347922, "- N/A -   "
22.42, 846.9337, 0.0375361, NaN, NaN, NaN, 0.03601294, "- N/A -   "
22.44, 847.88, 0.0375695, NaN, NaN, NaN, 0.03601294, "- N/A -   "
22.46, 848.5896, 0.0376028, NaN, NaN, NaN, 0.03601294, "- N/A -   "
22.48, 849.5359, 0.0376389, NaN, NaN, NaN, 0.0347922, "- N/A -   "
22.5, 850.7187, 0.0376777, NaN, NaN, NaN, 0.0323506, "- N/A -   "
22.52, 851.5467, 0.0377111, NaN, NaN, NaN, 0.0323506, "- N/A -   "
22.54, 852.4929, 0.0377444, NaN, NaN, NaN, 0.0323506, "- N/A -   "
22.56, 853.321, 0.03777771, NaN, NaN, NaN, 0.0323506, "- N/A -   "
22.58, 854.0306, 0.0378083, NaN, NaN, NaN, 0.0347922, "- N/A -   "
22.6, 854.8585, 0.03783602, NaN, NaN, NaN, 0.03601294, "- N/A -   "
22.62, 855.805, 0.0378721, NaN, NaN, NaN, 0.0347922, "- N/A -   "
22.64, 856.514, 0.0379027, NaN, NaN, NaN, 0.03601294, "- N/A -   "
22.66, 857.3424, 0.0379332, NaN, NaN, NaN, 0.0372337, "- N/A -   "
22.68, 858.17, 0.03796375, NaN, NaN, NaN, 0.0384545, "- N/A -   "
22.7, 858.9983, 0.0379943, NaN, NaN, NaN, 0.0396753, "- N/A -   "
22.72, 859.9446, 0.0380276, NaN, NaN, NaN, 0.0396753, "- N/A -   "
22.74, 860.7725, 0.0380637, NaN, NaN, NaN, 0.0396753, "- N/A -   "
22.76, 861.7188, 0.038097, NaN, NaN, NaN, 0.0396753, "- N/A -   "
22.78, 862.547, 0.0381276, NaN, NaN, NaN, 0.0396753, "- N/A -   "
22.8, 863.3747, 0.0381581, NaN, NaN, NaN, 0.04089605, "- N/A -   "
22.82, 864.2027, 0.0381914, NaN, NaN, NaN, 0.04089605, "- N/A -   "
22.84, 865.149, 0.0382275, NaN, NaN, NaN, 0.04089605, "- N/A -   "
22.86, 865.9769, 0.0382609, NaN, NaN, NaN, 0.0396753, "- N/A -   "
22.88, 866.8049, 0.03829141, NaN, NaN, NaN, 0.04089605, "- N/A -   "
22.9, 867.751, 0.03832473, NaN, NaN, NaN, 0.04089605, "- N/A -   "
22.92, 868.5791, 0.0383553, NaN, NaN, NaN, 0.04211683, "- N/A -   "
22.94, 869.407, 0.0383886, NaN, NaN, NaN, 0.04211683, "- N/A -   "
22.96, 870.353, 0.0384247, NaN, NaN, NaN, 0.04089605, "- N/A -   "
22.98, 871.3, 0.03846079, NaN, NaN, NaN, 0.0396753, "- N/A -   "
23, 872.246, 0.03849411, NaN, NaN, NaN, 0.0396753, "- N/A -   "
23.02, 873.0738, 0.03853021, NaN, NaN, NaN, 0.0384545, "- N/A -   "
23.04, 874.02, 0.0385663, NaN, NaN, NaN, 0.0372337, "- N/A -   "
23.06, 875.085, 0.0386052, NaN, NaN, NaN, 0.03601294, "- N/A -   "
23.08, 876.031, 0.0386413, NaN, NaN, NaN, 0.0347922, "- N/A -   "
23.1, 876.977, 0.0386746, NaN, NaN, NaN, 0.0347922, "- N/A -   "
23.12, 877.687, 0.03870792, NaN, NaN, NaN, 0.0347922, "- N/A -   "
23.14, 878.633, 0.0387412, NaN, NaN, NaN, 0.0347922, "- N/A -   "
23.16, 879.4609, 0.03877456, NaN, NaN, NaN, 0.0335714, "- N/A -   "
23.18, 880.525, 0.03881066, NaN, NaN, NaN, 0.0323506, "- N/A -   "
23.2, 881.3534, 0.038844, NaN, NaN, NaN, 0.0323506, "- N/A -   "
23.22, 882.0631, 0.03887452, NaN, NaN, NaN, 0.0335714, "- N/A -   "
23.24, 883.0094, 0.0389078, NaN, NaN, NaN, 0.0347922, "- N/A -   "
23.26, 883.719, 0.0389384, NaN, NaN, NaN, 0.0347922, "- N/A -   "
23.28, 884.6653, 0.03897171, NaN, NaN, NaN, 0.0347922, "- N/A -   "
23.3, 885.4933, 0.039005, NaN, NaN, NaN, 0.0347922, "- N/A -   "
23.32, 886.3212, 0.03904113, NaN, NaN, NaN, 0.0335714, "- N/A -   "
23.34, 887.267, 0.03907167, NaN, NaN, NaN, 0.0347922, "- N/A -   "
23.36, 888.095, 0.0391022, NaN, NaN, NaN, 0.03601294, "- N/A -   "
23.38, 888.9234, 0.03913554, NaN, NaN, NaN, 0.0372337, "- N/A -   "
23.4, 889.8696, 0.0391661, NaN, NaN, NaN, 0.0372337, "- N/A -   "
23.42, 890.698, 0.0391994, NaN, NaN, NaN, 0.0372337, "- N/A -   "
23.44, 891.5256, 0.0392299, NaN, NaN, NaN, 0.0396753, "- N/A -   "
23.46, 892.2352, 0.0392605, NaN, NaN, NaN, 0.0396753, "- N/A -   "
23.48, 893.063, 0.03928826, NaN, NaN, NaN, 0.04211683, "- N/A -   "
23.5, 893.655, 0.0393188, NaN, NaN, NaN, 0.0433376, "- N/A -   "
23.52, 894.6009, 0.0393521, NaN, NaN, NaN, 0.0433376, "- N/A -   "
23.54, 895.6654, 0.03938822, NaN, NaN, NaN, 0.04211683, "- N/A -   "
23.56, 896.4934, 0.03942432, NaN, NaN, NaN, 0.04211683, "- N/A -   "
23.58, 897.4396, 0.0394604, NaN, NaN, NaN, 0.04089605, "- N/A -   "
23.6, 898.622, 0.0394965, NaN, NaN, NaN, 0.0384545, "- N/A -   "
23.62, 899.569, 0.0395354, NaN, NaN, NaN, 0.03601294, "- N/A -   "
23.64, 900.6332, 0.0395743, NaN, NaN, NaN, 0.0335714, "- N/A -   "
23.66, 901.579, 0.0396131, NaN, NaN, NaN, 0.03112983, "- N/A -   "
23.68, 902.644, 0.03964924, NaN, NaN, NaN, 0.0299091, "- N/A -   "
23.7, 903.472, 0.0396798, NaN, NaN, NaN, 0.03112983, "- N/A -   "
23.72, 904.182, 0.0397131, NaN, NaN, NaN, 0.03112983, "- N/A -   "
23.74, 905.0096, 0.0397436, NaN, NaN, NaN, 0.0323506, "- N/A -   "
23.76, 905.8375, 0.03977697, NaN, NaN, NaN, 0.0323506, "- N/A -   "
23.78, 906.6655, 0.0398075, NaN, NaN, NaN, 0.0335714, "- N/A -   "
23.8, 907.612, 0.0398408, NaN, NaN, NaN, 0.0335714, "- N/A -   "
23.82, 908.4397, 0.0398742, NaN, NaN, NaN, 0.0335714, "- N/A -   "
23.84, 909.386, 0.0399103, NaN, NaN, NaN, 0.0323506, "- N/A -   "
23.86, 910.3322, 0.03994635, NaN, NaN, NaN, 0.03112983, "- N/A -   "
23.88, 911.2785, 0.03998245, NaN, NaN, NaN, 0.0299091, "- N/A -   "
23.9, 912.225, 0.0400185, NaN, NaN, NaN, 0.0286883, "- N/A -   "
23.92, 913.0527, 0.0400519, NaN, NaN, NaN, 0.0286883, "- N/A -   "
23.94, 913.8807, 0.04008519, NaN, NaN, NaN, 0.0286883, "- N/A -   "
23.96, 914.8269, 0.0401185, NaN, NaN, NaN, 0.0299091, "- N/A -   "
23.98, 915.655, 0.0401463, NaN, NaN, NaN, 0.03112983, "- N/A -   "
24, 916.2462, 0.0401796, NaN, NaN, NaN, 0.03112983, "- N/A -   "
24.02, 917.0743, 0.0402074, NaN, NaN, NaN, 0.0335714, "- N/A -   "
24.04, 917.784, 0.0402351, NaN, NaN, NaN, 0.03601294, "- N/A -   "
24.06, 918.4936, 0.04026012, NaN, NaN, NaN, 0.0396753, "- N/A -   "
24.08, 919.2033, 0.04029067, NaN, NaN, NaN, 0.04089605, "- N/A -   "
24.1, 920.031, 0.0403212, NaN, NaN, NaN, 0.0433376, "- N/A -   "
24.12, 920.7409, 0.040349, NaN, NaN, NaN, 0.0445584, "- N/A -   "
24.14, 921.4506, 0.0403795, NaN, NaN, NaN, 0.04577916, "- N/A -   "
24.16, 922.3969, 0.0404128, NaN, NaN, NaN, 0.04699994, "- N/A -   "
24.18, 923.225, 0.0404462, NaN, NaN, NaN, 0.04699994, "- N/A -   "
24.2, 924.1711, 0.04047949, NaN, NaN, NaN, 0.04577916, "- N/A -   "
24.22, 925.1174, 0.0405156, NaN, NaN, NaN, 0.0445584, "- N/A -   "
24.24, 926.1818, 0.04055446, NaN, NaN, NaN, 0.0433376, "- N/A -   "
24.26, 927.0098, 0.04059056, NaN, NaN, NaN, 0.04211683, "- N/A -   "
24.28, 927.956, 0.0406267, NaN, NaN, NaN, 0.04089605, "- N/A -   "
24.3, 928.9023, 0.04066, NaN, NaN, NaN, 0.0396753, "- N/A -   "
24.32, 929.8486, 0.0406989, NaN, NaN, NaN, 0.0372337, "- N/A -   "
24.34, 930.7948, 0.04073495, NaN, NaN, NaN, 0.03601294, "- N/A -   "
24.36, 931.623, 0.04076827, NaN, NaN, NaN, 0.03601294, "- N/A -   "
24.38, 932.569, 0.0408044, NaN, NaN, NaN, 0.03601294, "- N/A -   "
24.4, 933.634, 0.04083769, NaN, NaN, NaN, 0.0347922, "- N/A -   "
24.42, 934.5798, 0.04087379, NaN, NaN, NaN, 0.0335714, "- N/A -   "
24.44, 935.526, 0.04091266, NaN, NaN, NaN, 0.03112983, "- N/A -   "
24.46, 936.4723, 0.04094876, NaN, NaN, NaN, 0.0299091, "- N/A -   "
24.48, 937.4186, 0.0409849, NaN, NaN, NaN, 0.0299091, "- N/A -   "
24.5, 938.3648, 0.0410154, NaN, NaN, NaN, 0.0299091, "- N/A -   "
24.52, 939.193, 0.0410515, NaN, NaN, NaN, 0.0286883, "- N/A -   "
24.54, 940.021, 0.04108482, NaN, NaN, NaN, 0.0299091, "- N/A -   "
24.56, 940.8487, 0.04111814, NaN, NaN, NaN, 0.0299091, "- N/A -   "
24.58, 941.677, 0.04114868, NaN, NaN, NaN, 0.0299091, "- N/A -   "
24.6, 942.505, 0.04117923, NaN, NaN, NaN, 0.0323506, "- N/A -   "
24.62, 943.3326, 0.0412098, NaN, NaN, NaN, 0.0323506, "- N/A -   "
24.64, 943.924, 0.04123476, NaN, NaN, NaN, 0.03601294, "- N/A -   "
24.66, 944.634, 0.04126253, NaN, NaN, NaN, 0.0384545, "- N/A -   "
24.68, 945.4617, 0.0412931, NaN, NaN, NaN, 0.04089605, "- N/A -   "
24.7, 946.1713, 0.0413208, NaN, NaN, NaN, 0.04211683, "- N/A -   "
24.72, 946.881, 0.0413542, NaN, NaN, NaN, 0.0433376, "- N/A -   "
24.74, 947.709, 0.0413847, NaN, NaN, NaN, 0.0445584, "- N/A -   "
24.76, 948.6552, 0.041418, NaN, NaN, NaN, 0.0445584, "- N/A -   "
24.78, 949.601, 0.04145135, NaN, NaN, NaN, 0.0433376, "- N/A -   "
24.8, 950.5477, 0.0414874, NaN, NaN, NaN, 0.04211683, "- N/A -   "
24.82, 951.3757, 0.041518, NaN, NaN, NaN, 0.0433376, "- N/A -   "
24.84, 952.3219, 0.0415541, NaN, NaN, NaN, 0.04211683, "- N/A -   "
24.86, 953.1499, 0.0415874, NaN, NaN, NaN, 0.04211683, "- N/A -   "
24.88, 954.0961, 0.04162073, NaN, NaN, NaN, 0.0433376, "- N/A -   "
24.9, 955.042, 0.0416541, NaN, NaN, NaN, 0.04211683, "- N/A -   "
24.92, 955.989, 0.0416902, NaN, NaN, NaN, 0.04089605, "- N/A -   "
24.94, 956.8166, 0.04172625, NaN, NaN, NaN, 0.0396753, "- N/A -   "
24.96, 957.9994, 0.0417651, NaN, NaN, NaN, 0.0372337, "- N/A -   "
24.98, 958.9457, 0.041804, NaN, NaN, NaN, 0.0347922, "- N/A -   "
25, 960.1284, 0.04184565, NaN, NaN, NaN, 0.0323506, "- N/A -   "
25.02, 961.0747, 0.0418845, NaN, NaN, NaN, 0.0299091, "- N/A -   "
25.04, 962.1392, 0.04192062, NaN, NaN, NaN, 0.0274675, "- N/A -   "
25.06, 963.085, 0.04195672, NaN, NaN, NaN, 0.0262467, "- N/A -   "
25.08, 964.032, 0.0419928, NaN, NaN, NaN, 0.0250259, "- N/A -   "
25.1, 964.7414, 0.04202336, NaN, NaN, NaN, 0.0274675, "- N/A -   "
25.12, 965.569, 0.04205113, NaN, NaN, NaN, 0.0286883, "- N/A -   "
25.14, 966.3974, 0.04208445, NaN, NaN, NaN, 0.0299091, "- N/A -   "
25.16, 967.107, 0.042115, NaN, NaN, NaN, 0.0299091, "- N/A -   "
25.18, 967.935, 0.0421483, NaN, NaN, NaN, 0.03112983, "- N/A -   "
25.2, 968.763, 0.0421761, NaN, NaN, NaN, 0.0323506, "- N/A -   "
25.22, 969.591, 0.0422066, NaN, NaN, NaN, 0.0335714, "- N/A -   "
25.24, 970.4189, 0.04223995, NaN, NaN, NaN, 0.0347922, "- N/A -   "
25.26, 971.3652, 0.0422733, NaN, NaN, NaN, 0.0347922, "- N/A -   "
25.28, 972.0748, 0.04230381, NaN, NaN, NaN, 0.0347922, "- N/A -   "
25.3, 973.021, 0.04233713, NaN, NaN, NaN, 0.0347922, "- N/A -   "
25.32, 973.967, 0.0423705, NaN, NaN, NaN, 0.03601294, "- N/A -   "
25.34, 974.7953, 0.0424038, NaN, NaN, NaN, 0.0347922, "- N/A -   "
25.36, 975.7415, 0.0424371, NaN, NaN, NaN, 0.0347922, "- N/A -   "
25.38, 976.6878, 0.0424704, NaN, NaN, NaN, 0.03601294, "- N/A -   "
25.4, 977.2792, 0.0424982, NaN, NaN, NaN, 0.0372337, "- N/A -   "
25.42, 977.8706, 0.042526, NaN, NaN, NaN, 0.04089605, "- N/A -   "
25.44, 978.817, 0.0425565, NaN, NaN, NaN, 0.04211683, "- N/A -   "
25.46, 979.527, 0.0425843, NaN, NaN, NaN, 0.0433376, "- N/A -   "
25.48, 980.3545, 0.04261481, NaN, NaN, NaN, 0.0445584, "- N/A -   "
25.5, 981.182, 0.04264813, NaN, NaN, NaN, 0.0445584, "- N/A -   "
25.52, 982.01, 0.0426787, NaN, NaN, NaN, 0.04577916, "- N/A -   "
25.54, 982.957, 0.042712, NaN, NaN, NaN, 0.04577916, "- N/A -   "
25.56, 983.9029, 0.04274809, NaN, NaN, NaN, 0.04577916, "- N/A -   "
25.58, 984.8492, 0.042787, NaN, NaN, NaN, 0.04211683, "- N/A -   "
25.6, 986.2685, 0.0428314, NaN, NaN, NaN, 0.0384545, "- N/A -   "
25.62, 987.2148, 0.0428675, NaN, NaN, NaN, 0.0372337, "- N/A -   "
25.64, 988.161, 0.0429036, NaN, NaN, NaN, 0.0347922, "- N/A -   "
25.66, 988.989, 0.0429425, NaN, NaN, NaN, 0.0335714, "- N/A -   "
25.68, 990.0535, 0.0429786, NaN, NaN, NaN, 0.03112983, "- N/A -   "
25.7, 991, 0.04301466, NaN, NaN, NaN, 0.03112983, "- N/A -   "
25.72, 991.8277, 0.0430452, NaN, NaN, NaN, 0.03112983, "- N/A -   "
25.74, 992.6557, 0.04307575, NaN, NaN, NaN, 0.0335714, "- N/A -   "
25.76, 993.365, 0.0431035, NaN, NaN, NaN, 0.0347922, "- N/A -   "
25.78, 994.1933, 0.0431368, NaN, NaN, NaN, 0.03601294, "- N/A -   "
25.8, 995.021, 0.0431674, NaN, NaN, NaN, 0.03601294, "- N/A -   "
25.82, 995.8493, 0.0431979, NaN, NaN, NaN, 0.0372337, "- N/A -   "
25.84, 996.677, 0.04323125, NaN, NaN, NaN, 0.0372337, "- N/A -   "
25.86, 997.624, 0.0432646, NaN, NaN, NaN, 0.0372337, "- N/A -   "
25.88, 998.57, 0.0433034, NaN, NaN, NaN, 0.0347922, "- N/A -   "
25.9, 999.6342, 0.04333954, NaN, NaN, NaN, 0.0335714, "- N/A -   "
25.92, 1000.7, 0.0433784, NaN, NaN, NaN, 0.03112983, "- N/A -   "
25.94, 1001.53, 0.0434117, NaN, NaN, NaN, 0.03112983, "- N/A -   "
25.96, 1002.473, 0.04344506, NaN, NaN, NaN, 0.03112983, "- N/A -   "
25.98, 1003.18, 0.0434756, NaN, NaN, NaN, 0.0323506, "- N/A -   "
26, 1004.01, 0.0435089, NaN, NaN, NaN, 0.0335714, "- N/A -   "
26.02, 1004.72, 0.04353669, NaN, NaN, NaN, 0.0347922, "- N/A -   "
26.04, 1005.55, 0.0435672, NaN, NaN, NaN, 0.03601294, "- N/A -   "
26.06, 1006.258, 0.043595, NaN, NaN, NaN, 0.0384545, "- N/A -   "
26.08, 1006.97, 0.04362277, NaN, NaN, NaN, 0.04089605, "- N/A -   "
26.1, 1007.8, 0.0436533, NaN, NaN, NaN, 0.04211683, "- N/A -   "
26.12, 1008.51, 0.0436866, NaN, NaN, NaN, 0.0433376, "- N/A -   "
26.14, 1009.57, 0.04372273, NaN, NaN, NaN, 0.04211683, "- N/A -   "
26.16, 1010.63, 0.04375883, NaN, NaN, NaN, 0.04089605, "- N/A -   "
26.18, 1011.58, 0.0437977, NaN, NaN, NaN, 0.0396753, "- N/A -   "
26.2, 1012.65, 0.043831, NaN, NaN, NaN, 0.0384545, "- N/A -   "
26.22, 1013.477, 0.04386435, NaN, NaN, NaN, 0.0384545, "- N/A -   "
26.232, 1013.954, 0.0438838, NaN, NaN, NaN, 0.0384545, "- N/A -   "