File: 2_Tensile_Data/Hamel_ForceTest_Bolt6_Test9.csv
Time, Load (lb), Position (in), AxialStrain (in), TransverseStrain (in), Auxiliary (), Control Out (V), Stress (psi)
0.0, 12.9742, 0.0, NaN, NaN, NaN, -0.007935055, "- N/A -   "
0.01, 12.9742, -2.776752E-6, NaN, NaN, NaN, 6.103888E-4, "- N/A -   "
0.02, 12.9742, 0.0, NaN, NaN, NaN, 0.006714277, "- N/A -   "
0.03, 12.9742, 0.0, NaN, NaN, NaN, 0.0238052, "- N/A -   "
0.04, 12.9742, 5.553504E-6, NaN, NaN, NaN, 0.04089605, "- N/A -   "
0.05, 13.09217, 1.38838e-05, NaN, NaN, NaN, 0.05676616, "- N/A -   "
0.06, 13.446, 2.77675e-05, NaN, NaN, NaN, 0.0701947, "- N/A -   "
0.07, 13.7999, 4.442803E-5, NaN, NaN, NaN, 0.08240249, "- N/A -   "
0.08, 14.2716, 7.21955e-05, NaN, NaN, NaN, 0.09094793, "- N/A -   "
0.09, 14.8614, 9.718631E-5, NaN, NaN, NaN, 0.0982726, "- N/A -   "
0.1, 15.4511, 0.000127731, NaN, NaN, NaN, 0.105597, "- N/A -   "
0.11, 16.0409, 1.610516E-4, NaN, NaN, NaN, 0.0982726, "- N/A -   "
0.12, 16.74854, 0.000191596, NaN, NaN, NaN, 0.09094793, "- N/A -   "
0.13, 17.3383, 2.193634E-4, NaN, NaN, NaN, 0.08606482, "- N/A -   "
0.14, 17.8101, 0.000244354, NaN, NaN, NaN, 0.08240249, "- N/A -   "
0.15, 18.16391, 0.000269345, NaN, NaN, NaN, 0.07874016, "- N/A -   "
0.16, 18.6357, 0.000291559, NaN, NaN, NaN, 0.0762986, "- N/A -   "
0.17, 19.1075, 0.000313773, NaN, NaN, NaN, 0.0750778, "- N/A -   "
0.18, 19.3434, 0.000330433, NaN, NaN, NaN, 0.07385705, "- N/A -   "
0.19, 19.8152, 0.000349871, NaN, NaN, NaN, 0.07263627, "- N/A -   "
0.2, 20.287, 3.69308E-4, NaN, NaN, NaN, 0.07141549, "- N/A -   "
0.21, 20.52286, 0.000391522, NaN, NaN, NaN, 0.0701947, "- N/A -   "
0.22, 20.8767, 0.000410959, NaN, NaN, NaN, 0.0689739, "- N/A -   "
0.23, 21.3485, 0.000430397, NaN, NaN, NaN, 0.06775316, "- N/A -   "
0.24, 21.7023, 0.000449834, NaN, NaN, NaN, 0.0653116, "- N/A -   "
0.25, 22.1741, 0.000469271, NaN, NaN, NaN, 0.0640908, "- N/A -   "
0.26, 22.528, 0.000491485, NaN, NaN, NaN, 0.06287005, "- N/A -   "
0.27, 22.88181, 5.081456E-4, NaN, NaN, NaN, 0.06164927, "- N/A -   "
0.28, 23.2357, 0.000527583, NaN, NaN, NaN, 0.0604285, "- N/A -   "
0.29, 23.5895, 5.470201E-4, NaN, NaN, NaN, 0.0592077, "- N/A -   "
0.3, 23.9433, 5.664574E-4, NaN, NaN, NaN, 0.0579869, "- N/A -   "
0.31, 24.29718, 0.000588671, NaN, NaN, NaN, 0.0555454, "- N/A -   "
0.32, 24.769, 0.000608109, NaN, NaN, NaN, 0.0543246, "- N/A -   "
0.33, 25.2408, 0.000630323, NaN, NaN, NaN, 0.0531038, "- N/A -   "
0.34, 25.4767, 0.000646983, NaN, NaN, NaN, 0.05188305, "- N/A -   "
0.35, 25.8305, 6.691972E-4, NaN, NaN, NaN, 0.05066227, "- N/A -   "
0.36, 26.3023, 0.000688634, NaN, NaN, NaN, 0.0482207, "- N/A -   "
0.37, 26.6561, 7.108485E-4, NaN, NaN, NaN, 0.04577916, "- N/A -   "
0.38, 27.1279, 7.302857E-4, NaN, NaN, NaN, 0.0445584, "- N/A -   "
0.39, 27.4818, 0.0007525, NaN, NaN, NaN, 0.0433376, "- N/A -   "
0.4, 27.7177, 7.691603E-4, NaN, NaN, NaN, 0.04211683, "- N/A -   "
0.41, 28.3074, 7.885975E-4, NaN, NaN, NaN, 0.04089605, "- N/A -   "
0.42, 28.6612, 8.080348E-4, NaN, NaN, NaN, 0.0396753, "- N/A -   "
0.43, 29.0151, 8.27472E-4, NaN, NaN, NaN, 0.0396753, "- N/A -   "
0.44, 29.251, 0.000844133, NaN, NaN, NaN, 0.0384545, "- N/A -   "
0.45, 29.6048, 0.000860793, NaN, NaN, NaN, 0.0384545, "- N/A -   "
0.46, 29.84071, 8.774536E-4, NaN, NaN, NaN, 0.0384545, "- N/A -   "
0.47, 30.1946, 8.968908E-4, NaN, NaN, NaN, 0.0372337, "- N/A -   "
0.48, 30.5484, 0.000913551, NaN, NaN, NaN, 0.0372337, "- N/A -   "
0.49, 31.0202, 9.329886E-4, NaN, NaN, NaN, 0.03601294, "- N/A -   "
0.5, 31.374, 9.524259E-4, NaN, NaN, NaN, 0.0347922, "- N/A -   "
0.51, 31.72787, 0.000971863, NaN, NaN, NaN, 0.0335714, "- N/A -   "
0.52, 32.08171, 9.885236E-4, NaN, NaN, NaN, 0.0335714, "- N/A -   "
0.53, 32.4356, 0.00100796, NaN, NaN, NaN, 0.0323506, "- N/A -   "
0.54, 32.67145, 0.00102462, NaN, NaN, NaN, 0.0323506, "- N/A -   "
0.55, 33.1432, 0.00104406, NaN, NaN, NaN, 0.03112983, "- N/A -   "
0.56, 33.3791, 0.00106072, NaN, NaN, NaN, 0.03112983, "- N/A -   "
0.57, 33.8509, 0.00107738, NaN, NaN, NaN, 0.03112983, "- N/A -   "
0.58, 34.08682, 0.00109404, NaN, NaN, NaN, 0.03112983, "- N/A -   "
0.59, 34.3227, 0.0011107, NaN, NaN, NaN, 0.03112983, "- N/A -   "
0.6, 34.7945, 0.00112736, NaN, NaN, NaN, 0.03112983, "- N/A -   "
0.61, 35.0304, 0.00114402, NaN, NaN, NaN, 0.03112983, "- N/A -   "
0.62, 35.3842, 0.001163459, NaN, NaN, NaN, 0.03112983, "- N/A -   "
0.63, 35.7381, 0.00117734, NaN, NaN, NaN, 0.03112983, "- N/A -   "
0.64, 35.97398, 0.001194, NaN, NaN, NaN, 0.03112983, "- N/A -   "
0.65, 36.2099, 0.00121066, NaN, NaN, NaN, 0.0323506, "- N/A -   "
0.66, 36.6817, 0.00122455, NaN, NaN, NaN, 0.0323506, "- N/A -   "
0.67, 36.9176, 0.001241208, NaN, NaN, NaN, 0.0335714, "- N/A -   "
0.68, 37.2714, 0.00125509, NaN, NaN, NaN, 0.0335714, "- N/A -   "
0.69, 37.5073, 0.00127175, NaN, NaN, NaN, 0.0335714, "- N/A -   "
0.7, 37.74319, 0.00128564, NaN, NaN, NaN, 0.0347922, "- N/A -   "
0.71, 38.097, 0.0013023, NaN, NaN, NaN, 0.03601294, "- N/A -   "
0.72, 38.215, 0.00131618, NaN, NaN, NaN, 0.0372337, "- N/A -   "
0.73, 38.5688, 0.00133006, NaN, NaN, NaN, 0.0372337, "- N/A -   "
0.74, 38.9227, 0.00134395, NaN, NaN, NaN, 0.0384545, "- N/A -   "
0.75, 39.2765, 0.00136339, NaN, NaN, NaN, 0.0384545, "- N/A -   "
0.76, 39.6304, 0.00137727, NaN, NaN, NaN, 0.0384545, "- N/A -   "
0.77, 39.8662, 0.00139393, NaN, NaN, NaN, 0.0396753, "- N/A -   "
0.78, 39.98419, 0.00140781, NaN, NaN, NaN, 0.04089605, "- N/A -   "
0.79, 40.456, 0.00142447, NaN, NaN, NaN, 0.04089605, "- N/A -   "
0.8, 40.57393, 0.00143836, NaN, NaN, NaN, 0.04089605, "- N/A -   "
0.81, 41.04572, 0.00145224, NaN, NaN, NaN, 0.04211683, "- N/A -   "
0.82, 41.16367, 0.0014689, NaN, NaN, NaN, 0.0433376, "- N/A -   "
0.83, 41.6355, 0.00148279, NaN, NaN, NaN, 0.0433376, "- N/A -   "
0.84, 41.7534, 0.00149667, NaN, NaN, NaN, 0.0445584, "- N/A -   "
0.85, 42.2252, 0.00151333, NaN, NaN, NaN, 0.0445584, "- N/A -   "
0.86, 42.579, 0.001532767, NaN, NaN, NaN, 0.0433376, "- N/A -   "
0.87, 42.8149, 0.00154943, NaN, NaN, NaN, 0.0433376, "- N/A -   "
0.88, 43.2867, 0.00156609, NaN, NaN, NaN, 0.0433376, "- N/A -   "
0.89, 43.5226, 0.00158275, NaN, NaN, NaN, 0.0433376, "- N/A -   "
0.9, 43.9944, 0.001599409, NaN, NaN, NaN, 0.0433376, "- N/A -   "
0.91, 44.2303, 0.00161885, NaN, NaN, NaN, 0.0433376, "- N/A -   "
0.92, 44.58414, 0.00163273, NaN, NaN, NaN, 0.0433376, "- N/A -   "
0.93, 45.05593, 0.00165217, NaN, NaN, NaN, 0.04211683, "- N/A -   "
0.94, 45.17388, 0.00166605, NaN, NaN, NaN, 0.0433376, "- N/A -   "
0.95, 45.6457, 0.00168271, NaN, NaN, NaN, 0.0433376, "- N/A -   "
0.96, 45.8816, 0.00169937, NaN, NaN, NaN, 0.0433376, "- N/A -   "
0.97, 46.23541, 0.00171603, NaN, NaN, NaN, 0.0433376, "- N/A -   "
0.98, 46.5893, 0.00173547, NaN, NaN, NaN, 0.04211683, "- N/A -   "
0.99, 47.061, 0.00175491, NaN, NaN, NaN, 0.04211683, "- N/A -   "
1, 47.4149, 0.00177157, NaN, NaN, NaN, 0.04089605, "- N/A -   "
1.01, 47.65078, 0.00178823, NaN, NaN, NaN, 0.04089605, "- N/A -   "
1.02, 48.12257, 0.00180489, NaN, NaN, NaN, 0.04089605, "- N/A -   "
1.03, 48.47641, 0.00182155, NaN, NaN, NaN, 0.04089605, "- N/A -   "
1.04, 48.83025, 0.00184099, NaN, NaN, NaN, 0.0396753, "- N/A -   "
1.05, 49.0661, 0.00186042, NaN, NaN, NaN, 0.0384545, "- N/A -   "
1.06, 49.5379, 0.001879861, NaN, NaN, NaN, 0.0384545, "- N/A -   "
1.07, 50.0097, 0.0018993, NaN, NaN, NaN, 0.03601294, "- N/A -   "
1.08, 50.3636, 0.00192151, NaN, NaN, NaN, 0.0335714, "- N/A -   "
1.09, 50.83536, 0.00194095, NaN, NaN, NaN, 0.0323506, "- N/A -   "
1.1, 51.1892, 0.00196316, NaN, NaN, NaN, 0.03112983, "- N/A -   "
1.11, 51.66099, 0.001982601, NaN, NaN, NaN, 0.0286883, "- N/A -   "
1.12, 52.01483, 0.00199926, NaN, NaN, NaN, 0.0286883, "- N/A -   "
1.13, 52.36868, 0.0020187, NaN, NaN, NaN, 0.0274675, "- N/A -   "
1.14, 52.72252, 0.00203536, NaN, NaN, NaN, 0.0274675, "- N/A -   "
1.15, 53.0764, 0.00205202, NaN, NaN, NaN, 0.0274675, "- N/A -   "
1.16, 53.4302, 0.00206868, NaN, NaN, NaN, 0.0274675, "- N/A -   "
1.17, 53.784, 0.00208534, NaN, NaN, NaN, 0.0274675, "- N/A -   "
1.18, 54.13789, 0.002102001, NaN, NaN, NaN, 0.0274675, "- N/A -   "
1.19, 54.4917, 0.00211866, NaN, NaN, NaN, 0.0274675, "- N/A -   "
1.2, 54.8456, 0.00213532, NaN, NaN, NaN, 0.0274675, "- N/A -   "
1.21, 55.0815, 0.00215198, NaN, NaN, NaN, 0.0286883, "- N/A -   "
1.22, 55.43531, 0.00216587, NaN, NaN, NaN, 0.0286883, "- N/A -   "
1.23, 55.6712, 0.00217975, NaN, NaN, NaN, 0.03112983, "- N/A -   "
1.24, 55.9071, 0.002193634, NaN, NaN, NaN, 0.03112983, "- N/A -   "
1.25, 56.2609, 0.00220752, NaN, NaN, NaN, 0.0323506, "- N/A -   "
1.26, 56.4968, 0.00222418, NaN, NaN, NaN, 0.0323506, "- N/A -   "
1.27, 56.85068, 0.00224084, NaN, NaN, NaN, 0.0323506, "- N/A -   "
1.28, 57.32247, 0.00225472, NaN, NaN, NaN, 0.0335714, "- N/A -   "
1.29, 57.5584, 0.00227416, NaN, NaN, NaN, 0.0335714, "- N/A -   "
1.3, 58.0302, 0.00228804, NaN, NaN, NaN, 0.0335714, "- N/A -   "
1.31, 58.384, 0.002304704, NaN, NaN, NaN, 0.0335714, "- N/A -   "
1.32, 58.6199, 0.00232414, NaN, NaN, NaN, 0.0335714, "- N/A -   "
1.33, 59.0917, 0.0023408, NaN, NaN, NaN, 0.0323506, "- N/A -   "
1.34, 59.4455, 0.002360239, NaN, NaN, NaN, 0.0323506, "- N/A -   "
1.35, 59.68142, 0.00237412, NaN, NaN, NaN, 0.0323506, "- N/A -   "
1.36, 60.0353, 0.00239078, NaN, NaN, NaN, 0.0323506, "- N/A -   "
1.37, 60.3891, 0.002404667, NaN, NaN, NaN, 0.0335714, "- N/A -   "
1.38, 60.7429, 0.00242133, NaN, NaN, NaN, 0.0335714, "- N/A -   "
1.39, 61.09679, 0.00243521, NaN, NaN, NaN, 0.0347922, "- N/A -   "
1.4, 61.3327, 0.00245187, NaN, NaN, NaN, 0.0347922, "- N/A -   "
1.41, 61.8045, 0.00246853, NaN, NaN, NaN, 0.0347922, "- N/A -   "
1.42, 61.9224, 0.002482416, NaN, NaN, NaN, 0.03601294, "- N/A -   "
1.43, 62.3942, 0.00249908, NaN, NaN, NaN, 0.0372337, "- N/A -   "
1.44, 62.7481, 0.00251296, NaN, NaN, NaN, 0.0372337, "- N/A -   "
1.45, 62.98395, 0.00252962, NaN, NaN, NaN, 0.0384545, "- N/A -   "
1.46, 63.33779, 0.00254628, NaN, NaN, NaN, 0.0384545, "- N/A -   "
1.47, 63.6916, 0.00256017, NaN, NaN, NaN, 0.0384545, "- N/A -   "
1.48, 63.92753, 0.00257683, NaN, NaN, NaN, 0.0396753, "- N/A -   "
1.49, 64.28137, 0.00259071, NaN, NaN, NaN, 0.04089605, "- N/A -   "
1.5, 64.6352, 0.00260459, NaN, NaN, NaN, 0.04089605, "- N/A -   "
1.51, 64.98906, 0.00262125, NaN, NaN, NaN, 0.04089605, "- N/A -   "
1.52, 65.3429, 0.00263514, NaN, NaN, NaN, 0.04211683, "- N/A -   "
1.53, 65.4608, 0.002651798, NaN, NaN, NaN, 0.0433376, "- N/A -   "
1.54, 65.81469, 0.00266568, NaN, NaN, NaN, 0.0433376, "- N/A -   "
1.55, 66.16853, 0.00267957, NaN, NaN, NaN, 0.0445584, "- N/A -   "
1.56, 66.52237, 0.00269623, NaN, NaN, NaN, 0.0445584, "- N/A -   "
1.57, 66.87622, 0.00271289, NaN, NaN, NaN, 0.04577916, "- N/A -   "
1.58, 67.23006, 0.00272677, NaN, NaN, NaN, 0.04577916, "- N/A -   "
1.59, 67.46596, 0.002743431, NaN, NaN, NaN, 0.04577916, "- N/A -   "
1.6, 67.9377, 0.00276009, NaN, NaN, NaN, 0.04577916, "- N/A -   "
1.61, 68.17364, 0.00277675, NaN, NaN, NaN, 0.04699994, "- N/A -   "
1.62, 68.52748, 0.00279064, NaN, NaN, NaN, 0.04699994, "- N/A -   "
1.63, 68.8813, 0.00281007, NaN, NaN, NaN, 0.04577916, "- N/A -   "
1.64, 69.23517, 0.00282951, NaN, NaN, NaN, 0.0445584, "- N/A -   "
1.65, 69.707, 0.00284895, NaN, NaN, NaN, 0.0445584, "- N/A -   "
1.66, 70.17874, 0.00286838, NaN, NaN, NaN, 0.0433376, "- N/A -   "
1.67, 70.6505, 0.002887822, NaN, NaN, NaN, 0.04211683, "- N/A -   "
1.68, 71.00438, 0.00290726, NaN, NaN, NaN, 0.04089605, "- N/A -   "
1.69, 71.4762, 0.00292392, NaN, NaN, NaN, 0.0396753, "- N/A -   "
1.7, 71.94796, 0.002943357, NaN, NaN, NaN, 0.0384545, "- N/A -   "
1.71, 72.3018, 0.00296279, NaN, NaN, NaN, 0.0372337, "- N/A -   "
1.72, 72.65564, 0.00298223, NaN, NaN, NaN, 0.0372337, "- N/A -   "
1.73, 73.00948, 0.002998892, NaN, NaN, NaN, 0.03601294, "- N/A -   "
1.74, 73.36333, 0.00301555, NaN, NaN, NaN, 0.03601294, "- N/A -   "
1.75, 73.71717, 0.00303499, NaN, NaN, NaN, 0.03601294, "- N/A -   "
1.76, 74.3069, 0.003054427, NaN, NaN, NaN, 0.0347922, "- N/A -   "
1.77, 74.5428, 0.00307386, NaN, NaN, NaN, 0.0335714, "- N/A -   "
1.78, 75.0146, 0.00309052, NaN, NaN, NaN, 0.0323506, "- N/A -   "
1.79, 75.36844, 0.00310441, NaN, NaN, NaN, 0.0335714, "- N/A -   "
1.8, 75.7223, 0.003123846, NaN, NaN, NaN, 0.0323506, "- N/A -   "
1.81, 76.07612, 0.00314051, NaN, NaN, NaN, 0.0323506, "- N/A -   "
1.82, 76.31202, 0.00315439, NaN, NaN, NaN, 0.0335714, "- N/A -   "
1.83, 76.6659, 0.00317105, NaN, NaN, NaN, 0.0335714, "- N/A -   "
1.84, 77.0197, 0.00318771, NaN, NaN, NaN, 0.0335714, "- N/A -   "
1.85, 77.25559, 0.00320437, NaN, NaN, NaN, 0.0347922, "- N/A -   "
1.86, 77.72738, 0.00322103, NaN, NaN, NaN, 0.0347922, "- N/A -   "
1.87, 78.08122, 0.00323769, NaN, NaN, NaN, 0.0347922, "- N/A -   "
1.88, 78.31712, 0.00325158, NaN, NaN, NaN, 0.0347922, "- N/A -   "
1.89, 78.67096, 0.003268237, NaN, NaN, NaN, 0.0347922, "- N/A -   "
1.9, 79.0248, 0.0032849, NaN, NaN, NaN, 0.03601294, "- N/A -   "
1.91, 79.37865, 0.003298781, NaN, NaN, NaN, 0.03601294, "- N/A -   "
1.92, 79.73249, 0.00331544, NaN, NaN, NaN, 0.0372337, "- N/A -   "
1.93, 80.0863, 0.00332933, NaN, NaN, NaN, 0.0372337, "- N/A -   "
1.94, 80.44018, 0.00334876, NaN, NaN, NaN, 0.0372337, "- N/A -   "
1.95, 80.794, 0.00336542, NaN, NaN, NaN, 0.03601294, "- N/A -   "
1.96, 81.26581, 0.00338208, NaN, NaN, NaN, 0.03601294, "- N/A -   "
1.97, 81.61965, 0.00340152, NaN, NaN, NaN, 0.0347922, "- N/A -   "
1.98, 82.09144, 0.00341818, NaN, NaN, NaN, 0.0347922, "- N/A -   "
1.99, 82.32734, 0.00343762, NaN, NaN, NaN, 0.0335714, "- N/A -   "
2, 82.79912, 0.00345428, NaN, NaN, NaN, 0.0335714, "- N/A -   "
2.01, 83.15297, 0.00347372, NaN, NaN, NaN, 0.0335714, "- N/A -   "
2.02, 83.6248, 0.00349038, NaN, NaN, NaN, 0.0335714, "- N/A -   "
2.03, 83.86065, 0.00350704, NaN, NaN, NaN, 0.0335714, "- N/A -   "
2.04, 84.21449, 0.00352092, NaN, NaN, NaN, 0.0335714, "- N/A -   "
2.05, 84.45039, 0.00353758, NaN, NaN, NaN, 0.0347922, "- N/A -   "
2.06, 84.80424, 0.00355147, NaN, NaN, NaN, 0.0347922, "- N/A -   "
2.07, 85.15807, 0.00356535, NaN, NaN, NaN, 0.03601294, "- N/A -   "
2.08, 85.39397, 0.00357923, NaN, NaN, NaN, 0.0372337, "- N/A -   "
2.09, 85.74781, 0.00359589, NaN, NaN, NaN, 0.0372337, "- N/A -   "
2.1, 86.1017, 0.00360978, NaN, NaN, NaN, 0.0384545, "- N/A -   "
2.11, 86.57345, 0.00362644, NaN, NaN, NaN, 0.0384545, "- N/A -   "
2.12, 86.69139, 0.0036431, NaN, NaN, NaN, 0.0384545, "- N/A -   "
2.13, 87.16318, 0.003659759, NaN, NaN, NaN, 0.0384545, "- N/A -   "
2.14, 87.51702, 0.00367642, NaN, NaN, NaN, 0.0396753, "- N/A -   "
2.15, 87.75292, 0.0036903, NaN, NaN, NaN, 0.0396753, "- N/A -   "
2.16, 88.10676, 0.003704187, NaN, NaN, NaN, 0.04089605, "- N/A -   "
2.17, 88.4606, 0.00372085, NaN, NaN, NaN, 0.04089605, "- N/A -   "
2.18, 88.8144, 0.00373473, NaN, NaN, NaN, 0.04211683, "- N/A -   "
2.19, 89.16828, 0.00375139, NaN, NaN, NaN, 0.04211683, "- N/A -   "
2.2, 89.52213, 0.003770829, NaN, NaN, NaN, 0.04089605, "- N/A -   "
2.21, 89.99392, 0.00379027, NaN, NaN, NaN, 0.0396753, "- N/A -   "
2.22, 90.34776, 0.00380693, NaN, NaN, NaN, 0.0396753, "- N/A -   "
2.23, 90.70161, 0.003826364, NaN, NaN, NaN, 0.0396753, "- N/A -   "
2.24, 91.1734, 0.00384302, NaN, NaN, NaN, 0.0384545, "- N/A -   "
2.25, 91.52724, 0.003859685, NaN, NaN, NaN, 0.0384545, "- N/A -   "
2.26, 91.88108, 0.00387635, NaN, NaN, NaN, 0.0384545, "- N/A -   "
2.27, 92.35287, 0.00389301, NaN, NaN, NaN, 0.0384545, "- N/A -   "
2.28, 92.70671, 0.00391244, NaN, NaN, NaN, 0.0384545, "- N/A -   "
2.29, 93.0606, 0.003926327, NaN, NaN, NaN, 0.0384545, "- N/A -   "
2.3, 93.2965, 0.00394576, NaN, NaN, NaN, 0.0384545, "- N/A -   "
2.31, 93.65029, 0.003962425, NaN, NaN, NaN, 0.0384545, "- N/A -   "
2.32, 94.1221, 0.00397909, NaN, NaN, NaN, 0.0372337, "- N/A -   "
2.33, 94.47592, 0.00399852, NaN, NaN, NaN, 0.03601294, "- N/A -   "
2.34, 94.8298, 0.004015183, NaN, NaN, NaN, 0.03601294, "- N/A -   "
2.35, 95.18361, 0.00403462, NaN, NaN, NaN, 0.03601294, "- N/A -   "
2.36, 95.6554, 0.004051281, NaN, NaN, NaN, 0.0347922, "- N/A -   "
2.37, 96.00924, 0.00406794, NaN, NaN, NaN, 0.0347922, "- N/A -   "
2.38, 96.481, 0.004084602, NaN, NaN, NaN, 0.0347922, "- N/A -   "
2.39, 96.71693, 0.00410126, NaN, NaN, NaN, 0.03601294, "- N/A -   "
2.4, 96.95282, 0.004115146, NaN, NaN, NaN, 0.03601294, "- N/A -   "
2.41, 97.4246, 0.00413181, NaN, NaN, NaN, 0.03601294, "- N/A -   "
2.42, 97.6605, 0.00414569, NaN, NaN, NaN, 0.0372337, "- N/A -   "
2.43, 98.13229, 0.004165128, NaN, NaN, NaN, 0.03601294, "- N/A -   "
2.44, 98.3682, 0.00418179, NaN, NaN, NaN, 0.03601294, "- N/A -   "
2.45, 98.83998, 0.00419845, NaN, NaN, NaN, 0.03601294, "- N/A -   "
2.46, 99.1938, 0.004215109, NaN, NaN, NaN, 0.03601294, "- N/A -   "
2.47, 99.54767, 0.00423177, NaN, NaN, NaN, 0.03601294, "- N/A -   "
2.48, 99.7836, 0.00424843, NaN, NaN, NaN, 0.03601294, "- N/A -   "
2.49, 100.3733, 0.00426787, NaN, NaN, NaN, 0.0347922, "- N/A -   "
2.5, 100.727, 0.004287305, NaN, NaN, NaN, 0.0347922, "- N/A -   "
2.51, 100.963, 0.00430397, NaN, NaN, NaN, 0.0347922, "- N/A -   "
2.52, 101.435, 0.004323403, NaN, NaN, NaN, 0.0335714, "- N/A -   "
2.53, 101.789, 0.00434006, NaN, NaN, NaN, 0.0335714, "- N/A -   "
2.54, 102.26, 0.0043595, NaN, NaN, NaN, 0.0323506, "- N/A -   "
2.55, 102.6143, 0.004376161, NaN, NaN, NaN, 0.03112983, "- N/A -   "
2.56, 102.968, 0.004395598, NaN, NaN, NaN, 0.03112983, "- N/A -   "
2.57, 103.44, 0.004412259, NaN, NaN, NaN, 0.0299091, "- N/A -   "
2.58, 103.676, 0.004426142, NaN, NaN, NaN, 0.03112983, "- N/A -   "
2.59, 103.912, 0.00444003, NaN, NaN, NaN, 0.0323506, "- N/A -   "
2.6, 104.266, 0.004456687, NaN, NaN, NaN, 0.0323506, "- N/A -   "
2.61, 104.619, 0.004473347, NaN, NaN, NaN, 0.0323506, "- N/A -   "
2.62, 105.091, 0.00449001, NaN, NaN, NaN, 0.0323506, "- N/A -   "
2.63, 105.209, 0.00450667, NaN, NaN, NaN, 0.0323506, "- N/A -   "
2.64, 105.681, 0.004523329, NaN, NaN, NaN, 0.0323506, "- N/A -   "
2.65, 106.035, 0.00453999, NaN, NaN, NaN, 0.0323506, "- N/A -   "
2.66, 106.507, 0.00455665, NaN, NaN, NaN, 0.0323506, "- N/A -   "
2.67, 106.86, 0.004576087, NaN, NaN, NaN, 0.0323506, "- N/A -   "
2.68, 107.214, 0.00459275, NaN, NaN, NaN, 0.0323506, "- N/A -   "
2.69, 107.45, 0.00460663, NaN, NaN, NaN, 0.0335714, "- N/A -   "
2.7, 107.922, 0.004620515, NaN, NaN, NaN, 0.0335714, "- N/A -   "
2.71, 108.158, 0.00463718, NaN, NaN, NaN, 0.0335714, "- N/A -   "
2.72, 108.512, 0.004653836, NaN, NaN, NaN, 0.0335714, "- N/A -   "
2.73, 108.866, 0.0046705, NaN, NaN, NaN, 0.0335714, "- N/A -   "
2.74, 109.101, 0.004687157, NaN, NaN, NaN, 0.0335714, "- N/A -   "
2.75, 109.5732, 0.00470382, NaN, NaN, NaN, 0.0335714, "- N/A -   "
2.76, 109.927, 0.004720478, NaN, NaN, NaN, 0.0335714, "- N/A -   "
2.77, 110.281, 0.00473714, NaN, NaN, NaN, 0.0335714, "- N/A -   "
2.78, 110.635, 0.004753799, NaN, NaN, NaN, 0.0347922, "- N/A -   "
2.79, 110.871, 0.00477046, NaN, NaN, NaN, 0.0335714, "- N/A -   "
2.8, 111.342, 0.00478712, NaN, NaN, NaN, 0.0335714, "- N/A -   "
2.81, 111.696, 0.00480378, NaN, NaN, NaN, 0.0335714, "- N/A -   "
2.82, 111.932, 0.00482044, NaN, NaN, NaN, 0.0335714, "- N/A -   "
2.83, 112.168, 0.0048371, NaN, NaN, NaN, 0.0335714, "- N/A -   "
2.84, 112.522, 0.00485099, NaN, NaN, NaN, 0.0347922, "- N/A -   "
2.85, 112.876, 0.004864869, NaN, NaN, NaN, 0.03601294, "- N/A -   "
2.86, 113.23, 0.00488153, NaN, NaN, NaN, 0.03601294, "- N/A -   "
2.87, 113.348, 0.004892637, NaN, NaN, NaN, 0.0384545, "- N/A -   "
2.88, 113.701, 0.00490652, NaN, NaN, NaN, 0.0396753, "- N/A -   "
2.89, 113.937, 0.004920405, NaN, NaN, NaN, 0.04089605, "- N/A -   "
2.9, 114.2911, 0.004937065, NaN, NaN, NaN, 0.04089605, "- N/A -   "
2.91, 114.763, 0.00495373, NaN, NaN, NaN, 0.04211683, "- N/A -   "
2.92, 114.999, 0.004970385, NaN, NaN, NaN, 0.04211683, "- N/A -   "
2.93, 115.353, 0.00498427, NaN, NaN, NaN, 0.04211683, "- N/A -   "
2.94, 115.706, 0.00500093, NaN, NaN, NaN, 0.04211683, "- N/A -   "
2.95, 116.06, 0.005017591, NaN, NaN, NaN, 0.0433376, "- N/A -   "
2.96, 116.296, 0.005031475, NaN, NaN, NaN, 0.0433376, "- N/A -   "
2.97, 116.65, 0.00504814, NaN, NaN, NaN, 0.0433376, "- N/A -   "
2.98, 117.004, 0.0050648, NaN, NaN, NaN, 0.0445584, "- N/A -   "
2.99, 117.24, 0.00507868, NaN, NaN, NaN, 0.0445584, "- N/A -   "
3, 117.594, 0.00509534, NaN, NaN, NaN, 0.0445584, "- N/A -   "
3.01, 118.065, 0.005112, NaN, NaN, NaN, 0.04577916, "- N/A -   "
3.02, 118.419, 0.005128661, NaN, NaN, NaN, 0.04577916, "- N/A -   "
3.03, 118.7731, 0.005145321, NaN, NaN, NaN, 0.04577916, "- N/A -   "
3.04, 119.127, 0.00515921, NaN, NaN, NaN, 0.04577916, "- N/A -   "
3.05, 119.363, 0.00517864, NaN, NaN, NaN, 0.0445584, "- N/A -   "
3.06, 119.835, 0.005195303, NaN, NaN, NaN, 0.0445584, "- N/A -   "
3.07, 120.188, 0.00521474, NaN, NaN, NaN, 0.0445584, "- N/A -   "
3.08, 120.542, 0.005231401, NaN, NaN, NaN, 0.0433376, "- N/A -   "
3.09, 120.896, 0.00524806, NaN, NaN, NaN, 0.0433376, "- N/A -   "
3.1, 121.368, 0.0052675, NaN, NaN, NaN, 0.04211683, "- N/A -   "
3.11, 121.722, 0.00528694, NaN, NaN, NaN, 0.04089605, "- N/A -   "
3.12, 122.312, 0.00530637, NaN, NaN, NaN, 0.0396753, "- N/A -   "
3.13, 122.665, 0.00532581, NaN, NaN, NaN, 0.0384545, "- N/A -   "
3.14, 123.137, 0.005345247, NaN, NaN, NaN, 0.0372337, "- N/A -   "
3.15, 123.491, 0.005364685, NaN, NaN, NaN, 0.03601294, "- N/A -   "
3.16, 124.081, 0.005386899, NaN, NaN, NaN, 0.0335714, "- N/A -   "
3.17, 124.317, 0.00540634, NaN, NaN, NaN, 0.0335714, "- N/A -   "
3.18, 124.788, 0.005422996, NaN, NaN, NaN, 0.0335714, "- N/A -   "
3.19, 125.142, 0.00543966, NaN, NaN, NaN, 0.0335714, "- N/A -   "
3.2, 125.496, 0.00545632, NaN, NaN, NaN, 0.0335714, "- N/A -   "
3.21, 125.85, 0.0054702, NaN, NaN, NaN, 0.0347922, "- N/A -   "
3.22, 126.086, 0.005484085, NaN, NaN, NaN, 0.0347922, "- N/A -   "
3.23, 126.558, 0.00550352, NaN, NaN, NaN, 0.0347922, "- N/A -   "
3.24, 126.911, 0.005520183, NaN, NaN, NaN, 0.0335714, "- N/A -   "
3.25, 127.265, 0.00553684, NaN, NaN, NaN, 0.0335714, "- N/A -   "
3.26, 127.619, 0.0055535, NaN, NaN, NaN, 0.0335714, "- N/A -   "
3.27, 127.855, 0.005570164, NaN, NaN, NaN, 0.0347922, "- N/A -   "
3.28, 128.209, 0.00558683, NaN, NaN, NaN, 0.0347922, "- N/A -   "
3.29, 128.563, 0.005600708, NaN, NaN, NaN, 0.03601294, "- N/A -   "
3.3, 128.917, 0.00561737, NaN, NaN, NaN, 0.03601294, "- N/A -   "
3.31, 129.152, 0.00563403, NaN, NaN, NaN, 0.0347922, "- N/A -   "
3.32, 129.742, 0.005653467, NaN, NaN, NaN, 0.0347922, "- N/A -   "
3.33, 130.214, 0.00567013, NaN, NaN, NaN, 0.0335714, "- N/A -   "
3.34, 130.568, 0.00569234, NaN, NaN, NaN, 0.0323506, "- N/A -   "
3.35, 130.922, 0.005709002, NaN, NaN, NaN, 0.03112983, "- N/A -   "
3.36, 131.393, 0.00572566, NaN, NaN, NaN, 0.03112983, "- N/A -   "
3.37, 131.747, 0.0057451, NaN, NaN, NaN, 0.0299091, "- N/A -   "
3.38, 132.219, 0.00576176, NaN, NaN, NaN, 0.0299091, "- N/A -   "
3.39, 132.455, 0.005775644, NaN, NaN, NaN, 0.03112983, "- N/A -   "
3.4, 132.6909, 0.005792304, NaN, NaN, NaN, 0.03112983, "- N/A -   "
3.41, 133.163, 0.00580897, NaN, NaN, NaN, 0.0323506, "- N/A -   "
3.42, 133.399, 0.005822848, NaN, NaN, NaN, 0.0323506, "- N/A -   "
3.43, 133.752, 0.00583951, NaN, NaN, NaN, 0.0323506, "- N/A -   "
3.44, 134.106, 0.00585339, NaN, NaN, NaN, 0.0335714, "- N/A -   "
3.45, 134.46, 0.00587005, NaN, NaN, NaN, 0.0335714, "- N/A -   "
3.46, 134.814, 0.005886714, NaN, NaN, NaN, 0.0335714, "- N/A -   "
3.47, 134.932, 0.005903374, NaN, NaN, NaN, 0.0347922, "- N/A -   "
3.48, 135.4037, 0.00592004, NaN, NaN, NaN, 0.0335714, "- N/A -   "
3.49, 135.758, 0.005933918, NaN, NaN, NaN, 0.0347922, "- N/A -   "
3.5, 136.111, 0.00595058, NaN, NaN, NaN, 0.0347922, "- N/A -   "
3.51, 136.465, 0.00596446, NaN, NaN, NaN, 0.03601294, "- N/A -   "
3.52, 136.819, 0.00598112, NaN, NaN, NaN, 0.0372337, "- N/A -   "
3.53, 137.055, 0.00599501, NaN, NaN, NaN, 0.0372337, "- N/A -   "
3.54, 137.4088, 0.00600889, NaN, NaN, NaN, 0.0384545, "- N/A -   "
3.55, 137.527, 0.006022774, NaN, NaN, NaN, 0.04089605, "- N/A -   "
3.56, 137.999, 0.00603666, NaN, NaN, NaN, 0.04089605, "- N/A -   "
3.57, 138.352, 0.006050542, NaN, NaN, NaN, 0.04211683, "- N/A -   "
3.58, 138.706, 0.0060672, NaN, NaN, NaN, 0.04211683, "- N/A -   "
3.59, 139.178, 0.006083864, NaN, NaN, NaN, 0.04211683, "- N/A -   "
3.6, 139.414, 0.00610052, NaN, NaN, NaN, 0.04211683, "- N/A -   "
3.61, 139.768, 0.006114408, NaN, NaN, NaN, 0.0433376, "- N/A -   "
3.62, 140.1216, 0.006131068, NaN, NaN, NaN, 0.0445584, "- N/A -   "
3.63, 140.357, 0.00614218, NaN, NaN, NaN, 0.04699994, "- N/A -   "
3.64, 140.593, 0.00615884, NaN, NaN, NaN, 0.0482207, "- N/A -   "
3.65, 140.829, 0.00617272, NaN, NaN, NaN, 0.0482207, "- N/A -   "
3.66, 141.419, 0.006192156, NaN, NaN, NaN, 0.0482207, "- N/A -   "
3.67, 141.773, 0.00620882, NaN, NaN, NaN, 0.04699994, "- N/A -   "
3.68, 142.245, 0.006228254, NaN, NaN, NaN, 0.04699994, "- N/A -   "
3.69, 142.5985, 0.006247692, NaN, NaN, NaN, 0.04577916, "- N/A -   "
3.7, 143.07, 0.00626713, NaN, NaN, NaN, 0.0433376, "- N/A -   "
3.71, 143.542, 0.006286566, NaN, NaN, NaN, 0.04211683, "- N/A -   "
3.72, 144.014, 0.006306004, NaN, NaN, NaN, 0.04089605, "- N/A -   "
3.73, 144.486, 0.00632544, NaN, NaN, NaN, 0.0396753, "- N/A -   "
3.74, 144.8395, 0.006344878, NaN, NaN, NaN, 0.0396753, "- N/A -   "
3.75, 145.311, 0.006361538, NaN, NaN, NaN, 0.0384545, "- N/A -   "
3.76, 145.783, 0.006380976, NaN, NaN, NaN, 0.0372337, "- N/A -   "
3.77, 146.019, 0.006397636, NaN, NaN, NaN, 0.0372337, "- N/A -   "
3.78, 146.491, 0.0064143, NaN, NaN, NaN, 0.0372337, "- N/A -   "
3.79, 146.8446, 0.006430958, NaN, NaN, NaN, 0.0372337, "- N/A -   "
3.8, 147.198, 0.006447618, NaN, NaN, NaN, 0.0372337, "- N/A -   "
3.81, 147.552, 0.00646428, NaN, NaN, NaN, 0.0372337, "- N/A -   "
3.82, 147.906, 0.00648094, NaN, NaN, NaN, 0.0372337, "- N/A -   "
3.83, 148.378, 0.006500376, NaN, NaN, NaN, 0.03601294, "- N/A -   "
3.84, 148.732, 0.00651704, NaN, NaN, NaN, 0.03601294, "- N/A -   "
3.85, 149.204, 0.006536474, NaN, NaN, NaN, 0.03601294, "- N/A -   "
3.86, 149.557, 0.00655313, NaN, NaN, NaN, 0.0347922, "- N/A -   "
3.87, 149.793, 0.006572572, NaN, NaN, NaN, 0.0347922, "- N/A -   "
3.88, 150.265, 0.006589232, NaN, NaN, NaN, 0.0347922, "- N/A -   "
3.89, 150.619, 0.00660867, NaN, NaN, NaN, 0.0335714, "- N/A -   "
3.9, 151.091, 0.00662533, NaN, NaN, NaN, 0.0323506, "- N/A -   "
3.91, 151.5625, 0.00664199, NaN, NaN, NaN, 0.0323506, "- N/A -   "
3.92, 152.034, 0.0066642, NaN, NaN, NaN, 0.03112983, "- N/A -   "
3.93, 152.388, 0.00668086, NaN, NaN, NaN, 0.0299091, "- N/A -   "
3.94, 152.86, 0.0067003, NaN, NaN, NaN, 0.0299091, "- N/A -   "
3.95, 153.214, 0.00671696, NaN, NaN, NaN, 0.0286883, "- N/A -   "
3.96, 153.686, 0.006733624, NaN, NaN, NaN, 0.0286883, "- N/A -   "
3.97, 153.921, 0.006750284, NaN, NaN, NaN, 0.0286883, "- N/A -   "
3.98, 154.393, 0.006766944, NaN, NaN, NaN, 0.0286883, "- N/A -   "
3.99, 154.747, 0.0067836, NaN, NaN, NaN, 0.0286883, "- N/A -   "
4, 155.101, 0.006800266, NaN, NaN, NaN, 0.0286883, "- N/A -   "
4.01, 155.455, 0.006816926, NaN, NaN, NaN, 0.0286883, "- N/A -   "
4.02, 155.809, 0.00683359, NaN, NaN, NaN, 0.0286883, "- N/A -   "
4.03, 156.162, 0.006850247, NaN, NaN, NaN, 0.0286883, "- N/A -   "
4.04, 156.5163, 0.006866908, NaN, NaN, NaN, 0.0286883, "- N/A -   "
4.05, 156.87, 0.006883568, NaN, NaN, NaN, 0.0286883, "- N/A -   "
4.06, 157.224, 0.00690023, NaN, NaN, NaN, 0.0286883, "- N/A -   "
4.07, 157.696, 0.00691689, NaN, NaN, NaN, 0.0299091, "- N/A -   "
4.08, 158.0496, 0.00693077, NaN, NaN, NaN, 0.0299091, "- N/A -   "
4.09, 158.2855, 0.00694743, NaN, NaN, NaN, 0.03112983, "- N/A -   "
4.1, 158.521, 0.006961317, NaN, NaN, NaN, 0.03112983, "- N/A -   "
4.11, 158.875, 0.0069752, NaN, NaN, NaN, 0.0335714, "- N/A -   "
4.12, 159.111, 0.00698908, NaN, NaN, NaN, 0.0347922, "- N/A -   "
4.13, 159.465, 0.00700297, NaN, NaN, NaN, 0.03601294, "- N/A -   "
4.14, 159.701, 0.007016852, NaN, NaN, NaN, 0.03601294, "- N/A -   "
4.15, 160.173, 0.00703351, NaN, NaN, NaN, 0.03601294, "- N/A -   "
4.16, 160.5265, 0.007047396, NaN, NaN, NaN, 0.0372337, "- N/A -   "
4.17, 160.7624, 0.00706128, NaN, NaN, NaN, 0.0384545, "- N/A -   "
4.18, 161.116, 0.00707794, NaN, NaN, NaN, 0.0384545, "- N/A -   "
4.19, 161.4701, 0.00709182, NaN, NaN, NaN, 0.0396753, "- N/A -   "
4.2, 161.706, 0.007105708, NaN, NaN, NaN, 0.04089605, "- N/A -   "
4.21, 162.06, 0.00711959, NaN, NaN, NaN, 0.04211683, "- N/A -   "
4.22, 162.414, 0.00713625, NaN, NaN, NaN, 0.04211683, "- N/A -   "
4.23, 162.768, 0.00715014, NaN, NaN, NaN, 0.0433376, "- N/A -   "
4.24, 163.0034, 0.0071668, NaN, NaN, NaN, 0.0433376, "- N/A -   "
4.25, 163.357, 0.00718068, NaN, NaN, NaN, 0.0445584, "- N/A -   "
4.26, 163.829, 0.007194564, NaN, NaN, NaN, 0.04577916, "- N/A -   "
4.27, 164.183, 0.00721122, NaN, NaN, NaN, 0.04577916, "- N/A -   "
4.28, 164.537, 0.00722788, NaN, NaN, NaN, 0.04577916, "- N/A -   "
4.29, 164.891, 0.00724732, NaN, NaN, NaN, 0.04577916, "- N/A -   "
4.3, 165.2444, 0.00726121, NaN, NaN, NaN, 0.04577916, "- N/A -   "
4.31, 165.7162, 0.007277867, NaN, NaN, NaN, 0.04577916, "- N/A -   "
4.32, 166.07, 0.0072973, NaN, NaN, NaN, 0.04577916, "- N/A -   "
4.33, 166.424, 0.007311188, NaN, NaN, NaN, 0.04577916, "- N/A -   "
4.34, 166.896, 0.007330625, NaN, NaN, NaN, 0.04577916, "- N/A -   "
4.35, 167.132, 0.00734451, NaN, NaN, NaN, 0.04577916, "- N/A -   "
4.36, 167.485, 0.007361169, NaN, NaN, NaN, 0.04577916, "- N/A -   "
4.37, 167.839, 0.00737783, NaN, NaN, NaN, 0.04699994, "- N/A -   "
4.38, 168.311, 0.00739449, NaN, NaN, NaN, 0.04577916, "- N/A -   "
4.39, 168.665, 0.00741115, NaN, NaN, NaN, 0.04577916, "- N/A -   "
4.4, 169.019, 0.00743059, NaN, NaN, NaN, 0.0445584, "- N/A -   "
4.41, 169.491, 0.007450025, NaN, NaN, NaN, 0.0445584, "- N/A -   "
4.42, 169.962, 0.00746669, NaN, NaN, NaN, 0.0445584, "- N/A -   "
4.43, 170.316, 0.00748335, NaN, NaN, NaN, 0.0433376, "- N/A -   "
4.44, 170.788, 0.007502783, NaN, NaN, NaN, 0.0433376, "- N/A -   "
4.45, 171.26, 0.00752222, NaN, NaN, NaN, 0.04211683, "- N/A -   "
4.46, 171.614, 0.007538881, NaN, NaN, NaN, 0.04089605, "- N/A -   "
4.47, 171.9674, 0.007558319, NaN, NaN, NaN, 0.0396753, "- N/A -   "
4.48, 172.4392, 0.00757776, NaN, NaN, NaN, 0.0384545, "- N/A -   "
4.49, 172.911, 0.007597193, NaN, NaN, NaN, 0.0372337, "- N/A -   "
4.5, 173.383, 0.007619407, NaN, NaN, NaN, 0.03601294, "- N/A -   "
4.51, 173.855, 0.00763884, NaN, NaN, NaN, 0.0335714, "- N/A -   "
4.52, 174.208, 0.00765828, NaN, NaN, NaN, 0.0323506, "- N/A -   "
4.53, 174.798, 0.00767494, NaN, NaN, NaN, 0.0323506, "- N/A -   "
4.54, 175.034, 0.0076916, NaN, NaN, NaN, 0.0323506, "- N/A -   "
4.55, 175.624, 0.007708263, NaN, NaN, NaN, 0.0323506, "- N/A -   "
4.56, 175.86, 0.0077277, NaN, NaN, NaN, 0.03112983, "- N/A -   "
4.57, 176.214, 0.00774714, NaN, NaN, NaN, 0.03112983, "- N/A -   "
4.58, 176.6853, 0.007763799, NaN, NaN, NaN, 0.0299091, "- N/A -   "
4.59, 177.039, 0.007780459, NaN, NaN, NaN, 0.0299091, "- N/A -   "
4.6, 177.511, 0.007797119, NaN, NaN, NaN, 0.0299091, "- N/A -   "
4.61, 177.865, 0.00781378, NaN, NaN, NaN, 0.0299091, "- N/A -   "
4.62, 178.219, 0.007830441, NaN, NaN, NaN, 0.0299091, "- N/A -   "
4.63, 178.572, 0.0078471, NaN, NaN, NaN, 0.0299091, "- N/A -   "
4.64, 179.044, 0.007866538, NaN, NaN, NaN, 0.0299091, "- N/A -   "
4.65, 179.28, 0.007880421, NaN, NaN, NaN, 0.0299091, "- N/A -   "
4.66, 179.516, 0.00789431, NaN, NaN, NaN, 0.03112983, "- N/A -   "
4.67, 179.87, 0.007908189, NaN, NaN, NaN, 0.0323506, "- N/A -   "
4.68, 180.224, 0.007924849, NaN, NaN, NaN, 0.0335714, "- N/A -   "
4.69, 180.578, 0.007938733, NaN, NaN, NaN, 0.0335714, "- N/A -   "
4.7, 181.049, 0.00795262, NaN, NaN, NaN, 0.0347922, "- N/A -   "
4.71, 181.285, 0.007966501, NaN, NaN, NaN, 0.03601294, "- N/A -   "
4.72, 181.757, 0.007983161, NaN, NaN, NaN, 0.03601294, "- N/A -   "
4.73, 182.1109, 0.00799982, NaN, NaN, NaN, 0.03601294, "- N/A -   "
4.74, 182.465, 0.008016483, NaN, NaN, NaN, 0.03601294, "- N/A -   "
4.75, 182.701, 0.008033143, NaN, NaN, NaN, 0.03601294, "- N/A -   "
4.76, 183.172, 0.008049804, NaN, NaN, NaN, 0.03601294, "- N/A -   "
4.77, 183.526, 0.008063687, NaN, NaN, NaN, 0.0372337, "- N/A -   "
4.78, 183.8801, 0.008080347, NaN, NaN, NaN, 0.0372337, "- N/A -   "
4.79, 184.234, 0.008097009, NaN, NaN, NaN, 0.0372337, "- N/A -   "
4.8, 184.5878, 0.00811645, NaN, NaN, NaN, 0.0372337, "- N/A -   "
4.81, 184.942, 0.00813033, NaN, NaN, NaN, 0.0372337, "- N/A -   "
4.82, 185.413, 0.008146989, NaN, NaN, NaN, 0.0372337, "- N/A -   "
4.83, 185.767, 0.008166427, NaN, NaN, NaN, 0.0372337, "- N/A -   "
4.84, 186.239, 0.008180311, NaN, NaN, NaN, 0.0372337, "- N/A -   "
4.85, 186.593, 0.008199749, NaN, NaN, NaN, 0.03601294, "- N/A -   "
4.86, 186.947, 0.008216409, NaN, NaN, NaN, 0.03601294, "- N/A -   "
4.87, 187.419, 0.008230293, NaN, NaN, NaN, 0.0372337, "- N/A -   "
4.88, 187.654, 0.008246954, NaN, NaN, NaN, 0.0372337, "- N/A -   "
4.89, 188.008, 0.008263613, NaN, NaN, NaN, 0.0384545, "- N/A -   "
4.9, 188.3621, 0.008277497, NaN, NaN, NaN, 0.0396753, "- N/A -   "
4.91, 188.598, 0.008291381, NaN, NaN, NaN, 0.0396753, "- N/A -   "
4.92, 188.952, 0.008305265, NaN, NaN, NaN, 0.04089605, "- N/A -   "
4.93, 189.3057, 0.008321925, NaN, NaN, NaN, 0.04211683, "- N/A -   "
4.94, 189.66, 0.008335809, NaN, NaN, NaN, 0.04211683, "- N/A -   "
4.95, 190.131, 0.00835247, NaN, NaN, NaN, 0.04211683, "- N/A -   "
4.96, 190.367, 0.00836913, NaN, NaN, NaN, 0.04211683, "- N/A -   "
4.97, 190.721, 0.008383013, NaN, NaN, NaN, 0.0433376, "- N/A -   "
4.98, 191.075, 0.008399675, NaN, NaN, NaN, 0.0433376, "- N/A -   "
4.99, 191.429, 0.008416335, NaN, NaN, NaN, 0.0433376, "- N/A -   "
5, 191.7826, 0.008430219, NaN, NaN, NaN, 0.0445584, "- N/A -   "
5.01, 192.136, 0.00844688, NaN, NaN, NaN, 0.0445584, "- N/A -   "
5.02, 192.372, 0.008460763, NaN, NaN, NaN, 0.04577916, "- N/A -   "
5.03, 192.844, 0.008477423, NaN, NaN, NaN, 0.04699994, "- N/A -   "
5.04, 193.198, 0.00849131, NaN, NaN, NaN, 0.04699994, "- N/A -   "
5.05, 193.434, 0.008510745, NaN, NaN, NaN, 0.04699994, "- N/A -   "
5.06, 193.906, 0.008527406, NaN, NaN, NaN, 0.04577916, "- N/A -   "
5.07, 194.377, 0.008546841, NaN, NaN, NaN, 0.0445584, "- N/A -   "
5.08, 194.849, 0.008569056, NaN, NaN, NaN, 0.0433376, "- N/A -   "
5.09, 195.321, 0.008588494, NaN, NaN, NaN, 0.04089605, "- N/A -   "
5.1, 195.911, 0.008607931, NaN, NaN, NaN, 0.0396753, "- N/A -   "
5.11, 196.383, 0.008630145, NaN, NaN, NaN, 0.0384545, "- N/A -   "
5.12, 196.854, 0.008646806, NaN, NaN, NaN, 0.0372337, "- N/A -   "
5.13, 197.208, 0.008666243, NaN, NaN, NaN, 0.03601294, "- N/A -   "
5.14, 197.798, 0.008688457, NaN, NaN, NaN, 0.0347922, "- N/A -   "
5.15, 198.27, 0.008705118, NaN, NaN, NaN, 0.0335714, "- N/A -   "
5.16, 198.624, 0.008727332, NaN, NaN, NaN, 0.0323506, "- N/A -   "
5.17, 199.095, 0.008741215, NaN, NaN, NaN, 0.0323506, "- N/A -   "
5.18, 199.449, 0.008760652, NaN, NaN, NaN, 0.03112983, "- N/A -   "
5.19, 199.921, 0.008777313, NaN, NaN, NaN, 0.03112983, "- N/A -   "
5.2, 200.157, 0.008793973, NaN, NaN, NaN, 0.03112983, "- N/A -   "
5.21, 200.629, 0.008810634, NaN, NaN, NaN, 0.03112983, "- N/A -   "
5.22, 200.9825, 0.008827294, NaN, NaN, NaN, 0.03112983, "- N/A -   "
5.23, 201.336, 0.008843956, NaN, NaN, NaN, 0.03112983, "- N/A -   "
5.24, 201.69, 0.008860615, NaN, NaN, NaN, 0.0323506, "- N/A -   "
5.25, 202.044, 0.008874499, NaN, NaN, NaN, 0.0323506, "- N/A -   "
5.26, 202.398, 0.00889116, NaN, NaN, NaN, 0.0323506, "- N/A -   "
5.27, 202.7517, 0.00890782, NaN, NaN, NaN, 0.0323506, "- N/A -   "
5.28, 203.2235, 0.00892448, NaN, NaN, NaN, 0.0323506, "- N/A -   "
5.29, 203.459, 0.008941141, NaN, NaN, NaN, 0.0323506, "- N/A -   "
5.3, 203.931, 0.008955025, NaN, NaN, NaN, 0.0335714, "- N/A -   "
5.31, 204.285, 0.008971686, NaN, NaN, NaN, 0.0335714, "- N/A -   "
5.32, 204.521, 0.008988346, NaN, NaN, NaN, 0.0335714, "- N/A -   "
5.33, 204.9927, 0.009005006, NaN, NaN, NaN, 0.0335714, "- N/A -   "
5.34, 205.347, 0.00901889, NaN, NaN, NaN, 0.0347922, "- N/A -   "
5.35, 205.7, 0.009038327, NaN, NaN, NaN, 0.0347922, "- N/A -   "
5.36, 206.054, 0.009052211, NaN, NaN, NaN, 0.0347922, "- N/A -   "
5.37, 206.526, 0.009068872, NaN, NaN, NaN, 0.0347922, "- N/A -   "
5.38, 206.762, 0.009085532, NaN, NaN, NaN, 0.0347922, "- N/A -   "
5.39, 207.2337, 0.009102192, NaN, NaN, NaN, 0.0347922, "- N/A -   "
5.4, 207.588, 0.009118853, NaN, NaN, NaN, 0.0347922, "- N/A -   "
5.41, 208.059, 0.00913829, NaN, NaN, NaN, 0.0347922, "- N/A -   "
5.42, 208.4132, 0.00915773, NaN, NaN, NaN, 0.0335714, "- N/A -   "
5.43, 208.885, 0.009174388, NaN, NaN, NaN, 0.0323506, "- N/A -   "
5.44, 209.239, 0.009191048, NaN, NaN, NaN, 0.0323506, "- N/A -   "
5.45, 209.593, 0.00920771, NaN, NaN, NaN, 0.0323506, "- N/A -   "
5.46, 210.064, 0.00922437, NaN, NaN, NaN, 0.0323506, "- N/A -   "
5.47, 210.3, 0.00924103, NaN, NaN, NaN, 0.0323506, "- N/A -   "
5.48, 210.772, 0.009254914, NaN, NaN, NaN, 0.0335714, "- N/A -   "
5.49, 210.89, 0.009268798, NaN, NaN, NaN, 0.0347922, "- N/A -   "
5.5, 211.244, 0.009285458, NaN, NaN, NaN, 0.03601294, "- N/A -   "
5.51, 211.716, 0.009299342, NaN, NaN, NaN, 0.03601294, "- N/A -   "
5.52, 212.07, 0.009316002, NaN, NaN, NaN, 0.0372337, "- N/A -   "
5.53, 212.305, 0.009329886, NaN, NaN, NaN, 0.0372337, "- N/A -   "
5.54, 212.6593, 0.00934377, NaN, NaN, NaN, 0.0384545, "- N/A -   "
5.55, 213.013, 0.009357654, NaN, NaN, NaN, 0.0396753, "- N/A -   "
5.56, 213.367, 0.009374314, NaN, NaN, NaN, 0.0396753, "- N/A -   "
5.57, 213.721, 0.009388198, NaN, NaN, NaN, 0.04089605, "- N/A -   "
5.58, 214.075, 0.009402082, NaN, NaN, NaN, 0.04211683, "- N/A -   "
5.59, 214.4285, 0.009418742, NaN, NaN, NaN, 0.04211683, "- N/A -   "
5.6, 214.782, 0.009435402, NaN, NaN, NaN, 0.04211683, "- N/A -   "
5.61, 215.136, 0.00945484, NaN, NaN, NaN, 0.04211683, "- N/A -   "
5.62, 215.49, 0.0094715, NaN, NaN, NaN, 0.04211683, "- N/A -   "
5.63, 216.08, 0.009488162, NaN, NaN, NaN, 0.04089605, "- N/A -   "
5.64, 216.316, 0.009504822, NaN, NaN, NaN, 0.04089605, "- N/A -   "
5.65, 216.787, 0.00952148, NaN, NaN, NaN, 0.04089605, "- N/A -   "
5.66, 217.141, 0.009538142, NaN, NaN, NaN, 0.04089605, "- N/A -   "
5.67, 217.613, 0.009554803, NaN, NaN, NaN, 0.04211683, "- N/A -   "
5.68, 217.849, 0.009571464, NaN, NaN, NaN, 0.04089605, "- N/A -   "
5.69, 218.321, 0.009588124, NaN, NaN, NaN, 0.04089605, "- N/A -   "
5.7, 218.6746, 0.009604785, NaN, NaN, NaN, 0.04211683, "- N/A -   "
5.71, 219.028, 0.009621446, NaN, NaN, NaN, 0.04089605, "- N/A -   "
5.72, 219.5, 0.00963811, NaN, NaN, NaN, 0.04089605, "- N/A -   "
5.73, 219.8541, 0.009657542, NaN, NaN, NaN, 0.0396753, "- N/A -   "
5.74, 220.208, 0.009674204, NaN, NaN, NaN, 0.0396753, "- N/A -   "
5.75, 220.68, 0.009693641, NaN, NaN, NaN, 0.0384545, "- N/A -   "
5.76, 221.034, 0.009710302, NaN, NaN, NaN, 0.0384545, "- N/A -   "
5.77, 221.623, 0.009726962, NaN, NaN, NaN, 0.0384545, "- N/A -   "
5.78, 221.859, 0.00974362, NaN, NaN, NaN, 0.0384545, "- N/A -   "
5.79, 222.331, 0.00976306, NaN, NaN, NaN, 0.0372337, "- N/A -   "
5.8, 222.685, 0.009779721, NaN, NaN, NaN, 0.0372337, "- N/A -   "
5.81, 223.157, 0.00979638, NaN, NaN, NaN, 0.0372337, "- N/A -   "
5.82, 223.51, 0.009815818, NaN, NaN, NaN, 0.0372337, "- N/A -   "
5.83, 223.8643, 0.009829702, NaN, NaN, NaN, 0.0372337, "- N/A -   "
5.84, 224.218, 0.009846362, NaN, NaN, NaN, 0.0372337, "- N/A -   "
5.85, 224.572, 0.009863023, NaN, NaN, NaN, 0.0372337, "- N/A -   "
5.86, 225.044, 0.009879684, NaN, NaN, NaN, 0.0372337, "- N/A -   "
5.87, 225.398, 0.009896344, NaN, NaN, NaN, 0.0372337, "- N/A -   "
5.88, 225.751, 0.009913004, NaN, NaN, NaN, 0.0384545, "- N/A -   "
5.89, 226.1053, 0.009926888, NaN, NaN, NaN, 0.0384545, "- N/A -   "
5.9, 226.3412, 0.009943549, NaN, NaN, NaN, 0.0396753, "- N/A -   "
5.91, 226.813, 0.00996021, NaN, NaN, NaN, 0.0384545, "- N/A -   "
5.92, 227.167, 0.009979647, NaN, NaN, NaN, 0.0384545, "- N/A -   "
5.93, 227.639, 0.009996306, NaN, NaN, NaN, 0.0372337, "- N/A -   "
5.94, 228.11, 0.0100157, NaN, NaN, NaN, 0.03601294, "- N/A -   "
5.95, 228.5822, 0.0100352, NaN, NaN, NaN, 0.0347922, "- N/A -   "
5.96, 229.054, 0.0100546, NaN, NaN, NaN, 0.0335714, "- N/A -   "
[...]
36.03, 1469.02, 0.0601639, NaN, NaN, NaN, 0.0384545, "- N/A -   "
36.05, 1469.85, 0.0601944, NaN, NaN, NaN, 0.0384545, "- N/A -   "
36.07, 1470.69, 0.0602277, NaN, NaN, NaN, 0.0384545, "- N/A -   "
36.09, 1471.76, 0.06026662, NaN, NaN, NaN, 0.0372337, "- N/A -   "
36.11, 1472.95, 0.0603055, NaN, NaN, NaN, 0.0347922, "- N/A -   "
36.13, 1473.91, 0.0603388, NaN, NaN, NaN, 0.0335714, "- N/A -   "
36.15, 1474.86, 0.0603749, NaN, NaN, NaN, 0.0323506, "- N/A -   "
36.17, 1475.82, 0.060411, NaN, NaN, NaN, 0.0323506, "- N/A -   "
36.19, 1476.77, 0.0604416, NaN, NaN, NaN, 0.0335714, "- N/A -   "
36.21, 1477.61, 0.0604721, NaN, NaN, NaN, 0.0347922, "- N/A -   "
36.23, 1478.32, 0.06049987, NaN, NaN, NaN, 0.03601294, "- N/A -   "
36.25, 1479.156, 0.0605304, NaN, NaN, NaN, 0.0372337, "- N/A -   "
36.27, 1479.99, 0.0605582, NaN, NaN, NaN, 0.0396753, "- N/A -   "
36.29, 1480.83, 0.0605887, NaN, NaN, NaN, 0.04089605, "- N/A -   "
36.31, 1481.66, 0.060622, NaN, NaN, NaN, 0.04089605, "- N/A -   "
36.33, 1482.61, 0.0606554, NaN, NaN, NaN, 0.04089605, "- N/A -   "
36.35, 1483.57, 0.06068869, NaN, NaN, NaN, 0.04089605, "- N/A -   "
36.37, 1484.52, 0.0607248, NaN, NaN, NaN, 0.04089605, "- N/A -   "
36.39, 1485.48, 0.0607581, NaN, NaN, NaN, 0.0396753, "- N/A -   "
36.41, 1486.43, 0.06079143, NaN, NaN, NaN, 0.04089605, "- N/A -   "
36.43, 1487.15, 0.0608192, NaN, NaN, NaN, 0.04211683, "- N/A -   "
36.45, 1488.22, 0.06085807, NaN, NaN, NaN, 0.04089605, "- N/A -   "
36.47, 1489.17, 0.06089417, NaN, NaN, NaN, 0.0396753, "- N/A -   "
36.49, 1490.13, 0.06092749, NaN, NaN, NaN, 0.0384545, "- N/A -   "
36.51, 1491.08, 0.06096359, NaN, NaN, NaN, 0.0384545, "- N/A -   "
36.53, 1492.15, 0.06099691, NaN, NaN, NaN, 0.0372337, "- N/A -   "
36.55, 1493.11, 0.061033, NaN, NaN, NaN, 0.03601294, "- N/A -   "
36.57, 1494.06, 0.0610691, NaN, NaN, NaN, 0.0347922, "- N/A -   "
36.59, 1495.14, 0.06110798, NaN, NaN, NaN, 0.0335714, "- N/A -   "
36.61, 1496.09, 0.0611413, NaN, NaN, NaN, 0.0335714, "- N/A -   "
36.63, 1497.04, 0.06117462, NaN, NaN, NaN, 0.0323506, "- N/A -   "
36.65, 1497.76, 0.0612052, NaN, NaN, NaN, 0.0335714, "- N/A -   "
36.67, 1498.71, 0.06124126, NaN, NaN, NaN, 0.0335714, "- N/A -   "
36.69, 1499.79, 0.06127458, NaN, NaN, NaN, 0.0323506, "- N/A -   "
36.71, 1500.62, 0.0613079, NaN, NaN, NaN, 0.0323506, "- N/A -   "
36.73, 1501.58, 0.0613412, NaN, NaN, NaN, 0.0323506, "- N/A -   "
36.75, 1502.65, 0.0613773, NaN, NaN, NaN, 0.03112983, "- N/A -   "
36.77, 1503.48, 0.0614106, NaN, NaN, NaN, 0.0323506, "- N/A -   "
36.79, 1504.2, 0.06144119, NaN, NaN, NaN, 0.0323506, "- N/A -   "
36.81, 1505.27, 0.06147451, NaN, NaN, NaN, 0.0335714, "- N/A -   "
36.83, 1506.11, 0.0615023, NaN, NaN, NaN, 0.0347922, "- N/A -   "
36.85, 1507.06, 0.0615384, NaN, NaN, NaN, 0.0335714, "- N/A -   "
36.87, 1507.9, 0.0615717, NaN, NaN, NaN, 0.0347922, "- N/A -   "
36.89, 1508.73, 0.0616022, NaN, NaN, NaN, 0.0347922, "- N/A -   "
36.91, 1509.68, 0.06163834, NaN, NaN, NaN, 0.0347922, "- N/A -   "
36.93, 1510.64, 0.06167166, NaN, NaN, NaN, 0.0347922, "- N/A -   "
36.95, 1511.59, 0.0617022, NaN, NaN, NaN, 0.0347922, "- N/A -   "
36.97, 1512.43, 0.06173275, NaN, NaN, NaN, 0.03601294, "- N/A -   "
36.99, 1513.14, 0.0617633, NaN, NaN, NaN, 0.0372337, "- N/A -   "
37.01, 1513.98, 0.0617938, NaN, NaN, NaN, 0.0384545, "- N/A -   "
37.03, 1514.81, 0.0618244, NaN, NaN, NaN, 0.04089605, "- N/A -   "
37.05, 1515.647, 0.0618549, NaN, NaN, NaN, 0.04089605, "- N/A -   "
37.07, 1516.48, 0.06188547, NaN, NaN, NaN, 0.04211683, "- N/A -   "
37.09, 1517.44, 0.06191879, NaN, NaN, NaN, 0.0433376, "- N/A -   "
37.11, 1518.27, 0.06194933, NaN, NaN, NaN, 0.0433376, "- N/A -   "
37.13, 1519.11, 0.06197988, NaN, NaN, NaN, 0.0445584, "- N/A -   "
37.15, 1520.06, 0.0620132, NaN, NaN, NaN, 0.0445584, "- N/A -   "
37.17, 1521.01, 0.06204652, NaN, NaN, NaN, 0.0445584, "- N/A -   "
37.19, 1521.97, 0.0620798, NaN, NaN, NaN, 0.0445584, "- N/A -   "
37.21, 1522.8, 0.0621132, NaN, NaN, NaN, 0.0445584, "- N/A -   "
37.23, 1523.88, 0.06214926, NaN, NaN, NaN, 0.0433376, "- N/A -   "
37.25, 1524.95, 0.0621881, NaN, NaN, NaN, 0.04089605, "- N/A -   "
37.27, 1526.14, 0.06222979, NaN, NaN, NaN, 0.0372337, "- N/A -   "
37.29, 1527.21, 0.06226866, NaN, NaN, NaN, 0.03601294, "- N/A -   "
37.31, 1528.17, 0.062302, NaN, NaN, NaN, 0.0347922, "- N/A -   "
37.33, 1529.12, 0.0623353, NaN, NaN, NaN, 0.0347922, "- N/A -   "
37.35, 1530.08, 0.0623714, NaN, NaN, NaN, 0.0347922, "- N/A -   "
37.37, 1530.91, 0.0624047, NaN, NaN, NaN, 0.0347922, "- N/A -   "
37.39, 1531.75, 0.0624353, NaN, NaN, NaN, 0.0347922, "- N/A -   "
37.41, 1532.7, 0.0624686, NaN, NaN, NaN, 0.0347922, "- N/A -   "
37.43, 1533.65, 0.06250191, NaN, NaN, NaN, 0.0347922, "- N/A -   "
37.45, 1534.85, 0.0625408, NaN, NaN, NaN, 0.0323506, "- N/A -   "
37.47, 1535.8, 0.06257688, NaN, NaN, NaN, 0.03112983, "- N/A -   "
37.49, 1536.75, 0.06261575, NaN, NaN, NaN, 0.0286883, "- N/A -   "
37.51, 1537.71, 0.0626463, NaN, NaN, NaN, 0.0299091, "- N/A -   "
37.53, 1538.54, 0.06267962, NaN, NaN, NaN, 0.0299091, "- N/A -   "
37.55, 1539.5, 0.06271294, NaN, NaN, NaN, 0.0299091, "- N/A -   "
37.57, 1540.213, 0.0627435, NaN, NaN, NaN, 0.0323506, "- N/A -   "
37.59, 1541.05, 0.06277403, NaN, NaN, NaN, 0.0323506, "- N/A -   "
37.61, 1541.88, 0.06280457, NaN, NaN, NaN, 0.0347922, "- N/A -   "
37.63, 1542.72, 0.06283234, NaN, NaN, NaN, 0.03601294, "- N/A -   "
37.65, 1543.31, 0.06286011, NaN, NaN, NaN, 0.0396753, "- N/A -   "
37.67, 1544.03, 0.06288788, NaN, NaN, NaN, 0.04089605, "- N/A -   "
37.69, 1544.86, 0.0629156, NaN, NaN, NaN, 0.0433376, "- N/A -   "
37.71, 1545.7, 0.0629462, NaN, NaN, NaN, 0.0445584, "- N/A -   "
37.73, 1546.53, 0.06297673, NaN, NaN, NaN, 0.04699994, "- N/A -   "
37.75, 1547.49, 0.06300728, NaN, NaN, NaN, 0.0482207, "- N/A -   "
37.77, 1548.2, 0.06303782, NaN, NaN, NaN, 0.0482207, "- N/A -   "
37.79, 1549.16, 0.06307114, NaN, NaN, NaN, 0.0482207, "- N/A -   "
37.81, 1550.23, 0.06310724, NaN, NaN, NaN, 0.04699994, "- N/A -   "
37.83, 1551.42, 0.06314889, NaN, NaN, NaN, 0.0445584, "- N/A -   "
37.85, 1552.62, 0.06319054, NaN, NaN, NaN, 0.04089605, "- N/A -   "
37.87, 1553.69, 0.06322664, NaN, NaN, NaN, 0.0384545, "- N/A -   "
37.89, 1554.64, 0.06326551, NaN, NaN, NaN, 0.0372337, "- N/A -   "
37.91, 1555.6, 0.06330161, NaN, NaN, NaN, 0.03601294, "- N/A -   "
37.93, 1556.789, 0.0633377, NaN, NaN, NaN, 0.0335714, "- N/A -   "
37.95, 1557.62, 0.0633738, NaN, NaN, NaN, 0.0323506, "- N/A -   "
37.97, 1558.58, 0.06340713, NaN, NaN, NaN, 0.0323506, "- N/A -   "
37.99, 1559.651, 0.06344323, NaN, NaN, NaN, 0.0323506, "- N/A -   "
38.01, 1560.61, 0.06347655, NaN, NaN, NaN, 0.03112983, "- N/A -   "
38.03, 1561.56, 0.0635126, NaN, NaN, NaN, 0.0299091, "- N/A -   "
38.05, 1562.63, 0.06354874, NaN, NaN, NaN, 0.0286883, "- N/A -   "
38.07, 1563.35, 0.06358207, NaN, NaN, NaN, 0.0286883, "- N/A -   "
38.09, 1564.421, 0.06361539, NaN, NaN, NaN, 0.0286883, "- N/A -   "
38.11, 1565.49, 0.06365149, NaN, NaN, NaN, 0.0286883, "- N/A -   "
38.13, 1566.33, 0.0636876, NaN, NaN, NaN, 0.0274675, "- N/A -   "
38.15, 1567.28, 0.0637209, NaN, NaN, NaN, 0.0274675, "- N/A -   "
38.17, 1568, 0.06374867, NaN, NaN, NaN, 0.0286883, "- N/A -   "
38.19, 1568.83, 0.06378199, NaN, NaN, NaN, 0.0286883, "- N/A -   "
38.21, 1569.67, 0.06380976, NaN, NaN, NaN, 0.03112983, "- N/A -   "
38.23, 1570.38, 0.06383753, NaN, NaN, NaN, 0.0335714, "- N/A -   "
38.25, 1571.22, 0.0638653, NaN, NaN, NaN, 0.03601294, "- N/A -   "
38.27, 1572.17, 0.06389584, NaN, NaN, NaN, 0.0372337, "- N/A -   "
38.29, 1572.77, 0.0639236, NaN, NaN, NaN, 0.0396753, "- N/A -   "
38.31, 1573.48, 0.06395137, NaN, NaN, NaN, 0.04211683, "- N/A -   "
38.33, 1574.319, 0.06398191, NaN, NaN, NaN, 0.0433376, "- N/A -   "
38.35, 1575.03, 0.06401246, NaN, NaN, NaN, 0.0445584, "- N/A -   "
38.37, 1576.11, 0.06404301, NaN, NaN, NaN, 0.04577916, "- N/A -   "
38.39, 1577.06, 0.0640791, NaN, NaN, NaN, 0.0445584, "- N/A -   "
38.41, 1578.02, 0.0641124, NaN, NaN, NaN, 0.0445584, "- N/A -   "
38.43, 1578.97, 0.06414852, NaN, NaN, NaN, 0.0445584, "- N/A -   "
38.45, 1579.924, 0.06418184, NaN, NaN, NaN, 0.0433376, "- N/A -   "
38.47, 1580.88, 0.06421516, NaN, NaN, NaN, 0.0433376, "- N/A -   "
38.49, 1581.83, 0.06425126, NaN, NaN, NaN, 0.0433376, "- N/A -   "
38.51, 1582.79, 0.0642846, NaN, NaN, NaN, 0.0433376, "- N/A -   "
38.53, 1583.86, 0.0643179, NaN, NaN, NaN, 0.04211683, "- N/A -   "
38.55, 1584.694, 0.064354, NaN, NaN, NaN, 0.04211683, "- N/A -   "
38.57, 1585.648, 0.06438732, NaN, NaN, NaN, 0.04089605, "- N/A -   "
38.59, 1586.72, 0.06442342, NaN, NaN, NaN, 0.0396753, "- N/A -   "
38.61, 1587.79, 0.0644623, NaN, NaN, NaN, 0.0372337, "- N/A -   "
38.63, 1588.987, 0.0645039, NaN, NaN, NaN, 0.0335714, "- N/A -   "
38.65, 1590.06, 0.0645428, NaN, NaN, NaN, 0.03112983, "- N/A -   "
38.67, 1591.13, 0.06458169, NaN, NaN, NaN, 0.0286883, "- N/A -   "
38.69, 1592.09, 0.06461779, NaN, NaN, NaN, 0.0286883, "- N/A -   "
38.71, 1593.16, 0.06465389, NaN, NaN, NaN, 0.0274675, "- N/A -   "
38.73, 1594, 0.06468721, NaN, NaN, NaN, 0.0274675, "- N/A -   "
38.75, 1594.83, 0.06471498, NaN, NaN, NaN, 0.0286883, "- N/A -   "
38.77, 1595.55, 0.06474552, NaN, NaN, NaN, 0.03112983, "- N/A -   "
38.79, 1596.5, 0.06477606, NaN, NaN, NaN, 0.0323506, "- N/A -   "
38.81, 1597.22, 0.06480384, NaN, NaN, NaN, 0.0335714, "- N/A -   "
38.83, 1598.05, 0.06483438, NaN, NaN, NaN, 0.0347922, "- N/A -   "
38.85, 1598.885, 0.06486492, NaN, NaN, NaN, 0.03601294, "- N/A -   "
38.87, 1599.6, 0.0648927, NaN, NaN, NaN, 0.0384545, "- N/A -   "
38.89, 1600.55, 0.06492601, NaN, NaN, NaN, 0.0396753, "- N/A -   "
38.91, 1601.51, 0.06495933, NaN, NaN, NaN, 0.0384545, "- N/A -   "
38.93, 1602.46, 0.06499543, NaN, NaN, NaN, 0.0384545, "- N/A -   "
38.95, 1603.54, 0.06503153, NaN, NaN, NaN, 0.0372337, "- N/A -   "
38.97, 1604.49, 0.06506485, NaN, NaN, NaN, 0.0372337, "- N/A -   "
38.99, 1605.32, 0.0650954, NaN, NaN, NaN, 0.0372337, "- N/A -   "
39.01, 1606.28, 0.06512872, NaN, NaN, NaN, 0.0372337, "- N/A -   "
39.03, 1606.87, 0.06515648, NaN, NaN, NaN, 0.0396753, "- N/A -   "
39.05, 1607.71, 0.06518425, NaN, NaN, NaN, 0.04211683, "- N/A -   "
39.07, 1608.54, 0.0652148, NaN, NaN, NaN, 0.0433376, "- N/A -   "
39.09, 1609.5, 0.06524812, NaN, NaN, NaN, 0.0433376, "- N/A -   "
39.11, 1610.45, 0.06527866, NaN, NaN, NaN, 0.0445584, "- N/A -   "
39.13, 1611.17, 0.0653092, NaN, NaN, NaN, 0.04577916, "- N/A -   "
39.15, 1612.12, 0.06534252, NaN, NaN, NaN, 0.04577916, "- N/A -   "
39.17, 1613.08, 0.0653814, NaN, NaN, NaN, 0.0445584, "- N/A -   "
39.19, 1614.27, 0.06542028, NaN, NaN, NaN, 0.04211683, "- N/A -   "
39.21, 1615.46, 0.0654619, NaN, NaN, NaN, 0.0384545, "- N/A -   "
39.23, 1616.53, 0.0655008, NaN, NaN, NaN, 0.0347922, "- N/A -   "
39.25, 1617.61, 0.06553967, NaN, NaN, NaN, 0.0323506, "- N/A -   "
39.27, 1618.68, 0.06558133, NaN, NaN, NaN, 0.0299091, "- N/A -   "
39.29, 1619.754, 0.06561465, NaN, NaN, NaN, 0.0286883, "- N/A -   "
39.31, 1620.71, 0.06564797, NaN, NaN, NaN, 0.0286883, "- N/A -   "
39.33, 1621.662, 0.0656841, NaN, NaN, NaN, 0.0274675, "- N/A -   "
39.35, 1622.616, 0.06571461, NaN, NaN, NaN, 0.0286883, "- N/A -   "
39.37, 1623.33, 0.06574515, NaN, NaN, NaN, 0.0299091, "- N/A -   "
39.39, 1624.17, 0.06577848, NaN, NaN, NaN, 0.03112983, "- N/A -   "
39.41, 1625, 0.06580624, NaN, NaN, NaN, 0.0323506, "- N/A -   "
39.43, 1625.84, 0.06583679, NaN, NaN, NaN, 0.0335714, "- N/A -   "
39.45, 1626.67, 0.0658701, NaN, NaN, NaN, 0.0347922, "- N/A -   "
39.47, 1627.51, 0.06590343, NaN, NaN, NaN, 0.0347922, "- N/A -   "
39.49, 1628.58, 0.06593953, NaN, NaN, NaN, 0.0323506, "- N/A -   "
39.51, 1629.652, 0.06597563, NaN, NaN, NaN, 0.03112983, "- N/A -   "
39.53, 1630.61, 0.06601173, NaN, NaN, NaN, 0.03112983, "- N/A -   "
39.55, 1631.56, 0.066045, NaN, NaN, NaN, 0.03112983, "- N/A -   "
39.57, 1632.51, 0.0660756, NaN, NaN, NaN, 0.03112983, "- N/A -   "
39.59, 1633.23, 0.06610613, NaN, NaN, NaN, 0.0323506, "- N/A -   "
39.61, 1634.06, 0.0661339, NaN, NaN, NaN, 0.0347922, "- N/A -   "
39.63, 1634.78, 0.06616166, NaN, NaN, NaN, 0.0372337, "- N/A -   "
39.65, 1635.73, 0.06619221, NaN, NaN, NaN, 0.0384545, "- N/A -   "
39.67, 1636.45, 0.06622276, NaN, NaN, NaN, 0.0396753, "- N/A -   "
39.69, 1637.16, 0.0662533, NaN, NaN, NaN, 0.04089605, "- N/A -   "
39.71, 1637.88, 0.0662838, NaN, NaN, NaN, 0.04211683, "- N/A -   "
39.73, 1638.83, 0.06631439, NaN, NaN, NaN, 0.0433376, "- N/A -   "
39.75, 1639.79, 0.06635049, NaN, NaN, NaN, 0.0433376, "- N/A -   "
39.77, 1640.86, 0.06638381, NaN, NaN, NaN, 0.04211683, "- N/A -   "
39.79, 1641.7, 0.06641991, NaN, NaN, NaN, 0.04089605, "- N/A -   "
39.81, 1642.77, 0.0664532, NaN, NaN, NaN, 0.04211683, "- N/A -   "
39.83, 1643.6, 0.0664865, NaN, NaN, NaN, 0.04211683, "- N/A -   "
39.85, 1644.56, 0.0665199, NaN, NaN, NaN, 0.0433376, "- N/A -   "
39.87, 1645.51, 0.06655596, NaN, NaN, NaN, 0.04211683, "- N/A -   "
39.89, 1646.59, 0.06659206, NaN, NaN, NaN, 0.0396753, "- N/A -   "
39.91, 1647.54, 0.06662816, NaN, NaN, NaN, 0.0396753, "- N/A -   "
39.93, 1648.49, 0.0666615, NaN, NaN, NaN, 0.0396753, "- N/A -   "
39.95, 1649.45, 0.06669203, NaN, NaN, NaN, 0.0396753, "- N/A -   "
39.97, 1650.28, 0.06672535, NaN, NaN, NaN, 0.0396753, "- N/A -   "
39.99, 1651.12, 0.06676145, NaN, NaN, NaN, 0.0396753, "- N/A -   "
40.01, 1652.07, 0.06679199, NaN, NaN, NaN, 0.0396753, "- N/A -   "
40.03, 1653.03, 0.06682809, NaN, NaN, NaN, 0.0384545, "- N/A -   "
40.05, 1654.22, 0.066867, NaN, NaN, NaN, 0.0372337, "- N/A -   "
40.07, 1655.17, 0.06690028, NaN, NaN, NaN, 0.03601294, "- N/A -   "
40.09, 1656.13, 0.06693638, NaN, NaN, NaN, 0.03601294, "- N/A -   "
40.11, 1657.08, 0.06697526, NaN, NaN, NaN, 0.0335714, "- N/A -   "
40.13, 1658.03, 0.06700858, NaN, NaN, NaN, 0.0335714, "- N/A -   "
40.15, 1658.988, 0.06703912, NaN, NaN, NaN, 0.0335714, "- N/A -   "
40.17, 1659.82, 0.06707244, NaN, NaN, NaN, 0.0335714, "- N/A -   "
40.19, 1660.66, 0.06710576, NaN, NaN, NaN, 0.0347922, "- N/A -   "
40.21, 1661.49, 0.06713631, NaN, NaN, NaN, 0.0347922, "- N/A -   "
40.23, 1662.57, 0.06716963, NaN, NaN, NaN, 0.0347922, "- N/A -   "
40.25, 1663.4, 0.06720295, NaN, NaN, NaN, 0.0347922, "- N/A -   "
40.27, 1664.35, 0.067239, NaN, NaN, NaN, 0.0335714, "- N/A -   "
40.29, 1665.189, 0.06726959, NaN, NaN, NaN, 0.0347922, "- N/A -   "
40.31, 1666.26, 0.06730569, NaN, NaN, NaN, 0.0335714, "- N/A -   "
40.33, 1667.22, 0.06734179, NaN, NaN, NaN, 0.0335714, "- N/A -   "
40.35, 1667.93, 0.06737511, NaN, NaN, NaN, 0.0335714, "- N/A -   "
40.37, 1668.77, 0.06740565, NaN, NaN, NaN, 0.0347922, "- N/A -   "
40.39, 1669.6, 0.06743342, NaN, NaN, NaN, 0.03601294, "- N/A -   "
40.41, 1670.44, 0.067464, NaN, NaN, NaN, 0.0372337, "- N/A -   "
40.43, 1671.27, 0.0674945, NaN, NaN, NaN, 0.0384545, "- N/A -   "
40.45, 1672.22, 0.06752783, NaN, NaN, NaN, 0.0384545, "- N/A -   "
40.47, 1673.06, 0.06755837, NaN, NaN, NaN, 0.04089605, "- N/A -   "
40.49, 1673.78, 0.06758614, NaN, NaN, NaN, 0.04211683, "- N/A -   "
40.51, 1674.61, 0.06761391, NaN, NaN, NaN, 0.0445584, "- N/A -   "
40.53, 1675.44, 0.06764723, NaN, NaN, NaN, 0.0445584, "- N/A -   "
40.55, 1676.28, 0.06767777, NaN, NaN, NaN, 0.04577916, "- N/A -   "
40.57, 1677.23, 0.06771109, NaN, NaN, NaN, 0.04577916, "- N/A -   "
40.59, 1678.07, 0.06774441, NaN, NaN, NaN, 0.04577916, "- N/A -   "
40.61, 1679.14, 0.06778329, NaN, NaN, NaN, 0.0433376, "- N/A -   "
40.63, 1680.21, 0.06781939, NaN, NaN, NaN, 0.04211683, "- N/A -   "
40.65, 1681.288, 0.06786104, NaN, NaN, NaN, 0.0396753, "- N/A -   "
40.67, 1682.48, 0.06789991, NaN, NaN, NaN, 0.03601294, "- N/A -   "
40.69, 1683.43, 0.06793601, NaN, NaN, NaN, 0.0347922, "- N/A -   "
40.71, 1684.51, 0.06797211, NaN, NaN, NaN, 0.0347922, "- N/A -   "
40.73, 1685.46, 0.06800821, NaN, NaN, NaN, 0.0335714, "- N/A -   "
40.75, 1686.42, 0.0680443, NaN, NaN, NaN, 0.03112983, "- N/A -   "
40.77, 1687.49, 0.0680804, NaN, NaN, NaN, 0.03112983, "- N/A -   "
40.79, 1688.2, 0.06811095, NaN, NaN, NaN, 0.03112983, "- N/A -   "
40.81, 1689.16, 0.06814427, NaN, NaN, NaN, 0.03112983, "- N/A -   "
40.83, 1689.99, 0.06817759, NaN, NaN, NaN, 0.03112983, "- N/A -   "
40.85, 1690.95, 0.06821091, NaN, NaN, NaN, 0.03112983, "- N/A -   "
40.87, 1691.78, 0.06824423, NaN, NaN, NaN, 0.03112983, "- N/A -   "
40.89, 1692.97, 0.0682831, NaN, NaN, NaN, 0.0299091, "- N/A -   "
40.91, 1693.93, 0.0683192, NaN, NaN, NaN, 0.0274675, "- N/A -   "
40.93, 1694.76, 0.06835252, NaN, NaN, NaN, 0.0274675, "- N/A -   "
40.95, 1695.6, 0.06838307, NaN, NaN, NaN, 0.0286883, "- N/A -   "
40.97, 1696.43, 0.0684108, NaN, NaN, NaN, 0.03112983, "- N/A -   "
40.99, 1697.15, 0.0684414, NaN, NaN, NaN, 0.0323506, "- N/A -   "
41.01, 1698.1, 0.06847192, NaN, NaN, NaN, 0.0335714, "- N/A -   "
41.03, 1698.82, 0.06850247, NaN, NaN, NaN, 0.0347922, "- N/A -   "
41.05, 1699.53, 0.06853024, NaN, NaN, NaN, 0.0372337, "- N/A -   "
41.07, 1700.13, 0.06855523, NaN, NaN, NaN, 0.04089605, "- N/A -   "
41.09, 1700.96, 0.068583, NaN, NaN, NaN, 0.0433376, "- N/A -   "
41.11, 1701.68, 0.06861354, NaN, NaN, NaN, 0.0445584, "- N/A -   "
41.13, 1702.51, 0.0686441, NaN, NaN, NaN, 0.04577916, "- N/A -   "
41.15, 1703.35, 0.0686746, NaN, NaN, NaN, 0.04699994, "- N/A -   "
41.17, 1704.3, 0.06870517, NaN, NaN, NaN, 0.0482207, "- N/A -   "
41.19, 1705.14, 0.06873849, NaN, NaN, NaN, 0.0482207, "- N/A -   "
41.21, 1706.09, 0.06877459, NaN, NaN, NaN, 0.04699994, "- N/A -   "
41.23, 1707.17, 0.0688135, NaN, NaN, NaN, 0.0445584, "- N/A -   "
41.25, 1708.12, 0.06885234, NaN, NaN, NaN, 0.04211683, "- N/A -   "
41.27, 1709.31, 0.06888844, NaN, NaN, NaN, 0.04089605, "- N/A -   "
41.29, 1710.27, 0.06892731, NaN, NaN, NaN, 0.0396753, "- N/A -   "
41.31, 1711.22, 0.06896341, NaN, NaN, NaN, 0.0384545, "- N/A -   "
41.33, 1712.17, 0.0689967, NaN, NaN, NaN, 0.0372337, "- N/A -   "
41.35, 1713.13, 0.0690328, NaN, NaN, NaN, 0.03601294, "- N/A -   "
41.37, 1714.08, 0.06906615, NaN, NaN, NaN, 0.03601294, "- N/A -   "
41.39, 1714.8, 0.06909669, NaN, NaN, NaN, 0.0372337, "- N/A -   "
41.41, 1715.752, 0.06913001, NaN, NaN, NaN, 0.0372337, "- N/A -   "
41.43, 1716.71, 0.06916611, NaN, NaN, NaN, 0.03601294, "- N/A -   "
41.45, 1717.78, 0.069205, NaN, NaN, NaN, 0.0335714, "- N/A -   "
41.47, 1718.85, 0.06924386, NaN, NaN, NaN, 0.0323506, "- N/A -   "
41.49, 1719.93, 0.06927996, NaN, NaN, NaN, 0.0299091, "- N/A -   "
41.51, 1720.88, 0.06931606, NaN, NaN, NaN, 0.0286883, "- N/A -   "
41.53, 1721.71, 0.06934938, NaN, NaN, NaN, 0.0286883, "- N/A -   "
41.55, 1722.67, 0.06938548, NaN, NaN, NaN, 0.0286883, "- N/A -   "
41.57, 1723.5, 0.06941602, NaN, NaN, NaN, 0.0286883, "- N/A -   "
41.59, 1724.338, 0.06944934, NaN, NaN, NaN, 0.0299091, "- N/A -   "
41.61, 1725.17, 0.06947711, NaN, NaN, NaN, 0.03112983, "- N/A -   "
41.63, 1725.89, 0.06950765, NaN, NaN, NaN, 0.0323506, "- N/A -   "
41.65, 1726.84, 0.0695382, NaN, NaN, NaN, 0.0335714, "- N/A -   "
41.67, 1727.56, 0.0695687, NaN, NaN, NaN, 0.03601294, "- N/A -   "
41.69, 1728.39, 0.06959651, NaN, NaN, NaN, 0.0372337, "- N/A -   "
41.71, 1729.108, 0.0696243, NaN, NaN, NaN, 0.0396753, "- N/A -   "
41.73, 1729.7, 0.06965482, NaN, NaN, NaN, 0.04089605, "- N/A -   "
41.75, 1730.54, 0.06968536, NaN, NaN, NaN, 0.04211683, "- N/A -   "
41.77, 1731.37, 0.06971591, NaN, NaN, NaN, 0.0433376, "- N/A -   "
41.79, 1732.45, 0.0697492, NaN, NaN, NaN, 0.0433376, "- N/A -   "
41.81, 1733.16, 0.0697853, NaN, NaN, NaN, 0.04211683, "- N/A -   "
41.83, 1734.12, 0.06981865, NaN, NaN, NaN, 0.04211683, "- N/A -   "
41.85, 1735.07, 0.06985197, NaN, NaN, NaN, 0.04211683, "- N/A -   "
41.87, 1735.91, 0.06988529, NaN, NaN, NaN, 0.0433376, "- N/A -   "
41.89, 1736.86, 0.06991861, NaN, NaN, NaN, 0.0433376, "- N/A -   "
41.91, 1737.81, 0.06995193, NaN, NaN, NaN, 0.04211683, "- N/A -   "
41.93, 1738.77, 0.06999081, NaN, NaN, NaN, 0.04089605, "- N/A -   "
41.95, 1739.72, 0.0700241, NaN, NaN, NaN, 0.04089605, "- N/A -   "
41.97, 1740.68, 0.07005745, NaN, NaN, NaN, 0.0396753, "- N/A -   "
41.978, 1740.914, 0.07007133, NaN, NaN, NaN, 0.0396753, "- N/A -   "