File: 2_Tensile_Data/Hamel_ForceTest_Bolt9_Test5.csv
Time, Load (lb), Position (in), AxialStrain (in), TransverseStrain (in), Auxiliary (), Control Out (V), Stress (psi)
0.0, 1.53332, 0.0, NaN, NaN, NaN, 0.100714, "- N/A -   "
0.01, 2.005107, 2.2214e-05, NaN, NaN, NaN, 0.1092596, "- N/A -   "
0.02, 2.59484, 5.27583e-05, NaN, NaN, NaN, 0.112922, "- N/A -   "
0.03, 3.18458, 8.33026e-05, NaN, NaN, NaN, 0.106818, "- N/A -   "
0.04, 3.774319, 0.000113847, NaN, NaN, NaN, 0.100714, "- N/A -   "
0.05, 4.36406, 0.000144391, NaN, NaN, NaN, 0.09461027, "- N/A -   "
0.06, 4.83585, 0.000172159, NaN, NaN, NaN, 0.0897272, "- N/A -   "
0.07, 5.425584, 0.000199926, NaN, NaN, NaN, 0.084844, "- N/A -   "
0.08, 5.897373, 0.000227694, NaN, NaN, NaN, 0.0799609, "- N/A -   "
0.09, 6.487111, 0.000255461, NaN, NaN, NaN, 0.0762986, "- N/A -   "
0.1, 6.9589, 0.000280452, NaN, NaN, NaN, 0.07141549, "- N/A -   "
0.11, 7.430691, 0.000308219, NaN, NaN, NaN, 0.06653238, "- N/A -   "
0.12, 8.020428, 0.000335987, NaN, NaN, NaN, 0.06287005, "- N/A -   "
0.13, 8.492218, 0.000358201, NaN, NaN, NaN, 0.0592077, "- N/A -   "
0.14, 8.964007, 0.000383192, NaN, NaN, NaN, 0.0555454, "- N/A -   "
0.15, 9.31785, 4.081825E-4, NaN, NaN, NaN, 0.0531038, "- N/A -   "
0.16, 9.78964, 4.276198E-4, NaN, NaN, NaN, 0.05066227, "- N/A -   "
0.17, 10.26143, 0.000449834, NaN, NaN, NaN, 0.0482207, "- N/A -   "
0.18, 10.6153, 4.720478E-4, NaN, NaN, NaN, 0.04577916, "- N/A -   "
0.19, 10.8512, 0.000491485, NaN, NaN, NaN, 0.0445584, "- N/A -   "
0.2, 11.4409, 0.000510922, NaN, NaN, NaN, 0.0433376, "- N/A -   "
0.21, 11.6768, 0.00053036, NaN, NaN, NaN, 0.0433376, "- N/A -   "
0.22, 12.0306, 5.470201E-4, NaN, NaN, NaN, 0.04211683, "- N/A -   "
0.23, 12.2665, 5.664574E-4, NaN, NaN, NaN, 0.04089605, "- N/A -   "
0.24, 12.7383, 5.858946E-4, NaN, NaN, NaN, 0.0396753, "- N/A -   "
0.25, 13.09217, 6.053319E-4, NaN, NaN, NaN, 0.0384545, "- N/A -   "
0.26, 13.446, 0.000624769, NaN, NaN, NaN, 0.0372337, "- N/A -   "
0.27, 13.7999, 6.442064E-4, NaN, NaN, NaN, 0.03601294, "- N/A -   "
0.28, 14.1537, 6.636437E-4, NaN, NaN, NaN, 0.0347922, "- N/A -   "
0.29, 14.3896, 6.830809E-4, NaN, NaN, NaN, 0.0347922, "- N/A -   "
0.3, 14.7434, 6.997415E-4, NaN, NaN, NaN, 0.0335714, "- N/A -   "
0.31, 15.0973, 0.000716402, NaN, NaN, NaN, 0.0335714, "- N/A -   "
0.32, 15.4511, 0.000733062, NaN, NaN, NaN, 0.0335714, "- N/A -   "
0.33, 15.805, 0.0007525, NaN, NaN, NaN, 0.0335714, "- N/A -   "
0.34, 16.0409, 7.691603E-4, NaN, NaN, NaN, 0.0323506, "- N/A -   "
0.35, 16.3947, 0.000785821, NaN, NaN, NaN, 0.0335714, "- N/A -   "
0.36, 16.6306, 0.000802481, NaN, NaN, NaN, 0.0335714, "- N/A -   "
0.37, 16.86649, 8.16365E-4, NaN, NaN, NaN, 0.0335714, "- N/A -   "
0.38, 17.1024, 8.358023E-4, NaN, NaN, NaN, 0.0335714, "- N/A -   "
0.39, 17.4562, 8.524628E-4, NaN, NaN, NaN, 0.0323506, "- N/A -   "
0.4, 17.8101, 8.691233E-4, NaN, NaN, NaN, 0.0335714, "- N/A -   "
0.41, 18.046, 8.830071E-4, NaN, NaN, NaN, 0.0335714, "- N/A -   "
0.42, 18.2819, 8.968908E-4, NaN, NaN, NaN, 0.0347922, "- N/A -   "
0.43, 18.5178, 0.000913551, NaN, NaN, NaN, 0.03601294, "- N/A -   "
0.44, 18.7536, 9.274351E-4, NaN, NaN, NaN, 0.03601294, "- N/A -   "
0.45, 18.9895, 0.000941319, NaN, NaN, NaN, 0.0384545, "- N/A -   "
0.46, 19.2254, 9.524259E-4, NaN, NaN, NaN, 0.0396753, "- N/A -   "
0.47, 19.4613, 9.663096E-4, NaN, NaN, NaN, 0.04089605, "- N/A -   "
0.48, 19.6972, 9.801934E-4, NaN, NaN, NaN, 0.04211683, "- N/A -   "
0.49, 19.9331, 9.940772E-4, NaN, NaN, NaN, 0.0433376, "- N/A -   "
0.5, 20.169, 0.00101074, NaN, NaN, NaN, 0.0433376, "- N/A -   "
0.51, 20.4049, 0.0010274, NaN, NaN, NaN, 0.0445584, "- N/A -   "
0.52, 20.6408, 0.00103851, NaN, NaN, NaN, 0.04577916, "- N/A -   "
0.53, 20.8767, 0.00105517, NaN, NaN, NaN, 0.04577916, "- N/A -   "
0.54, 21.1126, 0.00107183, NaN, NaN, NaN, 0.04699994, "- N/A -   "
0.55, 21.3485, 0.00108849, NaN, NaN, NaN, 0.04699994, "- N/A -   "
0.56, 21.7023, 0.00110515, NaN, NaN, NaN, 0.04699994, "- N/A -   "
0.57, 21.93823, 0.00112181, NaN, NaN, NaN, 0.04699994, "- N/A -   "
0.58, 22.29207, 0.00113847, NaN, NaN, NaN, 0.04699994, "- N/A -   "
0.59, 22.528, 0.00115513, NaN, NaN, NaN, 0.04699994, "- N/A -   "
0.6, 22.88181, 0.00117179, NaN, NaN, NaN, 0.04577916, "- N/A -   "
0.61, 23.1177, 0.00118845, NaN, NaN, NaN, 0.04577916, "- N/A -   "
0.62, 23.3536, 0.00120789, NaN, NaN, NaN, 0.0445584, "- N/A -   "
0.63, 23.82539, 0.00122732, NaN, NaN, NaN, 0.0445584, "- N/A -   "
0.64, 24.0613, 0.00124676, NaN, NaN, NaN, 0.0433376, "- N/A -   "
0.65, 24.29718, 0.0012662, NaN, NaN, NaN, 0.04089605, "- N/A -   "
0.66, 24.769, 0.00128564, NaN, NaN, NaN, 0.0396753, "- N/A -   "
0.67, 25.1228, 0.00130785, NaN, NaN, NaN, 0.0384545, "- N/A -   "
0.68, 25.3587, 0.00132729, NaN, NaN, NaN, 0.0372337, "- N/A -   "
0.69, 25.7125, 0.00134117, NaN, NaN, NaN, 0.0372337, "- N/A -   "
0.7, 25.8305, 0.00135783, NaN, NaN, NaN, 0.0372337, "- N/A -   "
0.71, 26.18434, 0.00137727, NaN, NaN, NaN, 0.03601294, "- N/A -   "
0.72, 26.5382, 0.00139671, NaN, NaN, NaN, 0.03601294, "- N/A -   "
0.73, 26.7741, 0.00141337, NaN, NaN, NaN, 0.0347922, "- N/A -   "
0.74, 27.1279, 0.0014328, NaN, NaN, NaN, 0.0335714, "- N/A -   "
0.75, 27.3638, 0.00144946, NaN, NaN, NaN, 0.0335714, "- N/A -   "
0.76, 27.7177, 0.0014689, NaN, NaN, NaN, 0.0335714, "- N/A -   "
0.77, 27.8356, 0.00148556, NaN, NaN, NaN, 0.0323506, "- N/A -   "
0.78, 28.1894, 0.001499446, NaN, NaN, NaN, 0.0335714, "- N/A -   "
0.79, 28.42534, 0.00151888, NaN, NaN, NaN, 0.0335714, "- N/A -   "
0.8, 28.6612, 0.00153554, NaN, NaN, NaN, 0.0323506, "- N/A -   "
0.81, 29.0151, 0.0015522, NaN, NaN, NaN, 0.0323506, "- N/A -   "
0.82, 29.251, 0.00156886, NaN, NaN, NaN, 0.0323506, "- N/A -   "
0.83, 29.6048, 0.0015883, NaN, NaN, NaN, 0.03112983, "- N/A -   "
0.84, 29.9587, 0.00161052, NaN, NaN, NaN, 0.0299091, "- N/A -   "
0.85, 30.0766, 0.00162718, NaN, NaN, NaN, 0.0286883, "- N/A -   "
0.86, 30.5484, 0.00164384, NaN, NaN, NaN, 0.0286883, "- N/A -   "
0.87, 30.78429, 0.00166327, NaN, NaN, NaN, 0.0286883, "- N/A -   "
0.88, 31.1381, 0.00167993, NaN, NaN, NaN, 0.0274675, "- N/A -   "
0.89, 31.2561, 0.0016966, NaN, NaN, NaN, 0.0274675, "- N/A -   "
0.9, 31.6099, 0.00171326, NaN, NaN, NaN, 0.0274675, "- N/A -   "
0.91, 31.8458, 0.00172992, NaN, NaN, NaN, 0.0274675, "- N/A -   "
0.92, 32.1997, 0.00174658, NaN, NaN, NaN, 0.0286883, "- N/A -   "
0.93, 32.3176, 0.00176046, NaN, NaN, NaN, 0.0286883, "- N/A -   "
0.94, 32.67145, 0.00177712, NaN, NaN, NaN, 0.0299091, "- N/A -   "
0.95, 32.7894, 0.001791, NaN, NaN, NaN, 0.0299091, "- N/A -   "
0.96, 33.02529, 0.00180767, NaN, NaN, NaN, 0.0299091, "- N/A -   "
0.97, 33.2612, 0.00182155, NaN, NaN, NaN, 0.03112983, "- N/A -   "
0.98, 33.49708, 0.00183821, NaN, NaN, NaN, 0.03112983, "- N/A -   "
0.99, 33.73298, 0.00185209, NaN, NaN, NaN, 0.0323506, "- N/A -   "
1.0, 33.9689, 0.00186598, NaN, NaN, NaN, 0.0335714, "- N/A -   "
1.01, 34.2048, 0.001879861, NaN, NaN, NaN, 0.0347922, "- N/A -   "
1.02, 34.4407, 0.0018993, NaN, NaN, NaN, 0.0347922, "- N/A -   "
1.03, 34.7945, 0.001913182, NaN, NaN, NaN, 0.0347922, "- N/A -   "
1.04, 35.0304, 0.00192984, NaN, NaN, NaN, 0.0347922, "- N/A -   "
1.05, 35.1483, 0.0019465, NaN, NaN, NaN, 0.03601294, "- N/A -   "
1.06, 35.50219, 0.00196039, NaN, NaN, NaN, 0.03601294, "- N/A -   "
1.07, 35.7381, 0.00197705, NaN, NaN, NaN, 0.0372337, "- N/A -   "
1.08, 35.97398, 0.001990931, NaN, NaN, NaN, 0.0372337, "- N/A -   "
1.09, 36.2099, 0.00200481, NaN, NaN, NaN, 0.0384545, "- N/A -   "
1.1, 36.32782, 0.0020187, NaN, NaN, NaN, 0.0396753, "- N/A -   "
1.11, 36.5637, 0.00203536, NaN, NaN, NaN, 0.0396753, "- N/A -   "
1.12, 36.79961, 0.00204924, NaN, NaN, NaN, 0.04089605, "- N/A -   "
1.13, 37.0355, 0.00206313, NaN, NaN, NaN, 0.04211683, "- N/A -   "
1.14, 37.15345, 0.00207701, NaN, NaN, NaN, 0.0433376, "- N/A -   "
1.15, 37.5073, 0.00209089, NaN, NaN, NaN, 0.0445584, "- N/A -   "
1.16, 37.74319, 0.00210755, NaN, NaN, NaN, 0.0445584, "- N/A -   "
1.17, 38.097, 0.00212422, NaN, NaN, NaN, 0.0445584, "- N/A -   "
1.18, 38.215, 0.002138099, NaN, NaN, NaN, 0.04577916, "- N/A -   "
1.19, 38.5688, 0.00215476, NaN, NaN, NaN, 0.04577916, "- N/A -   "
1.2, 38.68677, 0.00217142, NaN, NaN, NaN, 0.04577916, "- N/A -   "
1.21, 39.04061, 0.00219086, NaN, NaN, NaN, 0.04577916, "- N/A -   "
1.22, 39.2765, 0.002204741, NaN, NaN, NaN, 0.04577916, "- N/A -   "
1.23, 39.5124, 0.0022214, NaN, NaN, NaN, 0.04577916, "- N/A -   "
1.24, 39.8662, 0.002238062, NaN, NaN, NaN, 0.04577916, "- N/A -   "
1.25, 39.98419, 0.00225472, NaN, NaN, NaN, 0.04577916, "- N/A -   "
1.26, 40.456, 0.002271383, NaN, NaN, NaN, 0.04577916, "- N/A -   "
1.27, 40.57393, 0.00228527, NaN, NaN, NaN, 0.04699994, "- N/A -   "
1.28, 40.8098, 0.002304704, NaN, NaN, NaN, 0.04577916, "- N/A -   "
1.29, 41.16367, 0.00232136, NaN, NaN, NaN, 0.04577916, "- N/A -   "
1.3, 41.51751, 0.002340802, NaN, NaN, NaN, 0.04577916, "- N/A -   "
1.31, 41.7534, 0.00235746, NaN, NaN, NaN, 0.0445584, "- N/A -   "
1.32, 41.9893, 0.0023769, NaN, NaN, NaN, 0.0433376, "- N/A -   "
1.33, 42.3431, 0.002396337, NaN, NaN, NaN, 0.0433376, "- N/A -   "
1.34, 42.697, 0.002413, NaN, NaN, NaN, 0.0433376, "- N/A -   "
1.35, 42.8149, 0.002429658, NaN, NaN, NaN, 0.04211683, "- N/A -   "
1.36, 43.1688, 0.002449095, NaN, NaN, NaN, 0.04089605, "- N/A -   "
1.37, 43.40467, 0.00246853, NaN, NaN, NaN, 0.04089605, "- N/A -   "
1.38, 43.87646, 0.002485193, NaN, NaN, NaN, 0.0396753, "- N/A -   "
1.39, 44.1124, 0.002507407, NaN, NaN, NaN, 0.0384545, "- N/A -   "
1.4, 44.4662, 0.00252684, NaN, NaN, NaN, 0.0372337, "- N/A -   "
1.41, 44.82, 0.00254628, NaN, NaN, NaN, 0.03601294, "- N/A -   "
1.42, 45.17388, 0.00256572, NaN, NaN, NaN, 0.0335714, "- N/A -   "
1.43, 45.5277, 0.00258516, NaN, NaN, NaN, 0.0323506, "- N/A -   "
1.44, 45.8816, 0.00260459, NaN, NaN, NaN, 0.03112983, "- N/A -   "
1.45, 46.11746, 0.00262681, NaN, NaN, NaN, 0.0299091, "- N/A -   "
1.46, 46.4713, 0.00264347, NaN, NaN, NaN, 0.0286883, "- N/A -   "
1.47, 46.7072, 0.00266013, NaN, NaN, NaN, 0.0286883, "- N/A -   "
1.48, 47.061, 0.00267679, NaN, NaN, NaN, 0.0286883, "- N/A -   "
1.49, 47.179, 0.00269345, NaN, NaN, NaN, 0.0286883, "- N/A -   "
1.5, 47.4149, 0.00271011, NaN, NaN, NaN, 0.0286883, "- N/A -   "
1.51, 47.65078, 0.00272677, NaN, NaN, NaN, 0.0286883, "- N/A -   "
1.52, 48.00462, 0.002743431, NaN, NaN, NaN, 0.0286883, "- N/A -   "
1.53, 48.2405, 0.00276009, NaN, NaN, NaN, 0.0286883, "- N/A -   "
1.54, 48.47641, 0.00277675, NaN, NaN, NaN, 0.0286883, "- N/A -   "
1.55, 48.83025, 0.00279341, NaN, NaN, NaN, 0.0286883, "- N/A -   "
1.56, 49.0661, 0.00281007, NaN, NaN, NaN, 0.0299091, "- N/A -   "
1.57, 49.30204, 0.00282396, NaN, NaN, NaN, 0.0299091, "- N/A -   "
1.58, 49.6559, 0.00284062, NaN, NaN, NaN, 0.0299091, "- N/A -   "
1.59, 49.8918, 0.00285728, NaN, NaN, NaN, 0.03112983, "- N/A -   "
1.6, 50.1277, 0.00287116, NaN, NaN, NaN, 0.03112983, "- N/A -   "
1.61, 50.3636, 0.002887822, NaN, NaN, NaN, 0.0323506, "- N/A -   "
1.62, 50.5995, 0.00290448, NaN, NaN, NaN, 0.0323506, "- N/A -   "
1.63, 50.83536, 0.00292114, NaN, NaN, NaN, 0.0323506, "- N/A -   "
1.64, 51.0713, 0.00293503, NaN, NaN, NaN, 0.0323506, "- N/A -   "
1.65, 51.4251, 0.00294891, NaN, NaN, NaN, 0.0335714, "- N/A -   "
1.66, 51.66099, 0.00296279, NaN, NaN, NaN, 0.0347922, "- N/A -   "
1.67, 51.7789, 0.00297945, NaN, NaN, NaN, 0.0347922, "- N/A -   "
1.68, 52.1328, 0.00299612, NaN, NaN, NaN, 0.03601294, "- N/A -   "
1.69, 52.36868, 0.003009999, NaN, NaN, NaN, 0.03601294, "- N/A -   "
1.7, 52.6046, 0.00302388, NaN, NaN, NaN, 0.0372337, "- N/A -   "
1.71, 52.84047, 0.00304054, NaN, NaN, NaN, 0.0384545, "- N/A -   "
1.72, 53.0764, 0.003057204, NaN, NaN, NaN, 0.0384545, "- N/A -   "
1.73, 53.4302, 0.00307386, NaN, NaN, NaN, 0.0384545, "- N/A -   "
1.74, 53.6661, 0.00309052, NaN, NaN, NaN, 0.0372337, "- N/A -   "
1.75, 54.0199, 0.00310719, NaN, NaN, NaN, 0.0372337, "- N/A -   "
1.76, 54.2558, 0.003123846, NaN, NaN, NaN, 0.0372337, "- N/A -   "
1.77, 54.4917, 0.00314051, NaN, NaN, NaN, 0.0372337, "- N/A -   "
1.78, 54.8456, 0.003157167, NaN, NaN, NaN, 0.0372337, "- N/A -   "
1.79, 55.0815, 0.00317383, NaN, NaN, NaN, 0.0372337, "- N/A -   "
1.8, 55.3174, 0.003190488, NaN, NaN, NaN, 0.0372337, "- N/A -   "
1.81, 55.6712, 0.00320715, NaN, NaN, NaN, 0.0372337, "- N/A -   "
1.82, 55.9071, 0.00322103, NaN, NaN, NaN, 0.0384545, "- N/A -   "
1.83, 56.143, 0.00323769, NaN, NaN, NaN, 0.0396753, "- N/A -   "
1.84, 56.37889, 0.00325158, NaN, NaN, NaN, 0.0396753, "- N/A -   "
1.85, 56.6148, 0.00326546, NaN, NaN, NaN, 0.04089605, "- N/A -   "
1.86, 56.85068, 0.00328212, NaN, NaN, NaN, 0.04089605, "- N/A -   "
1.87, 57.20452, 0.003298781, NaN, NaN, NaN, 0.04089605, "- N/A -   "
1.88, 57.44042, 0.003312665, NaN, NaN, NaN, 0.04211683, "- N/A -   "
1.89, 57.6763, 0.00332655, NaN, NaN, NaN, 0.0433376, "- N/A -   "
1.9, 57.91221, 0.00334321, NaN, NaN, NaN, 0.0433376, "- N/A -   "
1.91, 58.1481, 0.00335987, NaN, NaN, NaN, 0.0433376, "- N/A -   "
1.92, 58.384, 0.00337375, NaN, NaN, NaN, 0.0445584, "- N/A -   "
1.93, 58.7378, 0.00339041, NaN, NaN, NaN, 0.0445584, "- N/A -   "
1.94, 58.9737, 0.0034043, NaN, NaN, NaN, 0.04577916, "- N/A -   "
1.95, 59.2096, 0.003423735, NaN, NaN, NaN, 0.0445584, "- N/A -   "
1.96, 59.5635, 0.0034404, NaN, NaN, NaN, 0.0445584, "- N/A -   "
1.97, 59.9173, 0.00345983, NaN, NaN, NaN, 0.0433376, "- N/A -   "
1.98, 60.27116, 0.00348205, NaN, NaN, NaN, 0.04211683, "- N/A -   "
1.99, 60.625, 0.00350148, NaN, NaN, NaN, 0.04089605, "- N/A -   "
2.0, 60.97884, 0.00352092, NaN, NaN, NaN, 0.0396753, "- N/A -   "
2.01, 61.3327, 0.00353758, NaN, NaN, NaN, 0.0384545, "- N/A -   "
2.02, 61.56858, 0.00355702, NaN, NaN, NaN, 0.0372337, "- N/A -   "
2.03, 61.9224, 0.00357646, NaN, NaN, NaN, 0.03601294, "- N/A -   "
2.04, 62.2763, 0.00359312, NaN, NaN, NaN, 0.03601294, "- N/A -   "
2.05, 62.5122, 0.00361255, NaN, NaN, NaN, 0.03601294, "- N/A -   "
2.06, 62.98395, 0.00362921, NaN, NaN, NaN, 0.0347922, "- N/A -   "
2.07, 63.1019, 0.00364865, NaN, NaN, NaN, 0.0335714, "- N/A -   "
2.08, 63.45574, 0.00366809, NaN, NaN, NaN, 0.0323506, "- N/A -   "
2.09, 63.92753, 0.00368753, NaN, NaN, NaN, 0.03112983, "- N/A -   "
2.1, 64.16342, 0.00370696, NaN, NaN, NaN, 0.03112983, "- N/A -   "
2.11, 64.5173, 0.00372362, NaN, NaN, NaN, 0.03112983, "- N/A -   "
2.12, 64.75317, 0.00374028, NaN, NaN, NaN, 0.0299091, "- N/A -   "
2.13, 65.107, 0.00375695, NaN, NaN, NaN, 0.0299091, "- N/A -   "
2.14, 65.22495, 0.003773606, NaN, NaN, NaN, 0.0299091, "- N/A -   "
2.15, 65.4608, 0.00378749, NaN, NaN, NaN, 0.03112983, "- N/A -   "
2.16, 65.81469, 0.00380415, NaN, NaN, NaN, 0.03112983, "- N/A -   "
2.17, 66.05058, 0.003818034, NaN, NaN, NaN, 0.0323506, "- N/A -   "
2.18, 66.2865, 0.00383469, NaN, NaN, NaN, 0.0335714, "- N/A -   "
2.19, 66.64032, 0.003848578, NaN, NaN, NaN, 0.0335714, "- N/A -   "
2.2, 66.75827, 0.00386524, NaN, NaN, NaN, 0.0335714, "- N/A -   "
2.21, 67.23006, 0.003881899, NaN, NaN, NaN, 0.0335714, "- N/A -   "
2.22, 67.46596, 0.00389856, NaN, NaN, NaN, 0.0347922, "- N/A -   "
2.23, 67.70185, 0.00391244, NaN, NaN, NaN, 0.0347922, "- N/A -   "
2.24, 68.05569, 0.003926327, NaN, NaN, NaN, 0.03601294, "- N/A -   "
2.25, 68.17364, 0.00394299, NaN, NaN, NaN, 0.03601294, "- N/A -   "
2.26, 68.52748, 0.00395687, NaN, NaN, NaN, 0.0372337, "- N/A -   "
2.27, 68.7634, 0.003973532, NaN, NaN, NaN, 0.0372337, "- N/A -   "
2.28, 68.9993, 0.00399019, NaN, NaN, NaN, 0.0372337, "- N/A -   "
2.29, 69.47106, 0.00400963, NaN, NaN, NaN, 0.03601294, "- N/A -   "
2.3, 69.8249, 0.00402907, NaN, NaN, NaN, 0.0347922, "- N/A -   "
2.31, 70.29669, 0.004051281, NaN, NaN, NaN, 0.0335714, "- N/A -   "
2.32, 70.41464, 0.00406794, NaN, NaN, NaN, 0.0323506, "- N/A -   "
2.33, 70.7685, 0.00408738, NaN, NaN, NaN, 0.0323506, "- N/A -   "
2.34, 71.12233, 0.004104039, NaN, NaN, NaN, 0.03112983, "- N/A -   "
2.35, 71.3582, 0.0041207, NaN, NaN, NaN, 0.0323506, "- N/A -   "
2.36, 71.71206, 0.00413736, NaN, NaN, NaN, 0.0323506, "- N/A -   "
2.37, 71.94796, 0.004151244, NaN, NaN, NaN, 0.0323506, "- N/A -   "
2.38, 72.3018, 0.0041679, NaN, NaN, NaN, 0.0323506, "- N/A -   "
2.39, 72.5377, 0.004184565, NaN, NaN, NaN, 0.0335714, "- N/A -   "
2.4, 72.65564, 0.00419845, NaN, NaN, NaN, 0.0347922, "- N/A -   "
2.41, 73.00948, 0.00421233, NaN, NaN, NaN, 0.0347922, "- N/A -   "
2.42, 73.36333, 0.004226216, NaN, NaN, NaN, 0.03601294, "- N/A -   "
2.43, 73.59922, 0.00424288, NaN, NaN, NaN, 0.03601294, "- N/A -   "
2.44, 73.71717, 0.00425954, NaN, NaN, NaN, 0.0372337, "- N/A -   "
2.45, 74.071, 0.004273421, NaN, NaN, NaN, 0.0372337, "- N/A -   "
2.46, 74.3069, 0.00429008, NaN, NaN, NaN, 0.0372337, "- N/A -   "
2.47, 74.66075, 0.004306742, NaN, NaN, NaN, 0.0384545, "- N/A -   "
2.48, 74.8966, 0.00432063, NaN, NaN, NaN, 0.0384545, "- N/A -   "
2.49, 75.13254, 0.00433451, NaN, NaN, NaN, 0.0396753, "- N/A -   "
2.5, 75.36844, 0.00435117, NaN, NaN, NaN, 0.04089605, "- N/A -   "
2.51, 75.7223, 0.004365054, NaN, NaN, NaN, 0.04089605, "- N/A -   "
2.52, 76.07612, 0.00438171, NaN, NaN, NaN, 0.04089605, "- N/A -   "
2.53, 76.31202, 0.004398375, NaN, NaN, NaN, 0.04089605, "- N/A -   "
2.54, 76.5479, 0.00441504, NaN, NaN, NaN, 0.04211683, "- N/A -   "
2.55, 76.90175, 0.0044317, NaN, NaN, NaN, 0.04089605, "- N/A -   "
2.56, 77.13765, 0.00444836, NaN, NaN, NaN, 0.04089605, "- N/A -   "
2.57, 77.37354, 0.00446779, NaN, NaN, NaN, 0.04089605, "- N/A -   "
2.58, 77.72738, 0.004484454, NaN, NaN, NaN, 0.0396753, "- N/A -   "
2.59, 78.08122, 0.00450111, NaN, NaN, NaN, 0.0396753, "- N/A -   "
2.6, 78.4351, 0.004520552, NaN, NaN, NaN, 0.0396753, "- N/A -   "
2.61, 78.67096, 0.00453721, NaN, NaN, NaN, 0.0396753, "- N/A -   "
2.62, 78.90686, 0.004553873, NaN, NaN, NaN, 0.0396753, "- N/A -   "
2.63, 79.2607, 0.00457053, NaN, NaN, NaN, 0.0396753, "- N/A -   "
2.64, 79.61454, 0.004587194, NaN, NaN, NaN, 0.0396753, "- N/A -   "
2.65, 79.85043, 0.004601078, NaN, NaN, NaN, 0.0396753, "- N/A -   "
2.66, 80.20428, 0.004620515, NaN, NaN, NaN, 0.0396753, "- N/A -   "
2.67, 80.44018, 0.00463718, NaN, NaN, NaN, 0.0384545, "- N/A -   "
2.68, 80.67606, 0.004653836, NaN, NaN, NaN, 0.0384545, "- N/A -   "
2.69, 81.0299, 0.0046705, NaN, NaN, NaN, 0.0384545, "- N/A -   "
2.7, 81.38376, 0.004687157, NaN, NaN, NaN, 0.0384545, "- N/A -   "
2.71, 81.7376, 0.00470382, NaN, NaN, NaN, 0.0384545, "- N/A -   "
2.72, 81.97349, 0.004720478, NaN, NaN, NaN, 0.0384545, "- N/A -   "
2.73, 82.20939, 0.00473714, NaN, NaN, NaN, 0.0384545, "- N/A -   "
2.74, 82.68118, 0.004756576, NaN, NaN, NaN, 0.0372337, "- N/A -   "
2.75, 82.91707, 0.00477324, NaN, NaN, NaN, 0.0372337, "- N/A -   "
2.76, 83.27091, 0.0047899, NaN, NaN, NaN, 0.0372337, "- N/A -   "
2.77, 83.6248, 0.004806557, NaN, NaN, NaN, 0.0372337, "- N/A -   "
2.78, 83.86065, 0.004825995, NaN, NaN, NaN, 0.0372337, "- N/A -   "
2.79, 84.09654, 0.00484266, NaN, NaN, NaN, 0.0372337, "- N/A -   "
2.8, 84.45039, 0.004856539, NaN, NaN, NaN, 0.0372337, "- N/A -   "
2.81, 84.68629, 0.0048732, NaN, NaN, NaN, 0.0372337, "- N/A -   "
2.82, 85.04012, 0.00488986, NaN, NaN, NaN, 0.0372337, "- N/A -   "
2.83, 85.39397, 0.00490652, NaN, NaN, NaN, 0.0372337, "- N/A -   "
2.84, 85.62987, 0.004925958, NaN, NaN, NaN, 0.03601294, "- N/A -   "
2.85, 85.9837, 0.00494262, NaN, NaN, NaN, 0.03601294, "- N/A -   "
2.86, 86.33755, 0.00496206, NaN, NaN, NaN, 0.03601294, "- N/A -   "
2.87, 86.69139, 0.004978716, NaN, NaN, NaN, 0.0347922, "- N/A -   "
2.88, 87.04523, 0.004998153, NaN, NaN, NaN, 0.0335714, "- N/A -   "
2.89, 87.39908, 0.005014814, NaN, NaN, NaN, 0.0335714, "- N/A -   "
2.9, 87.75292, 0.005034251, NaN, NaN, NaN, 0.0323506, "- N/A -   "
2.91, 87.9888, 0.00505369, NaN, NaN, NaN, 0.03112983, "- N/A -   "
2.92, 88.34265, 0.005070349, NaN, NaN, NaN, 0.03112983, "- N/A -   "
2.93, 88.57855, 0.005087009, NaN, NaN, NaN, 0.03112983, "- N/A -   "
2.94, 88.9324, 0.00510367, NaN, NaN, NaN, 0.03112983, "- N/A -   "
2.95, 89.16828, 0.00511755, NaN, NaN, NaN, 0.0323506, "- N/A -   "
2.96, 89.40418, 0.005134214, NaN, NaN, NaN, 0.0323506, "- N/A -   "
2.97, 89.87598, 0.00515087, NaN, NaN, NaN, 0.0323506, "- N/A -   "
2.98, 90.11186, 0.005167535, NaN, NaN, NaN, 0.0323506, "- N/A -   "
2.99, 90.34776, 0.0051842, NaN, NaN, NaN, 0.0323506, "- N/A -   "
3.0, 90.70161, 0.005203633, NaN, NaN, NaN, 0.0323506, "- N/A -   "
3.01, 91.05545, 0.00521752, NaN, NaN, NaN, 0.0323506, "- N/A -   "
3.02, 91.2913, 0.005234177, NaN, NaN, NaN, 0.0323506, "- N/A -   "
3.03, 91.52724, 0.00525084, NaN, NaN, NaN, 0.0323506, "- N/A -   "
3.04, 91.88108, 0.0052675, NaN, NaN, NaN, 0.0323506, "- N/A -   "
3.05, 92.23492, 0.00528138, NaN, NaN, NaN, 0.0335714, "- N/A -   "
3.06, 92.47082, 0.00529804, NaN, NaN, NaN, 0.0335714, "- N/A -   "
3.07, 92.70671, 0.005314703, NaN, NaN, NaN, 0.0335714, "- N/A -   "
3.08, 93.0606, 0.00533136, NaN, NaN, NaN, 0.0335714, "- N/A -   "
3.09, 93.2965, 0.00534802, NaN, NaN, NaN, 0.0347922, "- N/A -   "
3.1, 93.65029, 0.00536191, NaN, NaN, NaN, 0.0347922, "- N/A -   "
3.11, 93.8862, 0.00537857, NaN, NaN, NaN, 0.03601294, "- N/A -   "
3.12, 94.24, 0.00539523, NaN, NaN, NaN, 0.03601294, "- N/A -   "
3.13, 94.47592, 0.00541189, NaN, NaN, NaN, 0.03601294, "- N/A -   "
3.14, 94.9477, 0.00542855, NaN, NaN, NaN, 0.0347922, "- N/A -   "
3.15, 95.06567, 0.00544243, NaN, NaN, NaN, 0.03601294, "- N/A -   "
3.16, 95.30156, 0.00546187, NaN, NaN, NaN, 0.03601294, "- N/A -   "
3.17, 95.6554, 0.00547575, NaN, NaN, NaN, 0.03601294, "- N/A -   "
3.18, 96.00924, 0.00549242, NaN, NaN, NaN, 0.03601294, "- N/A -   "
3.19, 96.24514, 0.00550908, NaN, NaN, NaN, 0.0372337, "- N/A -   "
3.2, 96.599, 0.00552296, NaN, NaN, NaN, 0.0372337, "- N/A -   "
3.21, 96.83487, 0.00553962, NaN, NaN, NaN, 0.0384545, "- N/A -   "
3.22, 97.07077, 0.0055535, NaN, NaN, NaN, 0.0384545, "- N/A -   "
3.23, 97.4246, 0.00557294, NaN, NaN, NaN, 0.0384545, "- N/A -   "
3.24, 97.77845, 0.005586825, NaN, NaN, NaN, 0.0384545, "- N/A -   "
3.25, 98.01435, 0.00560349, NaN, NaN, NaN, 0.0384545, "- N/A -   "
3.26, 98.3682, 0.00562015, NaN, NaN, NaN, 0.0384545, "- N/A -   "
3.27, 98.72203, 0.00563681, NaN, NaN, NaN, 0.0384545, "- N/A -   "
3.28, 98.9579, 0.00565069, NaN, NaN, NaN, 0.0396753, "- N/A -   "
3.29, 99.1938, 0.00566457, NaN, NaN, NaN, 0.04089605, "- N/A -   "
3.3, 99.42972, 0.00568123, NaN, NaN, NaN, 0.04089605, "- N/A -   "
3.31, 99.7836, 0.00569512, NaN, NaN, NaN, 0.04211683, "- N/A -   "
3.32, 99.9015, 0.00571178, NaN, NaN, NaN, 0.0433376, "- N/A -   "
3.33, 100.3733, 0.00572566, NaN, NaN, NaN, 0.0433376, "- N/A -   "
3.34, 100.727, 0.00574232, NaN, NaN, NaN, 0.0433376, "- N/A -   "
3.35, 101.081, 0.00576176, NaN, NaN, NaN, 0.04211683, "- N/A -   "
3.36, 101.435, 0.00577842, NaN, NaN, NaN, 0.04211683, "- N/A -   "
3.37, 101.671, 0.005797858, NaN, NaN, NaN, 0.04211683, "- N/A -   "
3.38, 102.025, 0.00581174, NaN, NaN, NaN, 0.04211683, "- N/A -   "
3.39, 102.3784, 0.005828402, NaN, NaN, NaN, 0.04211683, "- N/A -   "
3.4, 102.6143, 0.005845063, NaN, NaN, NaN, 0.0433376, "- N/A -   "
3.41, 102.968, 0.005861723, NaN, NaN, NaN, 0.04211683, "- N/A -   "
3.42, 103.204, 0.00588116, NaN, NaN, NaN, 0.04089605, "- N/A -   "
3.43, 103.794, 0.00590337, NaN, NaN, NaN, 0.0384545, "- N/A -   "
3.44, 104.148, 0.00592281, NaN, NaN, NaN, 0.0372337, "- N/A -   "
3.45, 104.619, 0.005945026, NaN, NaN, NaN, 0.03601294, "- N/A -   "
3.46, 104.973, 0.005964463, NaN, NaN, NaN, 0.0347922, "- N/A -   "
3.47, 105.327, 0.0059839, NaN, NaN, NaN, 0.0335714, "- N/A -   "
3.48, 105.799, 0.006003338, NaN, NaN, NaN, 0.03112983, "- N/A -   "
3.49, 106.035, 0.00602277, NaN, NaN, NaN, 0.03112983, "- N/A -   "
3.5, 106.507, 0.006039435, NaN, NaN, NaN, 0.03112983, "- N/A -   "
3.51, 106.742, 0.006056096, NaN, NaN, NaN, 0.03112983, "- N/A -   "
3.52, 106.978, 0.00606998, NaN, NaN, NaN, 0.0323506, "- N/A -   "
3.53, 107.3322, 0.00608664, NaN, NaN, NaN, 0.0323506, "- N/A -   "
3.54, 107.568, 0.006103301, NaN, NaN, NaN, 0.0335714, "- N/A -   "
3.55, 107.804, 0.006117184, NaN, NaN, NaN, 0.0335714, "- N/A -   "
3.56, 108.158, 0.006133845, NaN, NaN, NaN, 0.0347922, "- N/A -   "
3.57, 108.394, 0.006150505, NaN, NaN, NaN, 0.0347922, "- N/A -   "
3.58, 108.748, 0.006164389, NaN, NaN, NaN, 0.0347922, "- N/A -   "
3.59, 108.983, 0.00618105, NaN, NaN, NaN, 0.0347922, "- N/A -   "
3.6, 109.3373, 0.00619771, NaN, NaN, NaN, 0.0347922, "- N/A -   "
3.61, 109.691, 0.006214371, NaN, NaN, NaN, 0.03601294, "- N/A -   "
3.62, 109.927, 0.006228254, NaN, NaN, NaN, 0.03601294, "- N/A -   "
3.63, 110.163, 0.006244915, NaN, NaN, NaN, 0.03601294, "- N/A -   "
3.64, 110.517, 0.006261575, NaN, NaN, NaN, 0.03601294, "- N/A -   "
3.65, 110.871, 0.00628101, NaN, NaN, NaN, 0.03601294, "- N/A -   "
3.66, 111.224, 0.0062949, NaN, NaN, NaN, 0.03601294, "- N/A -   "
3.67, 111.578, 0.006314334, NaN, NaN, NaN, 0.0347922, "- N/A -   "
3.68, 111.932, 0.006333771, NaN, NaN, NaN, 0.0335714, "- N/A -   "
3.69, 112.286, 0.006350431, NaN, NaN, NaN, 0.0335714, "- N/A -   "
3.7, 112.758, 0.006372645, NaN, NaN, NaN, 0.0323506, "- N/A -   "
3.71, 112.994, 0.006389306, NaN, NaN, NaN, 0.03112983, "- N/A -   "
3.72, 113.465, 0.006408743, NaN, NaN, NaN, 0.0299091, "- N/A -   "
3.73, 113.701, 0.00642818, NaN, NaN, NaN, 0.0299091, "- N/A -   "
3.74, 114.055, 0.00644206, NaN, NaN, NaN, 0.0299091, "- N/A -   "
3.75, 114.2911, 0.006455948, NaN, NaN, NaN, 0.03112983, "- N/A -   "
3.76, 114.645, 0.00647261, NaN, NaN, NaN, 0.03112983, "- N/A -   "
3.77, 114.881, 0.006489269, NaN, NaN, NaN, 0.0323506, "- N/A -   "
3.78, 115.235, 0.006503153, NaN, NaN, NaN, 0.0323506, "- N/A -   "
3.79, 115.589, 0.006519813, NaN, NaN, NaN, 0.0323506, "- N/A -   "
3.8, 115.942, 0.006536474, NaN, NaN, NaN, 0.0323506, "- N/A -   "
3.81, 116.178, 0.00655313, NaN, NaN, NaN, 0.0335714, "- N/A -   "
3.82, 116.414, 0.006567018, NaN, NaN, NaN, 0.0335714, "- N/A -   "
3.83, 116.65, 0.0065809, NaN, NaN, NaN, 0.0347922, "- N/A -   "
3.84, 117.004, 0.006597562, NaN, NaN, NaN, 0.03601294, "- N/A -   "
3.85, 117.24, 0.00661145, NaN, NaN, NaN, 0.03601294, "- N/A -   "
3.86, 117.594, 0.00662533, NaN, NaN, NaN, 0.0372337, "- N/A -   "
3.87, 117.712, 0.006639214, NaN, NaN, NaN, 0.0384545, "- N/A -   "
3.88, 118.065, 0.0066531, NaN, NaN, NaN, 0.0396753, "- N/A -   "
3.89, 118.301, 0.006666981, NaN, NaN, NaN, 0.04211683, "- N/A -   "
3.9, 118.537, 0.00668087, NaN, NaN, NaN, 0.04211683, "- N/A -   "
3.91, 118.891, 0.006694749, NaN, NaN, NaN, 0.0433376, "- N/A -   "
3.92, 119.127, 0.006708632, NaN, NaN, NaN, 0.0445584, "- N/A -   "
3.93, 119.363, 0.006725293, NaN, NaN, NaN, 0.04577916, "- N/A -   "
3.94, 119.599, 0.00673918, NaN, NaN, NaN, 0.04577916, "- N/A -   "
3.95, 119.953, 0.00675306, NaN, NaN, NaN, 0.04699994, "- N/A -   "
3.96, 120.188, 0.00676972, NaN, NaN, NaN, 0.04699994, "- N/A -   "
3.97, 120.66, 0.00678638, NaN, NaN, NaN, 0.04699994, "- N/A -   "
3.98, 121.014, 0.006805819, NaN, NaN, NaN, 0.04577916, "- N/A -   "
3.99, 121.368, 0.00682248, NaN, NaN, NaN, 0.04577916, "- N/A -   "
4, 121.604, 0.00683914, NaN, NaN, NaN, 0.04577916, "- N/A -   "
4.01, 122.076, 0.0068558, NaN, NaN, NaN, 0.04577916, "- N/A -   "
4.02, 122.312, 0.00687524, NaN, NaN, NaN, 0.04577916, "- N/A -   "
4.03, 122.665, 0.0068919, NaN, NaN, NaN, 0.0445584, "- N/A -   "
4.04, 122.901, 0.00691134, NaN, NaN, NaN, 0.0433376, "- N/A -   "
4.05, 123.491, 0.00693077, NaN, NaN, NaN, 0.04211683, "- N/A -   "
4.06, 123.963, 0.00695021, NaN, NaN, NaN, 0.04089605, "- N/A -   "
4.07, 124.317, 0.00696965, NaN, NaN, NaN, 0.0396753, "- N/A -   "
4.08, 124.67, 0.00698631, NaN, NaN, NaN, 0.0396753, "- N/A -   "
4.09, 124.906, 0.007005745, NaN, NaN, NaN, 0.0396753, "- N/A -   "
4.1, 125.26, 0.00702241, NaN, NaN, NaN, 0.0384545, "- N/A -   "
4.11, 125.496, 0.00704184, NaN, NaN, NaN, 0.0384545, "- N/A -   "
4.12, 125.9679, 0.0070585, NaN, NaN, NaN, 0.0372337, "- N/A -   "
4.13, 126.204, 0.00707794, NaN, NaN, NaN, 0.0372337, "- N/A -   "
4.14, 126.676, 0.00709182, NaN, NaN, NaN, 0.0372337, "- N/A -   "
4.15, 127.029, 0.00711126, NaN, NaN, NaN, 0.03601294, "- N/A -   "
4.16, 127.265, 0.00712792, NaN, NaN, NaN, 0.03601294, "- N/A -   "
4.17, 127.737, 0.00714736, NaN, NaN, NaN, 0.03601294, "- N/A -   "
4.18, 127.973, 0.00716124, NaN, NaN, NaN, 0.03601294, "- N/A -   "
4.19, 128.327, 0.007177904, NaN, NaN, NaN, 0.03601294, "- N/A -   "
4.2, 128.563, 0.00719734, NaN, NaN, NaN, 0.03601294, "- N/A -   "
4.21, 129.035, 0.007214, NaN, NaN, NaN, 0.03601294, "- N/A -   "
4.22, 129.27, 0.007230662, NaN, NaN, NaN, 0.0347922, "- N/A -   "
4.23, 129.624, 0.00724732, NaN, NaN, NaN, 0.0347922, "- N/A -   "
4.24, 129.978, 0.00726676, NaN, NaN, NaN, 0.0335714, "- N/A -   "
4.25, 130.4499, 0.0072862, NaN, NaN, NaN, 0.0323506, "- N/A -   "
4.26, 130.804, 0.00730563, NaN, NaN, NaN, 0.03112983, "- N/A -   "
4.27, 131.1576, 0.00732507, NaN, NaN, NaN, 0.0299091, "- N/A -   "
4.28, 131.511, 0.007341732, NaN, NaN, NaN, 0.0299091, "- N/A -   "
4.29, 131.865, 0.00735839, NaN, NaN, NaN, 0.0299091, "- N/A -   "
4.3, 132.219, 0.00737783, NaN, NaN, NaN, 0.0299091, "- N/A -   "
4.31, 132.6909, 0.00739449, NaN, NaN, NaN, 0.0286883, "- N/A -   "
4.32, 132.9268, 0.00741115, NaN, NaN, NaN, 0.0286883, "- N/A -   "
4.33, 133.281, 0.00742781, NaN, NaN, NaN, 0.0286883, "- N/A -   "
4.34, 133.634, 0.00744447, NaN, NaN, NaN, 0.0286883, "- N/A -   "
4.35, 133.87, 0.00746113, NaN, NaN, NaN, 0.0286883, "- N/A -   "
4.36, 134.224, 0.00748057, NaN, NaN, NaN, 0.0286883, "- N/A -   "
4.37, 134.46, 0.00749445, NaN, NaN, NaN, 0.0286883, "- N/A -   "
4.38, 134.932, 0.007511114, NaN, NaN, NaN, 0.0286883, "- N/A -   "
4.39, 135.1678, 0.00752777, NaN, NaN, NaN, 0.0286883, "- N/A -   "
4.4, 135.522, 0.00754443, NaN, NaN, NaN, 0.0286883, "- N/A -   "
4.41, 135.875, 0.0075611, NaN, NaN, NaN, 0.0286883, "- N/A -   "
4.42, 136.229, 0.007577756, NaN, NaN, NaN, 0.0299091, "- N/A -   "
4.43, 136.465, 0.007588863, NaN, NaN, NaN, 0.03112983, "- N/A -   "
4.44, 136.701, 0.00760275, NaN, NaN, NaN, 0.0323506, "- N/A -   "
4.45, 136.937, 0.00761663, NaN, NaN, NaN, 0.0335714, "- N/A -   "
4.46, 137.173, 0.007630514, NaN, NaN, NaN, 0.0347922, "- N/A -   "
4.47, 137.4088, 0.0076444, NaN, NaN, NaN, 0.0372337, "- N/A -   "
4.48, 137.6447, 0.007658282, NaN, NaN, NaN, 0.0384545, "- N/A -   "
4.49, 137.8806, 0.007669389, NaN, NaN, NaN, 0.0396753, "- N/A -   "
4.5, 138.116, 0.00768327, NaN, NaN, NaN, 0.04089605, "- N/A -   "
4.51, 138.588, 0.007699933, NaN, NaN, NaN, 0.04089605, "- N/A -   "
4.52, 138.824, 0.00771382, NaN, NaN, NaN, 0.04211683, "- N/A -   "
4.53, 138.942, 0.007730477, NaN, NaN, NaN, 0.04211683, "- N/A -   "
4.54, 139.414, 0.00774436, NaN, NaN, NaN, 0.0433376, "- N/A -   "
4.55, 139.65, 0.007758245, NaN, NaN, NaN, 0.0445584, "- N/A -   "
4.56, 140.1216, 0.00777491, NaN, NaN, NaN, 0.0445584, "- N/A -   "
4.57, 140.357, 0.007794343, NaN, NaN, NaN, 0.0445584, "- N/A -   "
4.58, 140.711, 0.007811003, NaN, NaN, NaN, 0.0433376, "- N/A -   "
4.59, 141.065, 0.007827664, NaN, NaN, NaN, 0.0433376, "- N/A -   "
4.6, 141.419, 0.007844324, NaN, NaN, NaN, 0.0433376, "- N/A -   "
4.61, 141.773, 0.007863761, NaN, NaN, NaN, 0.0433376, "- N/A -   "
4.62, 142.1267, 0.007880422, NaN, NaN, NaN, 0.04211683, "- N/A -   "
4.63, 142.3626, 0.007897082, NaN, NaN, NaN, 0.04211683, "- N/A -   "
4.64, 142.716, 0.007913743, NaN, NaN, NaN, 0.04211683, "- N/A -   "
4.65, 143.07, 0.007930404, NaN, NaN, NaN, 0.04211683, "- N/A -   "
4.66, 143.424, 0.007947064, NaN, NaN, NaN, 0.04211683, "- N/A -   "
4.67, 143.66, 0.007960948, NaN, NaN, NaN, 0.0433376, "- N/A -   "
4.68, 144.014, 0.007977608, NaN, NaN, NaN, 0.0433376, "- N/A -   "
4.69, 144.25, 0.007994269, NaN, NaN, NaN, 0.0433376, "- N/A -   "
4.7, 144.604, 0.008010929, NaN, NaN, NaN, 0.0433376, "- N/A -   "
4.71, 145.0754, 0.00802759, NaN, NaN, NaN, 0.0433376, "- N/A -   "
4.72, 145.429, 0.00804425, NaN, NaN, NaN, 0.0433376, "- N/A -   "
4.73, 145.665, 0.008060911, NaN, NaN, NaN, 0.0433376, "- N/A -   "
4.74, 146.019, 0.008080348, NaN, NaN, NaN, 0.04211683, "- N/A -   "
4.75, 146.491, 0.008097008, NaN, NaN, NaN, 0.04211683, "- N/A -   "
4.76, 146.8446, 0.008116446, NaN, NaN, NaN, 0.04211683, "- N/A -   "
4.77, 147.0805, 0.008133106, NaN, NaN, NaN, 0.04089605, "- N/A -   "
4.78, 147.552, 0.008152544, NaN, NaN, NaN, 0.0396753, "- N/A -   "
4.79, 147.906, 0.008171981, NaN, NaN, NaN, 0.0384545, "- N/A -   "
4.8, 148.26, 0.008191418, NaN, NaN, NaN, 0.0372337, "- N/A -   "
4.81, 148.732, 0.008210856, NaN, NaN, NaN, 0.03601294, "- N/A -   "
4.82, 149.0856, 0.008233069, NaN, NaN, NaN, 0.0335714, "- N/A -   "
4.83, 149.675, 0.008255283, NaN, NaN, NaN, 0.0323506, "- N/A -   "
4.84, 150.029, 0.008271944, NaN, NaN, NaN, 0.03112983, "- N/A -   "
4.85, 150.383, 0.008291381, NaN, NaN, NaN, 0.0299091, "- N/A -   "
4.86, 150.737, 0.008310818, NaN, NaN, NaN, 0.0286883, "- N/A -   "
4.87, 150.973, 0.00832748, NaN, NaN, NaN, 0.0286883, "- N/A -   "
4.88, 151.445, 0.008346916, NaN, NaN, NaN, 0.0286883, "- N/A -   "
4.89, 151.68, 0.008363577, NaN, NaN, NaN, 0.0286883, "- N/A -   "
4.9, 152.034, 0.008380237, NaN, NaN, NaN, 0.0286883, "- N/A -   "
4.91, 152.27, 0.008396897, NaN, NaN, NaN, 0.0286883, "- N/A -   "
4.92, 152.742, 0.008410782, NaN, NaN, NaN, 0.0286883, "- N/A -   "
4.93, 152.86, 0.008430218, NaN, NaN, NaN, 0.0286883, "- N/A -   "
4.94, 153.332, 0.008441325, NaN, NaN, NaN, 0.0299091, "- N/A -   "
4.95, 153.45, 0.008457987, NaN, NaN, NaN, 0.0299091, "- N/A -   "
4.96, 153.921, 0.008474646, NaN, NaN, NaN, 0.03112983, "- N/A -   "
4.97, 154.157, 0.00848853, NaN, NaN, NaN, 0.03112983, "- N/A -   "
4.98, 154.393, 0.008505192, NaN, NaN, NaN, 0.0323506, "- N/A -   "
4.99, 154.747, 0.008519075, NaN, NaN, NaN, 0.0323506, "- N/A -   "
5, 155.101, 0.008535735, NaN, NaN, NaN, 0.0323506, "- N/A -   "
5.01, 155.455, 0.00854962, NaN, NaN, NaN, 0.0335714, "- N/A -   "
5.02, 155.691, 0.00856628, NaN, NaN, NaN, 0.0335714, "- N/A -   "
5.03, 155.927, 0.008580163, NaN, NaN, NaN, 0.0347922, "- N/A -   "
5.04, 156.398, 0.008599601, NaN, NaN, NaN, 0.0347922, "- N/A -   "
5.05, 156.634, 0.008613484, NaN, NaN, NaN, 0.0347922, "- N/A -   "
5.06, 156.988, 0.008630144, NaN, NaN, NaN, 0.0347922, "- N/A -   "
5.07, 157.224, 0.008646806, NaN, NaN, NaN, 0.0347922, "- N/A -   "
5.08, 157.578, 0.008660689, NaN, NaN, NaN, 0.03601294, "- N/A -   "
5.09, 157.814, 0.008680127, NaN, NaN, NaN, 0.0347922, "- N/A -   "
5.1, 158.2855, 0.008694011, NaN, NaN, NaN, 0.03601294, "- N/A -   "
5.11, 158.639, 0.00871345, NaN, NaN, NaN, 0.0347922, "- N/A -   "
5.12, 158.875, 0.008727332, NaN, NaN, NaN, 0.03601294, "- N/A -   "
5.13, 159.111, 0.008743991, NaN, NaN, NaN, 0.03601294, "- N/A -   "
5.14, 159.465, 0.00876065, NaN, NaN, NaN, 0.03601294, "- N/A -   "
5.15, 159.819, 0.008777313, NaN, NaN, NaN, 0.03601294, "- N/A -   "
5.16, 160.173, 0.008793973, NaN, NaN, NaN, 0.0372337, "- N/A -   "
5.17, 160.5265, 0.008810634, NaN, NaN, NaN, 0.0372337, "- N/A -   "
5.18, 160.7624, 0.008824518, NaN, NaN, NaN, 0.0372337, "- N/A -   "
5.19, 161.116, 0.008841177, NaN, NaN, NaN, 0.0372337, "- N/A -   "
5.2, 161.4701, 0.008857839, NaN, NaN, NaN, 0.0372337, "- N/A -   "
5.21, 161.824, 0.008874499, NaN, NaN, NaN, 0.0372337, "- N/A -   "
5.22, 162.06, 0.008888382, NaN, NaN, NaN, 0.0384545, "- N/A -   "
5.23, 162.414, 0.008905044, NaN, NaN, NaN, 0.0384545, "- N/A -   "
5.24, 162.65, 0.008918927, NaN, NaN, NaN, 0.0396753, "- N/A -   "
5.25, 162.885, 0.00893281, NaN, NaN, NaN, 0.04089605, "- N/A -   "
5.26, 163.2393, 0.008949472, NaN, NaN, NaN, 0.04211683, "- N/A -   "
5.27, 163.475, 0.008963355, NaN, NaN, NaN, 0.04211683, "- N/A -   "
5.28, 163.711, 0.008980015, NaN, NaN, NaN, 0.0433376, "- N/A -   "
5.29, 164.065, 0.008993899, NaN, NaN, NaN, 0.0433376, "- N/A -   "
5.3, 164.419, 0.009007783, NaN, NaN, NaN, 0.0445584, "- N/A -   "
5.31, 164.655, 0.00902722, NaN, NaN, NaN, 0.0445584, "- N/A -   "
5.32, 165.009, 0.009041104, NaN, NaN, NaN, 0.0445584, "- N/A -   "
5.33, 165.362, 0.009057765, NaN, NaN, NaN, 0.0445584, "- N/A -   "
5.34, 165.7162, 0.009074425, NaN, NaN, NaN, 0.04577916, "- N/A -   "
5.35, 165.952, 0.009091086, NaN, NaN, NaN, 0.0445584, "- N/A -   "
5.36, 166.424, 0.009107746, NaN, NaN, NaN, 0.04577916, "- N/A -   "
5.37, 166.66, 0.009124407, NaN, NaN, NaN, 0.0445584, "- N/A -   "
5.38, 167.014, 0.009141067, NaN, NaN, NaN, 0.0445584, "- N/A -   "
5.39, 167.485, 0.009160505, NaN, NaN, NaN, 0.0433376, "- N/A -   "
5.4, 167.839, 0.009182719, NaN, NaN, NaN, 0.04211683, "- N/A -   "
5.41, 168.429, 0.009202156, NaN, NaN, NaN, 0.0396753, "- N/A -   "
5.42, 168.783, 0.00922437, NaN, NaN, NaN, 0.0372337, "- N/A -   "
5.43, 169.137, 0.009243807, NaN, NaN, NaN, 0.03601294, "- N/A -   "
5.44, 169.608, 0.009263244, NaN, NaN, NaN, 0.0347922, "- N/A -   "
5.45, 169.962, 0.009282682, NaN, NaN, NaN, 0.0335714, "- N/A -   "
5.46, 170.316, 0.009302119, NaN, NaN, NaN, 0.0335714, "- N/A -   "
5.47, 170.67, 0.009318779, NaN, NaN, NaN, 0.0323506, "- N/A -   "
5.48, 171.142, 0.009338217, NaN, NaN, NaN, 0.03112983, "- N/A -   "
5.49, 171.378, 0.009357654, NaN, NaN, NaN, 0.0299091, "- N/A -   "
5.5, 171.732, 0.009374314, NaN, NaN, NaN, 0.0299091, "- N/A -   "
5.51, 172.203, 0.009390975, NaN, NaN, NaN, 0.0299091, "- N/A -   "
5.52, 172.4392, 0.009407635, NaN, NaN, NaN, 0.0299091, "- N/A -   "
5.53, 172.6751, 0.009424296, NaN, NaN, NaN, 0.0299091, "- N/A -   "
5.54, 173.029, 0.009440956, NaN, NaN, NaN, 0.0299091, "- N/A -   "
5.55, 173.265, 0.009457617, NaN, NaN, NaN, 0.03112983, "- N/A -   "
5.56, 173.619, 0.009471501, NaN, NaN, NaN, 0.0323506, "- N/A -   "
5.57, 173.855, 0.009482608, NaN, NaN, NaN, 0.0335714, "- N/A -   "
5.58, 174.09, 0.009496491, NaN, NaN, NaN, 0.0347922, "- N/A -   "
5.59, 174.4443, 0.009513152, NaN, NaN, NaN, 0.0347922, "- N/A -   "
5.6, 174.6802, 0.009529812, NaN, NaN, NaN, 0.0347922, "- N/A -   "
5.61, 175.034, 0.009546473, NaN, NaN, NaN, 0.03601294, "- N/A -   "
5.62, 175.27, 0.009560356, NaN, NaN, NaN, 0.03601294, "- N/A -   "
5.63, 175.624, 0.009577017, NaN, NaN, NaN, 0.03601294, "- N/A -   "
5.64, 175.978, 0.009593678, NaN, NaN, NaN, 0.0372337, "- N/A -   "
5.65, 176.331, 0.009607562, NaN, NaN, NaN, 0.0372337, "- N/A -   "
5.66, 176.6853, 0.009624222, NaN, NaN, NaN, 0.0372337, "- N/A -   "
5.67, 176.803, 0.009640883, NaN, NaN, NaN, 0.0384545, "- N/A -   "
5.68, 177.275, 0.009657542, NaN, NaN, NaN, 0.0384545, "- N/A -   "
5.69, 177.629, 0.00967698, NaN, NaN, NaN, 0.0372337, "- N/A -   "
5.7, 177.983, 0.00969364, NaN, NaN, NaN, 0.03601294, "- N/A -   "
5.71, 178.337, 0.009713078, NaN, NaN, NaN, 0.03601294, "- N/A -   "
5.72, 178.69, 0.009729738, NaN, NaN, NaN, 0.0347922, "- N/A -   "
5.73, 179.044, 0.009749176, NaN, NaN, NaN, 0.0347922, "- N/A -   "
5.74, 179.516, 0.009765836, NaN, NaN, NaN, 0.0335714, "- N/A -   "
5.75, 179.87, 0.009785274, NaN, NaN, NaN, 0.0335714, "- N/A -   "
5.76, 180.224, 0.00980193, NaN, NaN, NaN, 0.0323506, "- N/A -   "
5.77, 180.578, 0.009821372, NaN, NaN, NaN, 0.0323506, "- N/A -   "
5.78, 181.049, 0.009838033, NaN, NaN, NaN, 0.03112983, "- N/A -   "
5.79, 181.285, 0.009854692, NaN, NaN, NaN, 0.03112983, "- N/A -   "
5.8, 181.521, 0.009871352, NaN, NaN, NaN, 0.03112983, "- N/A -   "
5.81, 181.875, 0.009888014, NaN, NaN, NaN, 0.0323506, "- N/A -   "
5.82, 182.1109, 0.009901897, NaN, NaN, NaN, 0.0323506, "- N/A -   "
5.83, 182.465, 0.00991578, NaN, NaN, NaN, 0.0335714, "- N/A -   "
5.84, 182.819, 0.009932442, NaN, NaN, NaN, 0.0335714, "- N/A -   "
5.85, 183.054, 0.009946325, NaN, NaN, NaN, 0.0347922, "- N/A -   "
5.86, 183.29, 0.009960209, NaN, NaN, NaN, 0.03601294, "- N/A -   "
5.87, 183.526, 0.009971316, NaN, NaN, NaN, 0.0384545, "- N/A -   "
5.88, 183.8801, 0.0099852, NaN, NaN, NaN, 0.0396753, "- N/A -   "
5.89, 183.998, 0.0100019, NaN, NaN, NaN, 0.04089605, "- N/A -   "
5.9, 184.47, 0.0100157, NaN, NaN, NaN, 0.04089605, "- N/A -   "
5.91, 184.706, 0.0100296, NaN, NaN, NaN, 0.04211683, "- N/A -   "
5.92, 184.942, 0.0100463, NaN, NaN, NaN, 0.04211683, "- N/A -   "
5.93, 185.295, 0.0100629, NaN, NaN, NaN, 0.0433376, "- N/A -   "
5.94, 185.649, 0.0100796, NaN, NaN, NaN, 0.0433376, "- N/A -   "
5.95, 186.003, 0.0100963, NaN, NaN, NaN, 0.04211683, "- N/A -   "
5.96, 186.357, 0.01011293, NaN, NaN, NaN, 0.04211683, "- N/A -   "
[...]
28.63, 1122, 0.0478934, NaN, NaN, NaN, 0.0433376, "- N/A -   "
28.64, 1122.354, 0.0479101, NaN, NaN, NaN, 0.0433376, "- N/A -   "
28.65, 1122.95, 0.0479267, NaN, NaN, NaN, 0.0433376, "- N/A -   "
28.66, 1123.31, 0.0479462, NaN, NaN, NaN, 0.0433376, "- N/A -   "
28.67, 1123.9, 0.0479628, NaN, NaN, NaN, 0.04211683, "- N/A -   "
28.68, 1124.38, 0.04798227, NaN, NaN, NaN, 0.04089605, "- N/A -   "
28.69, 1124.86, 0.04800171, NaN, NaN, NaN, 0.0396753, "- N/A -   "
28.7, 1125.45, 0.0480211, NaN, NaN, NaN, 0.0384545, "- N/A -   "
28.71, 1125.93, 0.0480434, NaN, NaN, NaN, 0.0372337, "- N/A -   "
28.72, 1126.65, 0.0480628, NaN, NaN, NaN, 0.0347922, "- N/A -   "
28.73, 1127.12, 0.04807946, NaN, NaN, NaN, 0.0347922, "- N/A -   "
28.74, 1127.6, 0.0481017, NaN, NaN, NaN, 0.0335714, "- N/A -   "
28.75, 1128.2, 0.04812111, NaN, NaN, NaN, 0.0323506, "- N/A -   "
28.76, 1128.67, 0.04813777, NaN, NaN, NaN, 0.03112983, "- N/A -   "
28.77, 1129.03, 0.0481572, NaN, NaN, NaN, 0.03112983, "- N/A -   "
28.78, 1129.51, 0.0481739, NaN, NaN, NaN, 0.0299091, "- N/A -   "
28.79, 1129.867, 0.0481878, NaN, NaN, NaN, 0.03112983, "- N/A -   "
28.8, 1130.344, 0.0482044, NaN, NaN, NaN, 0.03112983, "- N/A -   "
28.81, 1130.7, 0.0482211, NaN, NaN, NaN, 0.03112983, "- N/A -   "
28.82, 1131.298, 0.0482377, NaN, NaN, NaN, 0.03112983, "- N/A -   "
28.83, 1131.775, 0.0482544, NaN, NaN, NaN, 0.03112983, "- N/A -   "
28.84, 1132.13, 0.0482711, NaN, NaN, NaN, 0.03112983, "- N/A -   "
28.85, 1132.61, 0.0482877, NaN, NaN, NaN, 0.03112983, "- N/A -   "
28.86, 1132.97, 0.0483044, NaN, NaN, NaN, 0.0323506, "- N/A -   "
28.87, 1133.33, 0.04831826, NaN, NaN, NaN, 0.0323506, "- N/A -   "
28.88, 1133.8, 0.04833492, NaN, NaN, NaN, 0.0323506, "- N/A -   "
28.89, 1134.16, 0.04835158, NaN, NaN, NaN, 0.0323506, "- N/A -   "
28.9, 1134.76, 0.04836824, NaN, NaN, NaN, 0.0323506, "- N/A -   "
28.91, 1135.114, 0.0483821, NaN, NaN, NaN, 0.0335714, "- N/A -   "
28.92, 1135.591, 0.0483988, NaN, NaN, NaN, 0.0335714, "- N/A -   "
28.93, 1135.95, 0.0484154, NaN, NaN, NaN, 0.0335714, "- N/A -   "
28.94, 1136.545, 0.0484321, NaN, NaN, NaN, 0.0335714, "- N/A -   "
28.95, 1136.9, 0.0484488, NaN, NaN, NaN, 0.0347922, "- N/A -   "
28.96, 1137.26, 0.0484626, NaN, NaN, NaN, 0.03601294, "- N/A -   "
28.97, 1137.74, 0.04847931, NaN, NaN, NaN, 0.03601294, "- N/A -   "
28.98, 1138.1, 0.04849597, NaN, NaN, NaN, 0.03601294, "- N/A -   "
28.99, 1138.69, 0.04851263, NaN, NaN, NaN, 0.0347922, "- N/A -   "
29, 1139.17, 0.04852929, NaN, NaN, NaN, 0.0347922, "- N/A -   "
29.01, 1139.65, 0.048546, NaN, NaN, NaN, 0.0347922, "- N/A -   "
29.02, 1140, 0.0485598, NaN, NaN, NaN, 0.03601294, "- N/A -   "
29.03, 1140.36, 0.0485765, NaN, NaN, NaN, 0.03601294, "- N/A -   "
29.04, 1140.84, 0.0485959, NaN, NaN, NaN, 0.03601294, "- N/A -   "
29.05, 1141.32, 0.04860982, NaN, NaN, NaN, 0.03601294, "- N/A -   "
29.06, 1141.67, 0.04862648, NaN, NaN, NaN, 0.03601294, "- N/A -   "
29.07, 1142.03, 0.04864314, NaN, NaN, NaN, 0.0372337, "- N/A -   "
29.08, 1142.39, 0.048657, NaN, NaN, NaN, 0.0372337, "- N/A -   "
29.09, 1142.87, 0.0486709, NaN, NaN, NaN, 0.0384545, "- N/A -   "
29.1, 1143.22, 0.04868479, NaN, NaN, NaN, 0.0396753, "- N/A -   "
29.11, 1143.58, 0.0487015, NaN, NaN, NaN, 0.04089605, "- N/A -   "
29.12, 1143.94, 0.0487153, NaN, NaN, NaN, 0.04089605, "- N/A -   "
29.13, 1144.3, 0.04872922, NaN, NaN, NaN, 0.04211683, "- N/A -   "
29.14, 1144.77, 0.0487431, NaN, NaN, NaN, 0.0433376, "- N/A -   "
29.15, 1145.13, 0.0487598, NaN, NaN, NaN, 0.0433376, "- N/A -   "
29.16, 1145.61, 0.0487764, NaN, NaN, NaN, 0.0433376, "- N/A -   "
29.17, 1146.09, 0.0487931, NaN, NaN, NaN, 0.0433376, "- N/A -   "
29.18, 1146.443, 0.0488097, NaN, NaN, NaN, 0.0433376, "- N/A -   "
29.19, 1146.92, 0.0488264, NaN, NaN, NaN, 0.0445584, "- N/A -   "
29.2, 1147.28, 0.0488403, NaN, NaN, NaN, 0.04577916, "- N/A -   "
29.21, 1147.64, 0.0488542, NaN, NaN, NaN, 0.04577916, "- N/A -   "
29.22, 1147.99, 0.0488681, NaN, NaN, NaN, 0.04699994, "- N/A -   "
29.23, 1148.351, 0.0488847, NaN, NaN, NaN, 0.04699994, "- N/A -   "
29.24, 1148.95, 0.04890138, NaN, NaN, NaN, 0.04699994, "- N/A -   "
29.25, 1149.42, 0.0489208, NaN, NaN, NaN, 0.04699994, "- N/A -   "
29.26, 1149.9, 0.04894025, NaN, NaN, NaN, 0.04577916, "- N/A -   "
29.27, 1150.5, 0.0489597, NaN, NaN, NaN, 0.0445584, "- N/A -   "
29.28, 1151.09, 0.0489791, NaN, NaN, NaN, 0.04211683, "- N/A -   "
29.29, 1151.57, 0.0489986, NaN, NaN, NaN, 0.04089605, "- N/A -   "
29.3, 1152.17, 0.04902078, NaN, NaN, NaN, 0.0384545, "- N/A -   "
29.31, 1152.76, 0.0490402, NaN, NaN, NaN, 0.0372337, "- N/A -   "
29.32, 1153.24, 0.0490624, NaN, NaN, NaN, 0.03601294, "- N/A -   "
29.33, 1153.84, 0.0490819, NaN, NaN, NaN, 0.0335714, "- N/A -   "
29.34, 1154.43, 0.0491013, NaN, NaN, NaN, 0.0323506, "- N/A -   "
29.35, 1154.91, 0.04912074, NaN, NaN, NaN, 0.03112983, "- N/A -   "
29.36, 1155.51, 0.0491402, NaN, NaN, NaN, 0.0299091, "- N/A -   "
29.37, 1155.983, 0.0491568, NaN, NaN, NaN, 0.0299091, "- N/A -   "
29.38, 1156.46, 0.0491735, NaN, NaN, NaN, 0.0299091, "- N/A -   "
29.39, 1156.94, 0.0491929, NaN, NaN, NaN, 0.0286883, "- N/A -   "
29.4, 1157.29, 0.0492096, NaN, NaN, NaN, 0.0286883, "- N/A -   "
29.41, 1157.89, 0.049229, NaN, NaN, NaN, 0.0286883, "- N/A -   "
29.42, 1158.25, 0.0492457, NaN, NaN, NaN, 0.0274675, "- N/A -   "
29.43, 1158.726, 0.0492624, NaN, NaN, NaN, 0.0274675, "- N/A -   "
29.44, 1159.08, 0.049279, NaN, NaN, NaN, 0.0274675, "- N/A -   "
29.45, 1159.56, 0.0492957, NaN, NaN, NaN, 0.0286883, "- N/A -   "
29.46, 1159.92, 0.0493096, NaN, NaN, NaN, 0.0286883, "- N/A -   "
29.47, 1160.28, 0.0493234, NaN, NaN, NaN, 0.0299091, "- N/A -   "
29.48, 1160.75, 0.0493373, NaN, NaN, NaN, 0.03112983, "- N/A -   "
29.49, 1160.99, 0.049354, NaN, NaN, NaN, 0.0323506, "- N/A -   "
29.5, 1161.47, 0.04936787, NaN, NaN, NaN, 0.0323506, "- N/A -   "
29.51, 1161.83, 0.04938175, NaN, NaN, NaN, 0.0335714, "- N/A -   "
29.52, 1162.3, 0.04939564, NaN, NaN, NaN, 0.0347922, "- N/A -   "
29.53, 1162.66, 0.0494123, NaN, NaN, NaN, 0.03601294, "- N/A -   "
29.54, 1163.02, 0.0494262, NaN, NaN, NaN, 0.03601294, "- N/A -   "
29.55, 1163.496, 0.0494428, NaN, NaN, NaN, 0.03601294, "- N/A -   "
29.56, 1163.85, 0.0494595, NaN, NaN, NaN, 0.03601294, "- N/A -   "
29.57, 1164.33, 0.0494762, NaN, NaN, NaN, 0.03601294, "- N/A -   "
29.58, 1164.81, 0.0494928, NaN, NaN, NaN, 0.03601294, "- N/A -   "
29.59, 1165.404, 0.0495123, NaN, NaN, NaN, 0.03601294, "- N/A -   "
29.6, 1165.881, 0.0495289, NaN, NaN, NaN, 0.0347922, "- N/A -   "
29.61, 1166.358, 0.04954836, NaN, NaN, NaN, 0.0335714, "- N/A -   "
29.62, 1166.84, 0.0495678, NaN, NaN, NaN, 0.0335714, "- N/A -   "
29.63, 1167.312, 0.04958446, NaN, NaN, NaN, 0.0323506, "- N/A -   "
29.64, 1167.91, 0.0496039, NaN, NaN, NaN, 0.03112983, "- N/A -   "
29.65, 1168.39, 0.0496233, NaN, NaN, NaN, 0.0299091, "- N/A -   "
29.66, 1168.86, 0.04964, NaN, NaN, NaN, 0.0299091, "- N/A -   "
29.67, 1169.34, 0.0496567, NaN, NaN, NaN, 0.0299091, "- N/A -   "
29.68, 1169.7, 0.0496733, NaN, NaN, NaN, 0.03112983, "- N/A -   "
29.69, 1170.17, 0.0496872, NaN, NaN, NaN, 0.03112983, "- N/A -   "
29.7, 1170.41, 0.0497039, NaN, NaN, NaN, 0.03112983, "- N/A -   "
29.71, 1170.89, 0.0497177, NaN, NaN, NaN, 0.0323506, "- N/A -   "
29.72, 1171.37, 0.0497316, NaN, NaN, NaN, 0.0335714, "- N/A -   "
29.73, 1171.61, 0.04974551, NaN, NaN, NaN, 0.0347922, "- N/A -   "
29.74, 1171.96, 0.04975939, NaN, NaN, NaN, 0.03601294, "- N/A -   "
29.75, 1172.32, 0.0497733, NaN, NaN, NaN, 0.0372337, "- N/A -   "
29.76, 1172.68, 0.0497872, NaN, NaN, NaN, 0.0384545, "- N/A -   "
29.77, 1173.04, 0.0498038, NaN, NaN, NaN, 0.0396753, "- N/A -   "
29.78, 1173.27, 0.04981493, NaN, NaN, NaN, 0.04089605, "- N/A -   "
29.79, 1173.75, 0.0498288, NaN, NaN, NaN, 0.04211683, "- N/A -   "
29.8, 1174.11, 0.0498455, NaN, NaN, NaN, 0.0433376, "- N/A -   "
29.81, 1174.59, 0.04986213, NaN, NaN, NaN, 0.04211683, "- N/A -   "
29.82, 1175.06, 0.0498788, NaN, NaN, NaN, 0.04211683, "- N/A -   "
29.83, 1175.54, 0.0498955, NaN, NaN, NaN, 0.04211683, "- N/A -   "
29.84, 1176.02, 0.04991489, NaN, NaN, NaN, 0.04089605, "- N/A -   "
29.85, 1176.49, 0.0499316, NaN, NaN, NaN, 0.04089605, "- N/A -   "
29.86, 1176.97, 0.0499482, NaN, NaN, NaN, 0.04089605, "- N/A -   "
29.87, 1177.45, 0.04996765, NaN, NaN, NaN, 0.0396753, "- N/A -   "
29.88, 1177.93, 0.0499843, NaN, NaN, NaN, 0.0396753, "- N/A -   "
29.89, 1178.4, 0.0500037, NaN, NaN, NaN, 0.0396753, "- N/A -   "
29.9, 1178.76, 0.05002041, NaN, NaN, NaN, 0.0396753, "- N/A -   "
29.91, 1179.24, 0.05003707, NaN, NaN, NaN, 0.0396753, "- N/A -   "
29.92, 1179.71, 0.05005373, NaN, NaN, NaN, 0.0396753, "- N/A -   "
29.93, 1180.072, 0.05007039, NaN, NaN, NaN, 0.0396753, "- N/A -   "
29.94, 1180.55, 0.0500843, NaN, NaN, NaN, 0.0396753, "- N/A -   "
29.95, 1181.03, 0.0501009, NaN, NaN, NaN, 0.0396753, "- N/A -   "
29.96, 1181.503, 0.0501176, NaN, NaN, NaN, 0.04089605, "- N/A -   "
29.97, 1181.98, 0.05013703, NaN, NaN, NaN, 0.0396753, "- N/A -   "
29.98, 1182.457, 0.0501509, NaN, NaN, NaN, 0.0396753, "- N/A -   "
29.99, 1182.81, 0.0501676, NaN, NaN, NaN, 0.0396753, "- N/A -   "
30, 1183.29, 0.050187, NaN, NaN, NaN, 0.0384545, "- N/A -   "
30.01, 1183.77, 0.0502037, NaN, NaN, NaN, 0.0384545, "- N/A -   "
30.02, 1184.25, 0.0502203, NaN, NaN, NaN, 0.0384545, "- N/A -   "
30.03, 1184.72, 0.050237, NaN, NaN, NaN, 0.0384545, "- N/A -   "
30.04, 1185.2, 0.0502537, NaN, NaN, NaN, 0.0384545, "- N/A -   "
30.05, 1185.56, 0.0502703, NaN, NaN, NaN, 0.0384545, "- N/A -   "
30.06, 1186.03, 0.05028698, NaN, NaN, NaN, 0.0384545, "- N/A -   "
30.07, 1186.39, 0.0503036, NaN, NaN, NaN, 0.0384545, "- N/A -   "
30.08, 1186.87, 0.0503203, NaN, NaN, NaN, 0.0384545, "- N/A -   "
30.09, 1187.47, 0.0503397, NaN, NaN, NaN, 0.0384545, "- N/A -   "
30.1, 1187.94, 0.0503564, NaN, NaN, NaN, 0.0372337, "- N/A -   "
30.11, 1188.42, 0.05037306, NaN, NaN, NaN, 0.0372337, "- N/A -   "
30.12, 1188.9, 0.0503925, NaN, NaN, NaN, 0.03601294, "- N/A -   "
30.13, 1189.25, 0.0504092, NaN, NaN, NaN, 0.03601294, "- N/A -   "
30.14, 1189.61, 0.0504258, NaN, NaN, NaN, 0.03601294, "- N/A -   "
30.15, 1190.21, 0.0504425, NaN, NaN, NaN, 0.03601294, "- N/A -   "
30.16, 1190.69, 0.0504619, NaN, NaN, NaN, 0.0347922, "- N/A -   "
30.17, 1191.16, 0.05048135, NaN, NaN, NaN, 0.0347922, "- N/A -   "
30.18, 1191.64, 0.0505008, NaN, NaN, NaN, 0.0335714, "- N/A -   "
30.19, 1192.35, 0.0505174, NaN, NaN, NaN, 0.0335714, "- N/A -   "
30.2, 1192.71, 0.05053411, NaN, NaN, NaN, 0.0323506, "- N/A -   "
30.21, 1193.19, 0.05055077, NaN, NaN, NaN, 0.0323506, "- N/A -   "
30.22, 1193.55, 0.05056743, NaN, NaN, NaN, 0.0323506, "- N/A -   "
30.23, 1194.02, 0.05058409, NaN, NaN, NaN, 0.0323506, "- N/A -   "
30.24, 1194.38, 0.05060075, NaN, NaN, NaN, 0.0323506, "- N/A -   "
30.25, 1195.1, 0.05061741, NaN, NaN, NaN, 0.0323506, "- N/A -   "
30.26, 1195.34, 0.05063407, NaN, NaN, NaN, 0.0323506, "- N/A -   "
30.27, 1195.81, 0.05065073, NaN, NaN, NaN, 0.0323506, "- N/A -   "
30.28, 1196.171, 0.05066739, NaN, NaN, NaN, 0.0323506, "- N/A -   "
30.29, 1196.77, 0.05068405, NaN, NaN, NaN, 0.0335714, "- N/A -   "
30.3, 1197.01, 0.0507007, NaN, NaN, NaN, 0.0335714, "- N/A -   "
30.31, 1197.602, 0.0507174, NaN, NaN, NaN, 0.0335714, "- N/A -   "
30.32, 1198.08, 0.050734, NaN, NaN, NaN, 0.0323506, "- N/A -   "
30.33, 1198.556, 0.05075347, NaN, NaN, NaN, 0.0323506, "- N/A -   "
30.34, 1199.03, 0.05077013, NaN, NaN, NaN, 0.03112983, "- N/A -   "
30.35, 1199.39, 0.05078679, NaN, NaN, NaN, 0.0323506, "- N/A -   "
30.36, 1199.87, 0.0508007, NaN, NaN, NaN, 0.0323506, "- N/A -   "
30.37, 1200.34, 0.0508173, NaN, NaN, NaN, 0.0323506, "- N/A -   "
30.38, 1200.58, 0.050834, NaN, NaN, NaN, 0.0323506, "- N/A -   "
30.39, 1201.06, 0.05085066, NaN, NaN, NaN, 0.0323506, "- N/A -   "
30.4, 1201.54, 0.05086732, NaN, NaN, NaN, 0.0323506, "- N/A -   "
30.41, 1202.01, 0.05088398, NaN, NaN, NaN, 0.0323506, "- N/A -   "
30.42, 1202.49, 0.0509034, NaN, NaN, NaN, 0.0323506, "- N/A -   "
30.43, 1202.85, 0.0509201, NaN, NaN, NaN, 0.0323506, "- N/A -   "
30.44, 1203.21, 0.050934, NaN, NaN, NaN, 0.0323506, "- N/A -   "
30.45, 1203.68, 0.05094784, NaN, NaN, NaN, 0.0335714, "- N/A -   "
30.46, 1204.16, 0.05096173, NaN, NaN, NaN, 0.0347922, "- N/A -   "
30.47, 1204.4, 0.05097839, NaN, NaN, NaN, 0.03601294, "- N/A -   "
30.48, 1204.76, 0.0509923, NaN, NaN, NaN, 0.03601294, "- N/A -   "
30.49, 1205.23, 0.0510062, NaN, NaN, NaN, 0.0372337, "- N/A -   "
30.5, 1205.47, 0.05102, NaN, NaN, NaN, 0.0384545, "- N/A -   "
30.51, 1205.95, 0.0510367, NaN, NaN, NaN, 0.0384545, "- N/A -   "
30.52, 1206.31, 0.0510534, NaN, NaN, NaN, 0.0396753, "- N/A -   "
30.53, 1206.78, 0.05107002, NaN, NaN, NaN, 0.0396753, "- N/A -   "
30.54, 1207.26, 0.0510839, NaN, NaN, NaN, 0.0396753, "- N/A -   "
30.55, 1207.62, 0.0511006, NaN, NaN, NaN, 0.0396753, "- N/A -   "
30.56, 1208.1, 0.0511144, NaN, NaN, NaN, 0.04089605, "- N/A -   "
30.57, 1208.454, 0.0511311, NaN, NaN, NaN, 0.04089605, "- N/A -   "
30.58, 1208.81, 0.05114499, NaN, NaN, NaN, 0.04211683, "- N/A -   "
30.59, 1209.29, 0.0511589, NaN, NaN, NaN, 0.0433376, "- N/A -   "
30.6, 1209.65, 0.05117554, NaN, NaN, NaN, 0.0433376, "- N/A -   "
30.61, 1210, 0.0511894, NaN, NaN, NaN, 0.0445584, "- N/A -   "
30.62, 1210.48, 0.0512061, NaN, NaN, NaN, 0.0445584, "- N/A -   "
30.63, 1210.84, 0.05122, NaN, NaN, NaN, 0.04577916, "- N/A -   "
30.64, 1211.44, 0.0512394, NaN, NaN, NaN, 0.0445584, "- N/A -   "
30.65, 1211.91, 0.05125884, NaN, NaN, NaN, 0.0433376, "- N/A -   "
30.66, 1212.39, 0.05127828, NaN, NaN, NaN, 0.0433376, "- N/A -   "
30.67, 1212.99, 0.0512922, NaN, NaN, NaN, 0.0445584, "- N/A -   "
30.68, 1213.34, 0.0513116, NaN, NaN, NaN, 0.0445584, "- N/A -   "
30.69, 1213.701, 0.0513283, NaN, NaN, NaN, 0.0433376, "- N/A -   "
30.7, 1214.3, 0.0513477, NaN, NaN, NaN, 0.04211683, "- N/A -   "
30.71, 1214.77, 0.0513671, NaN, NaN, NaN, 0.04089605, "- N/A -   "
30.72, 1215.49, 0.0513866, NaN, NaN, NaN, 0.0396753, "- N/A -   "
30.73, 1215.97, 0.05140601, NaN, NaN, NaN, 0.0384545, "- N/A -   "
30.74, 1216.44, 0.0514254, NaN, NaN, NaN, 0.0372337, "- N/A -   "
30.75, 1217.04, 0.05144488, NaN, NaN, NaN, 0.0372337, "- N/A -   "
30.76, 1217.52, 0.05146432, NaN, NaN, NaN, 0.0347922, "- N/A -   "
30.77, 1218.11, 0.0514865, NaN, NaN, NaN, 0.0335714, "- N/A -   "
30.78, 1218.59, 0.0515032, NaN, NaN, NaN, 0.0323506, "- N/A -   "
30.79, 1219.07, 0.05152263, NaN, NaN, NaN, 0.0323506, "- N/A -   "
30.8, 1219.54, 0.05153929, NaN, NaN, NaN, 0.03112983, "- N/A -   "
30.81, 1219.9, 0.05155595, NaN, NaN, NaN, 0.03112983, "- N/A -   "
30.82, 1220.38, 0.05157261, NaN, NaN, NaN, 0.03112983, "- N/A -   "
30.83, 1220.74, 0.0515865, NaN, NaN, NaN, 0.0323506, "- N/A -   "
30.84, 1221.21, 0.0516032, NaN, NaN, NaN, 0.0323506, "- N/A -   "
30.85, 1221.57, 0.05161982, NaN, NaN, NaN, 0.0323506, "- N/A -   "
30.86, 1222.05, 0.05163648, NaN, NaN, NaN, 0.0323506, "- N/A -   "
30.87, 1222.53, 0.05165592, NaN, NaN, NaN, 0.0323506, "- N/A -   "
30.88, 1222.88, 0.0516698, NaN, NaN, NaN, 0.0323506, "- N/A -   "
30.89, 1223.48, 0.0516865, NaN, NaN, NaN, 0.0323506, "- N/A -   "
30.9, 1223.84, 0.05170312, NaN, NaN, NaN, 0.0335714, "- N/A -   "
30.91, 1224.08, 0.051717, NaN, NaN, NaN, 0.0335714, "- N/A -   "
30.92, 1224.553, 0.0517337, NaN, NaN, NaN, 0.0347922, "- N/A -   "
30.93, 1225.03, 0.0517503, NaN, NaN, NaN, 0.0347922, "- N/A -   "
30.94, 1225.507, 0.051767, NaN, NaN, NaN, 0.0347922, "- N/A -   "
30.95, 1225.86, 0.0517836, NaN, NaN, NaN, 0.0335714, "- N/A -   "
30.96, 1226.461, 0.0518031, NaN, NaN, NaN, 0.0335714, "- N/A -   "
30.97, 1226.938, 0.05181974, NaN, NaN, NaN, 0.0323506, "- N/A -   "
30.98, 1227.415, 0.05183918, NaN, NaN, NaN, 0.0323506, "- N/A -   "
30.99, 1227.89, 0.05185862, NaN, NaN, NaN, 0.0299091, "- N/A -   "
31, 1228.37, 0.05187528, NaN, NaN, NaN, 0.0299091, "- N/A -   "
31.01, 1228.85, 0.0518947, NaN, NaN, NaN, 0.0299091, "- N/A -   "
31.02, 1229.32, 0.0519086, NaN, NaN, NaN, 0.0299091, "- N/A -   "
31.03, 1229.68, 0.0519253, NaN, NaN, NaN, 0.0299091, "- N/A -   "
31.04, 1230.04, 0.05194192, NaN, NaN, NaN, 0.0299091, "- N/A -   "
31.05, 1230.52, 0.0519558, NaN, NaN, NaN, 0.03112983, "- N/A -   "
31.06, 1231.11, 0.0519752, NaN, NaN, NaN, 0.03112983, "- N/A -   "
31.07, 1231.47, 0.0519919, NaN, NaN, NaN, 0.03112983, "- N/A -   "
31.08, 1231.83, 0.0520058, NaN, NaN, NaN, 0.03112983, "- N/A -   "
31.09, 1232.3, 0.0520224, NaN, NaN, NaN, 0.03112983, "- N/A -   "
31.1, 1232.66, 0.05203633, NaN, NaN, NaN, 0.0323506, "- N/A -   "
31.11, 1233.02, 0.05205299, NaN, NaN, NaN, 0.0323506, "- N/A -   "
31.12, 1233.5, 0.0520669, NaN, NaN, NaN, 0.0335714, "- N/A -   "
31.13, 1233.62, 0.052078, NaN, NaN, NaN, 0.03601294, "- N/A -   "
31.14, 1233.97, 0.0520891, NaN, NaN, NaN, 0.0384545, "- N/A -   "
31.15, 1234.33, 0.05210297, NaN, NaN, NaN, 0.0396753, "- N/A -   "
31.16, 1234.57, 0.0521169, NaN, NaN, NaN, 0.04089605, "- N/A -   "
31.17, 1235.05, 0.052128, NaN, NaN, NaN, 0.0433376, "- N/A -   "
31.18, 1235.29, 0.0521418, NaN, NaN, NaN, 0.0445584, "- N/A -   "
31.19, 1235.64, 0.0521585, NaN, NaN, NaN, 0.0445584, "- N/A -   "
31.2, 1236.12, 0.0521752, NaN, NaN, NaN, 0.0445584, "- N/A -   "
31.21, 1236.6, 0.0521891, NaN, NaN, NaN, 0.04577916, "- N/A -   "
31.22, 1236.96, 0.0522057, NaN, NaN, NaN, 0.04577916, "- N/A -   "
31.23, 1237.313, 0.0522196, NaN, NaN, NaN, 0.04699994, "- N/A -   "
31.24, 1237.79, 0.052239, NaN, NaN, NaN, 0.04699994, "- N/A -   "
31.25, 1238.267, 0.05225292, NaN, NaN, NaN, 0.04699994, "- N/A -   "
31.26, 1238.62, 0.0522696, NaN, NaN, NaN, 0.0482207, "- N/A -   "
31.27, 1238.98, 0.05228346, NaN, NaN, NaN, 0.0482207, "- N/A -   "
31.28, 1239.46, 0.05230012, NaN, NaN, NaN, 0.0494415, "- N/A -   "
31.29, 1239.94, 0.05231678, NaN, NaN, NaN, 0.0494415, "- N/A -   "
31.3, 1240.41, 0.05233622, NaN, NaN, NaN, 0.0482207, "- N/A -   "
31.31, 1241.01, 0.05235288, NaN, NaN, NaN, 0.04699994, "- N/A -   "
31.32, 1241.37, 0.0523723, NaN, NaN, NaN, 0.04577916, "- N/A -   "
31.33, 1241.96, 0.0523918, NaN, NaN, NaN, 0.0445584, "- N/A -   "
31.34, 1242.56, 0.05241119, NaN, NaN, NaN, 0.0445584, "- N/A -   "
31.35, 1243.037, 0.05243063, NaN, NaN, NaN, 0.0433376, "- N/A -   "
31.36, 1243.63, 0.05245007, NaN, NaN, NaN, 0.04211683, "- N/A -   "
31.37, 1243.99, 0.0524695, NaN, NaN, NaN, 0.04089605, "- N/A -   "
31.38, 1244.59, 0.0524862, NaN, NaN, NaN, 0.0396753, "- N/A -   "
31.39, 1244.95, 0.0525028, NaN, NaN, NaN, 0.0396753, "- N/A -   "
31.4, 1245.42, 0.0525223, NaN, NaN, NaN, 0.0396753, "- N/A -   "
31.41, 1246.02, 0.0525389, NaN, NaN, NaN, 0.0384545, "- N/A -   "
31.42, 1246.5, 0.05255836, NaN, NaN, NaN, 0.0372337, "- N/A -   "
31.43, 1246.97, 0.0525778, NaN, NaN, NaN, 0.03601294, "- N/A -   "
31.44, 1247.45, 0.0525945, NaN, NaN, NaN, 0.03601294, "- N/A -   "
31.45, 1247.93, 0.0526139, NaN, NaN, NaN, 0.0347922, "- N/A -   "
31.46, 1248.4, 0.0526333, NaN, NaN, NaN, 0.0347922, "- N/A -   "
31.47, 1248.88, 0.05265, NaN, NaN, NaN, 0.0335714, "- N/A -   "
31.48, 1249.36, 0.0526667, NaN, NaN, NaN, 0.0347922, "- N/A -   "
31.49, 1249.72, 0.0526805, NaN, NaN, NaN, 0.0347922, "- N/A -   "
31.5, 1250.07, 0.0526972, NaN, NaN, NaN, 0.03601294, "- N/A -   "
31.51, 1250.43, 0.05271108, NaN, NaN, NaN, 0.03601294, "- N/A -   "
31.52, 1250.91, 0.05272774, NaN, NaN, NaN, 0.03601294, "- N/A -   "
31.53, 1251.27, 0.0527444, NaN, NaN, NaN, 0.03601294, "- N/A -   "
31.54, 1251.74, 0.05276106, NaN, NaN, NaN, 0.03601294, "- N/A -   "
31.55, 1252.22, 0.0527805, NaN, NaN, NaN, 0.0347922, "- N/A -   "
31.56, 1252.7, 0.0527999, NaN, NaN, NaN, 0.0347922, "- N/A -   "
31.57, 1253.412, 0.0528166, NaN, NaN, NaN, 0.0335714, "- N/A -   "
31.58, 1253.77, 0.052836, NaN, NaN, NaN, 0.0323506, "- N/A -   "
31.59, 1254.25, 0.0528527, NaN, NaN, NaN, 0.0323506, "- N/A -   "
31.6, 1254.6, 0.0528694, NaN, NaN, NaN, 0.0323506, "- N/A -   "
31.61, 1255.08, 0.052886, NaN, NaN, NaN, 0.0323506, "- N/A -   "
31.62, 1255.56, 0.0529027, NaN, NaN, NaN, 0.0323506, "- N/A -   "
31.625, 1255.68, 0.052911, NaN, NaN, NaN, 0.0323506, "- N/A -   "