File: 2_Tensile_Data/Hamel_ForceTest_Bolt7_Test6.csv
Time, Load (lb), Position (in), AxialStrain (in), TransverseStrain (in), Auxiliary (), Control Out (V), Stress (psi)
0.0, 7.90248, 0.0, NaN, NaN, NaN, -0.007935055, "- N/A -   "
0.01, 7.90248, 0.0, NaN, NaN, NaN, -6.103888E-4, "- N/A -   "
0.02, 7.90248, 0.0, NaN, NaN, NaN, 0.006714277, "- N/A -   "
0.03, 7.90248, 0.0, NaN, NaN, NaN, 0.0213636, "- N/A -   "
0.04, 8.020428, 5.553504E-6, NaN, NaN, NaN, 0.0384545, "- N/A -   "
0.05, 8.138375, 1.38838e-05, NaN, NaN, NaN, 0.0543246, "- N/A -   "
0.06, 8.37427, 2.77675e-05, NaN, NaN, NaN, 0.0689739, "- N/A -   "
0.07, 8.728113, 4.442803E-5, NaN, NaN, NaN, 0.0799609, "- N/A -   "
0.08, 9.081955, 6.94188E-5, NaN, NaN, NaN, 0.0897272, "- N/A -   "
0.09, 9.671693, 9.440956E-5, NaN, NaN, NaN, 0.09705182, "- N/A -   "
0.1, 10.1435, 0.000124954, NaN, NaN, NaN, 0.103156, "- N/A -   "
0.11, 10.73322, 1.554981E-4, NaN, NaN, NaN, 0.09705182, "- N/A -   "
0.12, 11.323, 0.000186042, NaN, NaN, NaN, 0.09094793, "- N/A -   "
0.13, 11.7947, 0.000211033, NaN, NaN, NaN, 0.0872856, "- N/A -   "
0.14, 12.2665, 2.360239E-4, NaN, NaN, NaN, 0.08362327, "- N/A -   "
0.15, 12.6204, 0.000261015, NaN, NaN, NaN, 0.0799609, "- N/A -   "
0.16, 12.9742, 0.000286005, NaN, NaN, NaN, 0.07751938, "- N/A -   "
0.17, 13.446, 0.000308219, NaN, NaN, NaN, 0.0750778, "- N/A -   "
0.18, 13.7999, 0.000330433, NaN, NaN, NaN, 0.07263627, "- N/A -   "
0.19, 14.1537, 0.000352647, NaN, NaN, NaN, 0.0701947, "- N/A -   "
0.2, 14.5075, 0.000372085, NaN, NaN, NaN, 0.06775316, "- N/A -   "
0.21, 14.9793, 0.000391522, NaN, NaN, NaN, 0.06653238, "- N/A -   "
0.22, 15.3332, 4.13736E-4, NaN, NaN, NaN, 0.0640908, "- N/A -   "
0.23, 15.687, 0.00043595, NaN, NaN, NaN, 0.06287005, "- N/A -   "
0.24, 16.0409, 4.553873E-4, NaN, NaN, NaN, 0.0604285, "- N/A -   "
0.25, 16.3947, 4.776013E-4, NaN, NaN, NaN, 0.0592077, "- N/A -   "
0.26, 16.86649, 0.000499815, NaN, NaN, NaN, 0.05676616, "- N/A -   "
0.27, 17.2203, 0.000522029, NaN, NaN, NaN, 0.0543246, "- N/A -   "
0.28, 17.5742, 5.414666E-4, NaN, NaN, NaN, 0.05188305, "- N/A -   "
0.29, 17.928, 5.636806E-4, NaN, NaN, NaN, 0.0494415, "- N/A -   "
0.3, 18.3998, 5.858946E-4, NaN, NaN, NaN, 0.04699994, "- N/A -   "
0.31, 18.6357, 6.053319E-4, NaN, NaN, NaN, 0.04577916, "- N/A -   "
0.32, 19.1075, 0.000624769, NaN, NaN, NaN, 0.0445584, "- N/A -   "
0.33, 19.3434, 0.000646983, NaN, NaN, NaN, 0.0433376, "- N/A -   "
0.34, 19.6972, 6.636437E-4, NaN, NaN, NaN, 0.04211683, "- N/A -   "
0.35, 20.05107, 6.830809E-4, NaN, NaN, NaN, 0.04211683, "- N/A -   "
0.36, 20.4049, 6.997415E-4, NaN, NaN, NaN, 0.04089605, "- N/A -   "
0.37, 20.6408, 7.191787E-4, NaN, NaN, NaN, 0.04089605, "- N/A -   "
0.38, 20.8767, 0.000735839, NaN, NaN, NaN, 0.0396753, "- N/A -   "
0.39, 21.2305, 0.0007525, NaN, NaN, NaN, 0.0396753, "- N/A -   "
0.4, 21.5844, 7.691603E-4, NaN, NaN, NaN, 0.0396753, "- N/A -   "
0.41, 21.93823, 0.000785821, NaN, NaN, NaN, 0.0396753, "- N/A -   "
0.42, 22.0562, 0.000802481, NaN, NaN, NaN, 0.0396753, "- N/A -   "
0.43, 22.528, 8.191418E-4, NaN, NaN, NaN, 0.0396753, "- N/A -   "
0.44, 22.7639, 8.358023E-4, NaN, NaN, NaN, 0.0396753, "- N/A -   "
0.46, 23.3536, 8.691233E-4, NaN, NaN, NaN, 0.0396753, "- N/A -   "
0.48, 23.9433, 0.000899668, NaN, NaN, NaN, 0.04089605, "- N/A -   "
0.5, 24.4151, 9.329886E-4, NaN, NaN, NaN, 0.04089605, "- N/A -   "
0.52, 25.0049, 0.000969086, NaN, NaN, NaN, 0.04089605, "- N/A -   "
0.54, 25.7125, 0.00100518, NaN, NaN, NaN, 0.0396753, "- N/A -   "
0.56, 26.4202, 0.001041282, NaN, NaN, NaN, 0.0372337, "- N/A -   "
0.58, 27.01, 0.00108016, NaN, NaN, NaN, 0.0347922, "- N/A -   "
0.6, 27.8356, 0.001119031, NaN, NaN, NaN, 0.0323506, "- N/A -   "
0.62, 28.42534, 0.00115513, NaN, NaN, NaN, 0.03112983, "- N/A -   "
0.64, 29.0151, 0.00118845, NaN, NaN, NaN, 0.03112983, "- N/A -   "
0.66, 29.84071, 0.00122177, NaN, NaN, NaN, 0.03112983, "- N/A -   "
0.68, 30.3125, 0.00125232, NaN, NaN, NaN, 0.0323506, "- N/A -   "
0.7, 30.9022, 0.00128286, NaN, NaN, NaN, 0.0335714, "- N/A -   "
0.72, 31.492, 0.0013134, NaN, NaN, NaN, 0.0347922, "- N/A -   "
0.74, 31.9638, 0.00134117, NaN, NaN, NaN, 0.0372337, "- N/A -   "
0.76, 32.5535, 0.00136894, NaN, NaN, NaN, 0.0396753, "- N/A -   "
0.78, 33.02529, 0.00139671, NaN, NaN, NaN, 0.04211683, "- N/A -   "
0.8, 33.73298, 0.00142725, NaN, NaN, NaN, 0.0433376, "- N/A -   "
0.82, 34.3227, 0.00145779, NaN, NaN, NaN, 0.0445584, "- N/A -   "
0.84, 34.9125, 0.00148556, NaN, NaN, NaN, 0.04699994, "- N/A -   "
0.86, 35.50219, 0.00151611, NaN, NaN, NaN, 0.0482207, "- N/A -   "
0.88, 36.2099, 0.0015522, NaN, NaN, NaN, 0.04699994, "- N/A -   "
0.9, 37.0355, 0.00159108, NaN, NaN, NaN, 0.0445584, "- N/A -   "
0.92, 37.8611, 0.00163273, NaN, NaN, NaN, 0.04089605, "- N/A -   "
0.94, 38.68677, 0.00167438, NaN, NaN, NaN, 0.0384545, "- N/A -   "
0.96, 39.5124, 0.00171326, NaN, NaN, NaN, 0.03601294, "- N/A -   "
0.98, 40.33803, 0.00174935, NaN, NaN, NaN, 0.0335714, "- N/A -   "
1, 41.04572, 0.00178267, NaN, NaN, NaN, 0.0335714, "- N/A -   "
1.02, 41.6355, 0.001816, NaN, NaN, NaN, 0.0347922, "- N/A -   "
1.04, 42.3431, 0.00184654, NaN, NaN, NaN, 0.03601294, "- N/A -   "
1.06, 42.93288, 0.00187708, NaN, NaN, NaN, 0.03601294, "- N/A -   "
1.08, 43.6406, 0.00191041, NaN, NaN, NaN, 0.03601294, "- N/A -   "
1.1, 44.4662, 0.0019465, NaN, NaN, NaN, 0.0347922, "- N/A -   "
1.12, 45.29183, 0.00198815, NaN, NaN, NaN, 0.03112983, "- N/A -   "
1.14, 46.23541, 0.00202703, NaN, NaN, NaN, 0.0299091, "- N/A -   "
1.16, 46.9431, 0.00206313, NaN, NaN, NaN, 0.0286883, "- N/A -   "
1.18, 47.7687, 0.00209645, NaN, NaN, NaN, 0.0286883, "- N/A -   "
1.2, 48.47641, 0.00212977, NaN, NaN, NaN, 0.0286883, "- N/A -   "
1.22, 49.1841, 0.00216309, NaN, NaN, NaN, 0.0286883, "- N/A -   "
1.24, 49.8918, 0.00219641, NaN, NaN, NaN, 0.0274675, "- N/A -   "
1.26, 50.4815, 0.002226955, NaN, NaN, NaN, 0.0299091, "- N/A -   "
1.28, 51.1892, 0.00225472, NaN, NaN, NaN, 0.03112983, "- N/A -   "
1.3, 51.7789, 0.00228249, NaN, NaN, NaN, 0.0335714, "- N/A -   "
1.32, 52.48662, 0.00231303, NaN, NaN, NaN, 0.0347922, "- N/A -   "
1.34, 53.0764, 0.0023408, NaN, NaN, NaN, 0.0372337, "- N/A -   "
1.36, 53.784, 0.002371346, NaN, NaN, NaN, 0.0384545, "- N/A -   "
1.38, 54.3738, 0.00240189, NaN, NaN, NaN, 0.04089605, "- N/A -   "
1.4, 55.0815, 0.00242966, NaN, NaN, NaN, 0.04211683, "- N/A -   "
1.42, 55.6712, 0.0024602, NaN, NaN, NaN, 0.0445584, "- N/A -   "
1.44, 56.37889, 0.00249075, NaN, NaN, NaN, 0.0445584, "- N/A -   "
1.46, 57.20452, 0.00252407, NaN, NaN, NaN, 0.0445584, "- N/A -   "
1.48, 57.91221, 0.00255739, NaN, NaN, NaN, 0.0445584, "- N/A -   "
1.5, 58.7378, 0.00259349, NaN, NaN, NaN, 0.0445584, "- N/A -   "
1.52, 59.4455, 0.00262681, NaN, NaN, NaN, 0.0433376, "- N/A -   "
1.54, 60.15321, 0.00265735, NaN, NaN, NaN, 0.0445584, "- N/A -   "
1.56, 60.7429, 0.0026879, NaN, NaN, NaN, 0.04577916, "- N/A -   "
1.58, 61.6865, 0.00272399, NaN, NaN, NaN, 0.0445584, "- N/A -   "
1.6, 62.5122, 0.00276009, NaN, NaN, NaN, 0.0433376, "- N/A -   "
1.62, 63.45574, 0.002796189, NaN, NaN, NaN, 0.04211683, "- N/A -   "
1.64, 64.28137, 0.00283506, NaN, NaN, NaN, 0.0396753, "- N/A -   "
1.66, 65.107, 0.00287116, NaN, NaN, NaN, 0.0384545, "- N/A -   "
1.68, 65.93263, 0.00291281, NaN, NaN, NaN, 0.03601294, "- N/A -   "
1.7, 66.99416, 0.002951687, NaN, NaN, NaN, 0.0323506, "- N/A -   "
1.72, 67.81979, 0.00299056, NaN, NaN, NaN, 0.0299091, "- N/A -   "
1.74, 68.6454, 0.00302388, NaN, NaN, NaN, 0.0299091, "- N/A -   "
1.76, 69.35311, 0.003057204, NaN, NaN, NaN, 0.0299091, "- N/A -   "
1.78, 70.17874, 0.00309052, NaN, NaN, NaN, 0.0299091, "- N/A -   "
1.8, 71.00438, 0.00312662, NaN, NaN, NaN, 0.0286883, "- N/A -   "
1.82, 71.71206, 0.00315994, NaN, NaN, NaN, 0.0286883, "- N/A -   "
1.84, 72.41975, 0.003190488, NaN, NaN, NaN, 0.0299091, "- N/A -   "
1.86, 73.00948, 0.00321826, NaN, NaN, NaN, 0.0323506, "- N/A -   "
1.88, 73.71717, 0.0032488, NaN, NaN, NaN, 0.0335714, "- N/A -   "
1.9, 74.5428, 0.003282121, NaN, NaN, NaN, 0.0347922, "- N/A -   "
1.92, 75.25049, 0.003312665, NaN, NaN, NaN, 0.03601294, "- N/A -   "
1.94, 75.95817, 0.00334321, NaN, NaN, NaN, 0.0372337, "- N/A -   "
1.96, 76.6659, 0.00337653, NaN, NaN, NaN, 0.0372337, "- N/A -   "
1.98, 77.6094, 0.003409851, NaN, NaN, NaN, 0.03601294, "- N/A -   "
2, 78.4351, 0.00344317, NaN, NaN, NaN, 0.03601294, "- N/A -   "
2.02, 79.0248, 0.00347649, NaN, NaN, NaN, 0.03601294, "- N/A -   "
2.04, 79.96838, 0.00351259, NaN, NaN, NaN, 0.03601294, "- N/A -   "
2.06, 80.794, 0.00354314, NaN, NaN, NaN, 0.03601294, "- N/A -   "
2.08, 81.5017, 0.00357368, NaN, NaN, NaN, 0.0384545, "- N/A -   "
2.1, 82.09144, 0.00360145, NaN, NaN, NaN, 0.0396753, "- N/A -   "
2.12, 82.68118, 0.00363199, NaN, NaN, NaN, 0.04211683, "- N/A -   "
2.14, 83.50681, 0.00366254, NaN, NaN, NaN, 0.04211683, "- N/A -   "
2.16, 84.09654, 0.00369308, NaN, NaN, NaN, 0.0445584, "- N/A -   "
2.18, 84.92217, 0.00372362, NaN, NaN, NaN, 0.0445584, "- N/A -   "
2.2, 85.62987, 0.00375695, NaN, NaN, NaN, 0.0445584, "- N/A -   "
2.22, 86.57345, 0.00379027, NaN, NaN, NaN, 0.04577916, "- N/A -   "
2.24, 87.39908, 0.00382636, NaN, NaN, NaN, 0.0445584, "- N/A -   "
2.26, 88.34265, 0.00386524, NaN, NaN, NaN, 0.04211683, "- N/A -   "
2.28, 89.28623, 0.00390411, NaN, NaN, NaN, 0.0396753, "- N/A -   "
2.3, 90.22981, 0.00394299, NaN, NaN, NaN, 0.03601294, "- N/A -   "
2.32, 91.1734, 0.003981862, NaN, NaN, NaN, 0.0335714, "- N/A -   "
2.34, 91.99903, 0.00401796, NaN, NaN, NaN, 0.0323506, "- N/A -   "
2.36, 92.94261, 0.00405683, NaN, NaN, NaN, 0.0299091, "- N/A -   "
2.38, 93.76824, 0.00409293, NaN, NaN, NaN, 0.0286883, "- N/A -   "
2.4, 94.47592, 0.00412625, NaN, NaN, NaN, 0.0286883, "- N/A -   "
2.42, 95.18361, 0.0041568, NaN, NaN, NaN, 0.0299091, "- N/A -   "
2.44, 96.00924, 0.004187342, NaN, NaN, NaN, 0.03112983, "- N/A -   "
2.46, 96.71693, 0.004217886, NaN, NaN, NaN, 0.0335714, "- N/A -   "
2.48, 97.30666, 0.00424843, NaN, NaN, NaN, 0.0347922, "- N/A -   "
2.5, 98.01435, 0.00427897, NaN, NaN, NaN, 0.0347922, "- N/A -   "
2.52, 98.83998, 0.00430952, NaN, NaN, NaN, 0.03601294, "- N/A -   "
2.54, 99.66561, 0.004345617, NaN, NaN, NaN, 0.0347922, "- N/A -   "
2.56, 100.491, 0.004381715, NaN, NaN, NaN, 0.0347922, "- N/A -   "
2.58, 101.435, 0.004417812, NaN, NaN, NaN, 0.0323506, "- N/A -   "
2.6, 102.26, 0.004451133, NaN, NaN, NaN, 0.0323506, "- N/A -   "
2.62, 103.204, 0.004487231, NaN, NaN, NaN, 0.03112983, "- N/A -   "
2.64, 103.912, 0.004520552, NaN, NaN, NaN, 0.03112983, "- N/A -   "
2.66, 104.619, 0.004553873, NaN, NaN, NaN, 0.03112983, "- N/A -   "
2.68, 105.327, 0.004584417, NaN, NaN, NaN, 0.0323506, "- N/A -   "
2.7, 105.917, 0.004612185, NaN, NaN, NaN, 0.0347922, "- N/A -   "
2.72, 106.742, 0.004642729, NaN, NaN, NaN, 0.03601294, "- N/A -   "
2.74, 107.45, 0.004670497, NaN, NaN, NaN, 0.0384545, "- N/A -   "
2.76, 108.158, 0.004701041, NaN, NaN, NaN, 0.0396753, "- N/A -   "
2.78, 108.866, 0.00473159, NaN, NaN, NaN, 0.04089605, "- N/A -   "
2.8, 109.3373, 0.004759353, NaN, NaN, NaN, 0.0433376, "- N/A -   "
2.82, 110.163, 0.004792674, NaN, NaN, NaN, 0.0433376, "- N/A -   "
2.84, 110.989, 0.004825995, NaN, NaN, NaN, 0.0433376, "- N/A -   "
2.86, 111.8142, 0.00486209, NaN, NaN, NaN, 0.0433376, "- N/A -   "
2.88, 112.64, 0.00489541, NaN, NaN, NaN, 0.04211683, "- N/A -   "
2.9, 113.465, 0.004928735, NaN, NaN, NaN, 0.04211683, "- N/A -   "
2.92, 114.173, 0.004964832, NaN, NaN, NaN, 0.04211683, "- N/A -   "
2.94, 115.117, 0.00500093, NaN, NaN, NaN, 0.04089605, "- N/A -   "
2.96, 115.942, 0.005034251, NaN, NaN, NaN, 0.0396753, "- N/A -   "
2.98, 116.768, 0.005070349, NaN, NaN, NaN, 0.0384545, "- N/A -   "
3, 117.712, 0.00510922, NaN, NaN, NaN, 0.03601294, "- N/A -   "
3.02, 118.655, 0.00514254, NaN, NaN, NaN, 0.03601294, "- N/A -   "
3.04, 119.363, 0.00517864, NaN, NaN, NaN, 0.03601294, "- N/A -   "
3.06, 120.188, 0.00521196, NaN, NaN, NaN, 0.03601294, "- N/A -   "
3.08, 121.014, 0.005245284, NaN, NaN, NaN, 0.0347922, "- N/A -   "
3.1, 121.722, 0.00528138, NaN, NaN, NaN, 0.0347922, "- N/A -   "
3.12, 122.547, 0.005314703, NaN, NaN, NaN, 0.0335714, "- N/A -   "
3.14, 123.491, 0.005350801, NaN, NaN, NaN, 0.0323506, "- N/A -   "
3.16, 124.199, 0.0053869, NaN, NaN, NaN, 0.03112983, "- N/A -   "
3.18, 125.142, 0.005423, NaN, NaN, NaN, 0.0299091, "- N/A -   "
3.2, 125.9679, 0.00545632, NaN, NaN, NaN, 0.0299091, "- N/A -   "
3.22, 126.676, 0.005486862, NaN, NaN, NaN, 0.03112983, "- N/A -   "
3.24, 127.265, 0.005514629, NaN, NaN, NaN, 0.0335714, "- N/A -   "
3.26, 127.973, 0.00554795, NaN, NaN, NaN, 0.0347922, "- N/A -   "
3.28, 128.799, 0.00557849, NaN, NaN, NaN, 0.0347922, "- N/A -   "
3.3, 129.506, 0.00561182, NaN, NaN, NaN, 0.0347922, "- N/A -   "
3.32, 130.332, 0.00564514, NaN, NaN, NaN, 0.0347922, "- N/A -   "
3.34, 131.04, 0.00567846, NaN, NaN, NaN, 0.0347922, "- N/A -   "
3.36, 131.629, 0.00571456, NaN, NaN, NaN, 0.0347922, "- N/A -   "
3.38, 132.455, 0.0057451, NaN, NaN, NaN, 0.0347922, "- N/A -   "
3.4, 133.399, 0.00578397, NaN, NaN, NaN, 0.0335714, "- N/A -   "
3.42, 134.224, 0.0058173, NaN, NaN, NaN, 0.0335714, "- N/A -   "
3.44, 134.932, 0.00584784, NaN, NaN, NaN, 0.0335714, "- N/A -   "
3.46, 135.522, 0.00587838, NaN, NaN, NaN, 0.03601294, "- N/A -   "
3.48, 136.111, 0.00590615, NaN, NaN, NaN, 0.0372337, "- N/A -   "
3.5, 136.937, 0.005933919, NaN, NaN, NaN, 0.0396753, "- N/A -   "
3.52, 137.527, 0.00596724, NaN, NaN, NaN, 0.0396753, "- N/A -   "
3.54, 138.352, 0.00600056, NaN, NaN, NaN, 0.0396753, "- N/A -   "
3.56, 139.06, 0.006033882, NaN, NaN, NaN, 0.04089605, "- N/A -   "
3.58, 139.768, 0.006064426, NaN, NaN, NaN, 0.04089605, "- N/A -   "
3.6, 140.593, 0.006097747, NaN, NaN, NaN, 0.04211683, "- N/A -   "
3.62, 141.419, 0.00612829, NaN, NaN, NaN, 0.0433376, "- N/A -   "
3.64, 142.3626, 0.006164389, NaN, NaN, NaN, 0.0433376, "- N/A -   "
3.66, 142.952, 0.00619771, NaN, NaN, NaN, 0.0433376, "- N/A -   "
3.68, 143.66, 0.006231031, NaN, NaN, NaN, 0.04211683, "- N/A -   "
3.7, 144.604, 0.006267129, NaN, NaN, NaN, 0.04089605, "- N/A -   "
3.72, 145.547, 0.00630878, NaN, NaN, NaN, 0.0372337, "- N/A -   "
3.74, 146.3728, 0.006344878, NaN, NaN, NaN, 0.03601294, "- N/A -   "
3.76, 147.0805, 0.006383753, NaN, NaN, NaN, 0.0347922, "- N/A -   "
3.78, 148.024, 0.006417074, NaN, NaN, NaN, 0.0335714, "- N/A -   "
3.8, 148.732, 0.00645317, NaN, NaN, NaN, 0.0335714, "- N/A -   "
3.82, 149.557, 0.006483716, NaN, NaN, NaN, 0.0335714, "- N/A -   "
3.84, 150.147, 0.006517037, NaN, NaN, NaN, 0.0347922, "- N/A -   "
3.86, 150.737, 0.006547581, NaN, NaN, NaN, 0.0347922, "- N/A -   "
3.88, 151.5625, 0.0065809, NaN, NaN, NaN, 0.0347922, "- N/A -   "
3.9, 152.388, 0.006614223, NaN, NaN, NaN, 0.0347922, "- N/A -   "
3.92, 153.096, 0.006650321, NaN, NaN, NaN, 0.0335714, "- N/A -   "
3.94, 153.921, 0.006689195, NaN, NaN, NaN, 0.0323506, "- N/A -   "
3.96, 154.747, 0.006725293, NaN, NaN, NaN, 0.03112983, "- N/A -   "
3.98, 155.573, 0.006761391, NaN, NaN, NaN, 0.0286883, "- N/A -   "
4, 156.398, 0.006797489, NaN, NaN, NaN, 0.0274675, "- N/A -   "
4.02, 157.106, 0.006828033, NaN, NaN, NaN, 0.0286883, "- N/A -   "
4.04, 157.578, 0.00685858, NaN, NaN, NaN, 0.0299091, "- N/A -   "
4.06, 158.2855, 0.006886345, NaN, NaN, NaN, 0.0323506, "- N/A -   "
4.08, 158.7573, 0.006916889, NaN, NaN, NaN, 0.0335714, "- N/A -   "
4.1, 159.465, 0.00694466, NaN, NaN, NaN, 0.03601294, "- N/A -   "
4.12, 160.055, 0.006972424, NaN, NaN, NaN, 0.0384545, "- N/A -   "
4.14, 160.5265, 0.00700019, NaN, NaN, NaN, 0.04211683, "- N/A -   "
4.16, 161.116, 0.00702796, NaN, NaN, NaN, 0.0433376, "- N/A -   "
4.18, 161.706, 0.00705573, NaN, NaN, NaN, 0.04577916, "- N/A -   "
4.2, 162.296, 0.00708905, NaN, NaN, NaN, 0.04699994, "- N/A -   "
4.22, 163.0034, 0.00711682, NaN, NaN, NaN, 0.0482207, "- N/A -   "
4.24, 163.829, 0.007152913, NaN, NaN, NaN, 0.0482207, "- N/A -   "
4.26, 164.537, 0.00718623, NaN, NaN, NaN, 0.04699994, "- N/A -   "
4.28, 165.2444, 0.00721956, NaN, NaN, NaN, 0.04699994, "- N/A -   "
4.3, 165.952, 0.00725565, NaN, NaN, NaN, 0.04577916, "- N/A -   "
4.32, 166.778, 0.00729175, NaN, NaN, NaN, 0.0445584, "- N/A -   "
4.34, 167.485, 0.00732785, NaN, NaN, NaN, 0.0433376, "- N/A -   "
4.36, 168.429, 0.007366723, NaN, NaN, NaN, 0.04089605, "- N/A -   "
4.38, 169.255, 0.0074056, NaN, NaN, NaN, 0.0396753, "- N/A -   "
4.4, 169.962, 0.0074417, NaN, NaN, NaN, 0.0372337, "- N/A -   "
4.42, 170.788, 0.00748057, NaN, NaN, NaN, 0.0347922, "- N/A -   "
4.44, 171.614, 0.00751667, NaN, NaN, NaN, 0.0335714, "- N/A -   "
4.46, 172.321, 0.00754999, NaN, NaN, NaN, 0.0335714, "- N/A -   "
4.48, 172.911, 0.00758331, NaN, NaN, NaN, 0.0347922, "- N/A -   "
4.5, 173.501, 0.00761663, NaN, NaN, NaN, 0.0347922, "- N/A -   "
4.52, 174.4443, 0.00765273, NaN, NaN, NaN, 0.0323506, "- N/A -   "
4.54, 175.152, 0.007688826, NaN, NaN, NaN, 0.03112983, "- N/A -   "
4.56, 175.978, 0.007724924, NaN, NaN, NaN, 0.0299091, "- N/A -   "
4.58, 176.6853, 0.00776102, NaN, NaN, NaN, 0.0286883, "- N/A -   "
4.6, 177.393, 0.00779157, NaN, NaN, NaN, 0.0299091, "- N/A -   "
4.62, 178.1007, 0.007827664, NaN, NaN, NaN, 0.0286883, "- N/A -   "
4.64, 178.69, 0.007858207, NaN, NaN, NaN, 0.0299091, "- N/A -   "
4.66, 179.3981, 0.007891529, NaN, NaN, NaN, 0.0299091, "- N/A -   "
4.68, 180.106, 0.007922073, NaN, NaN, NaN, 0.03112983, "- N/A -   "
4.7, 180.578, 0.00795262, NaN, NaN, NaN, 0.0323506, "- N/A -   "
4.72, 181.285, 0.007983162, NaN, NaN, NaN, 0.0335714, "- N/A -   "
4.74, 181.875, 0.008013706, NaN, NaN, NaN, 0.0347922, "- N/A -   "
4.76, 182.583, 0.00804425, NaN, NaN, NaN, 0.0372337, "- N/A -   "
4.78, 183.054, 0.008072018, NaN, NaN, NaN, 0.0384545, "- N/A -   "
4.8, 183.644, 0.008099785, NaN, NaN, NaN, 0.04089605, "- N/A -   "
4.82, 184.234, 0.008133106, NaN, NaN, NaN, 0.04211683, "- N/A -   "
4.84, 184.942, 0.00816365, NaN, NaN, NaN, 0.04211683, "- N/A -   "
4.86, 185.649, 0.008194195, NaN, NaN, NaN, 0.0433376, "- N/A -   "
4.88, 186.357, 0.008227516, NaN, NaN, NaN, 0.0433376, "- N/A -   "
4.9, 186.947, 0.008260837, NaN, NaN, NaN, 0.0433376, "- N/A -   "
4.92, 187.654, 0.008294158, NaN, NaN, NaN, 0.0433376, "- N/A -   "
4.94, 188.48, 0.008330256, NaN, NaN, NaN, 0.0433376, "- N/A -   "
4.96, 189.188, 0.0083608, NaN, NaN, NaN, 0.0433376, "- N/A -   "
4.98, 189.777, 0.008396898, NaN, NaN, NaN, 0.0433376, "- N/A -   "
5, 190.485, 0.008430219, NaN, NaN, NaN, 0.04211683, "- N/A -   "
5.02, 191.311, 0.00846354, NaN, NaN, NaN, 0.04211683, "- N/A -   "
5.04, 192.018, 0.008499637, NaN, NaN, NaN, 0.04089605, "- N/A -   "
5.06, 192.726, 0.00853851, NaN, NaN, NaN, 0.0384545, "- N/A -   "
5.08, 193.5518, 0.008574611, NaN, NaN, NaN, 0.0372337, "- N/A -   "
5.1, 194.495, 0.008616261, NaN, NaN, NaN, 0.0335714, "- N/A -   "
5.12, 195.321, 0.00865514, NaN, NaN, NaN, 0.03112983, "- N/A -   "
5.14, 196.147, 0.008694011, NaN, NaN, NaN, 0.0286883, "- N/A -   "
5.16, 196.854, 0.008730108, NaN, NaN, NaN, 0.0286883, "- N/A -   "
5.18, 197.562, 0.00876343, NaN, NaN, NaN, 0.0286883, "- N/A -   "
5.2, 198.152, 0.008793973, NaN, NaN, NaN, 0.0299091, "- N/A -   "
5.22, 198.977, 0.008824518, NaN, NaN, NaN, 0.0299091, "- N/A -   "
5.24, 199.449, 0.008855062, NaN, NaN, NaN, 0.03112983, "- N/A -   "
5.26, 200.157, 0.008888382, NaN, NaN, NaN, 0.0323506, "- N/A -   "
5.28, 200.865, 0.008921703, NaN, NaN, NaN, 0.0323506, "- N/A -   "
5.3, 201.454, 0.008952249, NaN, NaN, NaN, 0.0323506, "- N/A -   "
5.32, 202.162, 0.00898557, NaN, NaN, NaN, 0.0323506, "- N/A -   "
5.34, 202.87, 0.009016113, NaN, NaN, NaN, 0.0347922, "- N/A -   "
5.36, 203.459, 0.009049434, NaN, NaN, NaN, 0.0347922, "- N/A -   "
5.38, 204.167, 0.009082756, NaN, NaN, NaN, 0.0335714, "- N/A -   "
5.4, 204.875, 0.009116077, NaN, NaN, NaN, 0.0335714, "- N/A -   "
5.42, 205.7, 0.009149398, NaN, NaN, NaN, 0.0335714, "- N/A -   "
5.44, 206.29, 0.009182719, NaN, NaN, NaN, 0.0335714, "- N/A -   "
5.46, 206.88, 0.009210486, NaN, NaN, NaN, 0.03601294, "- N/A -   "
5.48, 207.4696, 0.009238253, NaN, NaN, NaN, 0.0384545, "- N/A -   "
5.5, 208.059, 0.009268798, NaN, NaN, NaN, 0.0396753, "- N/A -   "
5.52, 208.649, 0.009299342, NaN, NaN, NaN, 0.04211683, "- N/A -   "
5.54, 209.239, 0.009329887, NaN, NaN, NaN, 0.04211683, "- N/A -   "
5.56, 209.946, 0.009360431, NaN, NaN, NaN, 0.0433376, "- N/A -   "
5.58, 210.536, 0.009390975, NaN, NaN, NaN, 0.0445584, "- N/A -   "
5.6, 211.244, 0.009424296, NaN, NaN, NaN, 0.0445584, "- N/A -   "
5.62, 211.9516, 0.00945484, NaN, NaN, NaN, 0.04577916, "- N/A -   "
5.64, 212.6593, 0.009490938, NaN, NaN, NaN, 0.04577916, "- N/A -   "
5.66, 213.367, 0.00952148, NaN, NaN, NaN, 0.04577916, "- N/A -   "
5.68, 214.311, 0.009563134, NaN, NaN, NaN, 0.04211683, "- N/A -   "
5.7, 215.254, 0.009602008, NaN, NaN, NaN, 0.0396753, "- N/A -   "
5.72, 216.08, 0.009640883, NaN, NaN, NaN, 0.0384545, "- N/A -   "
5.74, 216.787, 0.00967698, NaN, NaN, NaN, 0.03601294, "- N/A -   "
5.76, 217.613, 0.009715854, NaN, NaN, NaN, 0.0335714, "- N/A -   "
5.78, 218.4387, 0.009751952, NaN, NaN, NaN, 0.0323506, "- N/A -   "
5.8, 219.264, 0.009790827, NaN, NaN, NaN, 0.03112983, "- N/A -   "
5.82, 219.8541, 0.009824148, NaN, NaN, NaN, 0.03112983, "- N/A -   "
5.84, 220.444, 0.009854692, NaN, NaN, NaN, 0.03112983, "- N/A -   "
5.86, 221.152, 0.009885237, NaN, NaN, NaN, 0.0323506, "- N/A -   "
5.88, 221.741, 0.00991578, NaN, NaN, NaN, 0.0335714, "- N/A -   "
5.9, 222.331, 0.009946325, NaN, NaN, NaN, 0.0347922, "- N/A -   "
5.92, 222.921, 0.00997687, NaN, NaN, NaN, 0.03601294, "- N/A -   "
5.94, 223.746, 0.01001019, NaN, NaN, NaN, 0.0372337, "- N/A -   "
5.96, 224.454, 0.0100435, NaN, NaN, NaN, 0.03601294, "- N/A -   "
5.98, 225.28, 0.0100796, NaN, NaN, NaN, 0.0347922, "- N/A -   "
6, 225.987, 0.0101157, NaN, NaN, NaN, 0.0335714, "- N/A -   "
6.02, 226.695, 0.0101518, NaN, NaN, NaN, 0.0335714, "- N/A -   "
6.04, 227.403, 0.0101823, NaN, NaN, NaN, 0.0335714, "- N/A -   "
6.06, 228.11, 0.0102157, NaN, NaN, NaN, 0.0335714, "- N/A -   "
6.08, 228.7, 0.0102462, NaN, NaN, NaN, 0.0347922, "- N/A -   "
6.1, 229.408, 0.0102795, NaN, NaN, NaN, 0.0347922, "- N/A -   "
6.12, 229.998, 0.0103101, NaN, NaN, NaN, 0.03601294, "- N/A -   "
6.14, 230.587, 0.0103406, NaN, NaN, NaN, 0.0372337, "- N/A -   "
6.16, 231.295, 0.0103712, NaN, NaN, NaN, 0.0384545, "- N/A -   "
6.18, 231.885, 0.0104017, NaN, NaN, NaN, 0.0396753, "- N/A -   "
6.2, 232.474, 0.0104323, NaN, NaN, NaN, 0.04089605, "- N/A -   "
6.22, 233.182, 0.0104656, NaN, NaN, NaN, 0.04089605, "- N/A -   "
6.24, 233.89, 0.0104989, NaN, NaN, NaN, 0.04089605, "- N/A -   "
6.26, 234.715, 0.0105322, NaN, NaN, NaN, 0.04089605, "- N/A -   "
6.28, 235.423, 0.0105655, NaN, NaN, NaN, 0.04089605, "- N/A -   "
6.3, 236.249, 0.0106044, NaN, NaN, NaN, 0.0396753, "- N/A -   "
6.32, 236.839, 0.0106377, NaN, NaN, NaN, 0.0396753, "- N/A -   "
6.34, 237.5462, 0.0106711, NaN, NaN, NaN, 0.0396753, "- N/A -   "
6.36, 238.254, 0.0107044, NaN, NaN, NaN, 0.0384545, "- N/A -   "
6.38, 239.08, 0.0107405, NaN, NaN, NaN, 0.0372337, "- N/A -   "
6.4, 239.787, 0.0107738, NaN, NaN, NaN, 0.0372337, "- N/A -   "
6.42, 240.495, 0.0108071, NaN, NaN, NaN, 0.0384545, "- N/A -   "
6.44, 241.085, 0.0108404, NaN, NaN, NaN, 0.0384545, "- N/A -   "
6.46, 241.792, 0.010871, NaN, NaN, NaN, 0.0384545, "- N/A -   "
6.48, 242.5, 0.0109043, NaN, NaN, NaN, 0.0384545, "- N/A -   "
6.5, 243.207, 0.0109376, NaN, NaN, NaN, 0.0384545, "- N/A -   "
6.52, 243.914, 0.0109737, NaN, NaN, NaN, 0.0384545, "- N/A -   "
6.54, 244.7387, 0.0110098, NaN, NaN, NaN, 0.03601294, "- N/A -   "
6.56, 245.563, 0.0110459, NaN, NaN, NaN, 0.0347922, "- N/A -   "
6.58, 246.27, 0.011082, NaN, NaN, NaN, 0.0335714, "- N/A -   "
6.6, 246.9774, 0.0111181, NaN, NaN, NaN, 0.0335714, "- N/A -   "
6.62, 247.684, 0.0111487, NaN, NaN, NaN, 0.0335714, "- N/A -   "
6.64, 248.3913, 0.011182, NaN, NaN, NaN, 0.0335714, "- N/A -   "
6.66, 249.216, 0.0112181, NaN, NaN, NaN, 0.0323506, "- N/A -   "
6.68, 249.805, 0.0112542, NaN, NaN, NaN, 0.0323506, "- N/A -   "
6.7, 250.63, 0.0112903, NaN, NaN, NaN, 0.03112983, "- N/A -   "
6.72, 251.337, 0.0113208, NaN, NaN, NaN, 0.0323506, "- N/A -   "
6.74, 251.926, 0.0113486, NaN, NaN, NaN, 0.0335714, "- N/A -   "
6.76, 252.751, 0.0113875, NaN, NaN, NaN, 0.03112983, "- N/A -   "
6.78, 253.458, 0.01142078, NaN, NaN, NaN, 0.03112983, "- N/A -   "
6.8, 254.047, 0.0114541, NaN, NaN, NaN, 0.03112983, "- N/A -   "
6.82, 254.7539, 0.0114874, NaN, NaN, NaN, 0.03112983, "- N/A -   "
6.84, 255.461, 0.011518, NaN, NaN, NaN, 0.0323506, "- N/A -   "
6.86, 256.168, 0.01154851, NaN, NaN, NaN, 0.0335714, "- N/A -   "
6.88, 256.639, 0.0115763, NaN, NaN, NaN, 0.03601294, "- N/A -   "
6.9, 257.228, 0.0116068, NaN, NaN, NaN, 0.0384545, "- N/A -   "
6.92, 257.9352, 0.01163459, NaN, NaN, NaN, 0.0396753, "- N/A -   "
6.94, 258.642, 0.0116679, NaN, NaN, NaN, 0.0396753, "- N/A -   "
6.96, 259.231, 0.0116985, NaN, NaN, NaN, 0.04089605, "- N/A -   "
6.98, 259.7026, 0.011729, NaN, NaN, NaN, 0.04211683, "- N/A -   "
7, 260.41, 0.01176232, NaN, NaN, NaN, 0.0433376, "- N/A -   "
7.02, 261.117, 0.0117929, NaN, NaN, NaN, 0.0445584, "- N/A -   "
7.04, 261.8235, 0.0118234, NaN, NaN, NaN, 0.0445584, "- N/A -   "
7.06, 262.648, 0.0118595, NaN, NaN, NaN, 0.0445584, "- N/A -   "
7.08, 263.473, 0.0118928, NaN, NaN, NaN, 0.0433376, "- N/A -   "
7.1, 264.18, 0.0119289, NaN, NaN, NaN, 0.04211683, "- N/A -   "
7.12, 264.887, 0.0119678, NaN, NaN, NaN, 0.0396753, "- N/A -   "
7.14, 265.9474, 0.0120067, NaN, NaN, NaN, 0.0372337, "- N/A -   "
7.16, 266.7722, 0.0120455, NaN, NaN, NaN, 0.0347922, "- N/A -   "
7.18, 267.597, 0.0120844, NaN, NaN, NaN, 0.0323506, "- N/A -   "
7.2, 268.422, 0.0121205, NaN, NaN, NaN, 0.0323506, "- N/A -   "
7.22, 269.011, 0.0121511, NaN, NaN, NaN, 0.0323506, "- N/A -   "
7.24, 269.7178, 0.0121844, NaN, NaN, NaN, 0.0323506, "- N/A -   "
7.26, 270.425, 0.0122149, NaN, NaN, NaN, 0.0335714, "- N/A -   "
7.28, 271.014, 0.0122483, NaN, NaN, NaN, 0.0335714, "- N/A -   "
7.3, 271.7209, 0.0122816, NaN, NaN, NaN, 0.0335714, "- N/A -   "
7.32, 272.428, 0.0123149, NaN, NaN, NaN, 0.0335714, "- N/A -   "
7.34, 273.253, 0.012351, NaN, NaN, NaN, 0.0335714, "- N/A -   "
7.36, 274.0774, 0.01238709, NaN, NaN, NaN, 0.03112983, "- N/A -   "
7.38, 274.9022, 0.012426, NaN, NaN, NaN, 0.0299091, "- N/A -   "
7.4, 275.609, 0.0124565, NaN, NaN, NaN, 0.0299091, "- N/A -   "
7.42, 276.3161, 0.0124871, NaN, NaN, NaN, 0.03112983, "- N/A -   "
7.44, 277.023, 0.01252315, NaN, NaN, NaN, 0.03112983, "- N/A -   "
7.46, 277.73, 0.0125537, NaN, NaN, NaN, 0.03112983, "- N/A -   "
7.48, 278.319, 0.0125842, NaN, NaN, NaN, 0.0323506, "- N/A -   "
7.5, 278.908, 0.012612, NaN, NaN, NaN, 0.0347922, "- N/A -   "
7.52, 279.497, 0.01264255, NaN, NaN, NaN, 0.03601294, "- N/A -   "
7.54, 280.087, 0.0126731, NaN, NaN, NaN, 0.0372337, "- N/A -   "
7.56, 280.676, 0.0127009, NaN, NaN, NaN, 0.0396753, "- N/A -   "
7.58, 281.3826, 0.0127314, NaN, NaN, NaN, 0.04211683, "- N/A -   "
7.6, 282.09, 0.0127592, NaN, NaN, NaN, 0.0433376, "- N/A -   "
7.62, 282.561, 0.0127869, NaN, NaN, NaN, 0.04577916, "- N/A -   "
7.64, 283.15, 0.0128175, NaN, NaN, NaN, 0.04699994, "- N/A -   "
7.66, 283.857, 0.0128508, NaN, NaN, NaN, 0.0482207, "- N/A -   "
7.68, 284.682, 0.0128841, NaN, NaN, NaN, 0.04699994, "- N/A -   "
7.7, 285.624, 0.0129174, NaN, NaN, NaN, 0.04699994, "- N/A -   "
7.72, 286.3313, 0.0129619, NaN, NaN, NaN, 0.0433376, "- N/A -   "
7.74, 287.274, 0.0130008, NaN, NaN, NaN, 0.0396753, "- N/A -   "
7.76, 288.217, 0.0130396, NaN, NaN, NaN, 0.0384545, "- N/A -   "
7.78, 288.9235, 0.0130757, NaN, NaN, NaN, 0.03601294, "- N/A -   "
7.8, 289.748, 0.013109, NaN, NaN, NaN, 0.03601294, "- N/A -   "
7.82, 290.4552, 0.0131479, NaN, NaN, NaN, 0.0335714, "- N/A -   "
7.84, 291.28, 0.0131785, NaN, NaN, NaN, 0.0347922, "- N/A -   "
7.86, 291.987, 0.0132118, NaN, NaN, NaN, 0.0347922, "- N/A -   "
7.88, 292.576, 0.0132451, NaN, NaN, NaN, 0.0347922, "- N/A -   "
7.9, 293.401, 0.0132812, NaN, NaN, NaN, 0.0335714, "- N/A -   "
7.92, 294.226, 0.0133173, NaN, NaN, NaN, 0.0323506, "- N/A -   "
7.94, 295.05, 0.013359, NaN, NaN, NaN, 0.0299091, "- N/A -   "
7.96, 295.993, 0.0133951, NaN, NaN, NaN, 0.0274675, "- N/A -   "
7.98, 296.8178, 0.0134284, NaN, NaN, NaN, 0.0274675, "- N/A -   "
8, 297.407, 0.0134617, NaN, NaN, NaN, 0.0286883, "- N/A -   "
8.02, 298.114, 0.013495, NaN, NaN, NaN, 0.0274675, "- N/A -   "
8.04, 298.821, 0.0135283, NaN, NaN, NaN, 0.0286883, "- N/A -   "
8.06, 299.528, 0.0135617, NaN, NaN, NaN, 0.0286883, "- N/A -   "
8.08, 300.353, 0.013595, NaN, NaN, NaN, 0.0286883, "- N/A -   "
8.1, 300.9417, 0.0136255, NaN, NaN, NaN, 0.0299091, "- N/A -   "
8.12, 301.531, 0.0136533, NaN, NaN, NaN, 0.03112983, "- N/A -   "
8.14, 302.238, 0.0136838, NaN, NaN, NaN, 0.0335714, "- N/A -   "
8.16, 302.827, 0.0137116, NaN, NaN, NaN, 0.0372337, "- N/A -   "
8.18, 303.416, 0.0137394, NaN, NaN, NaN, 0.0384545, "- N/A -   "
8.2, 304.123, 0.0137699, NaN, NaN, NaN, 0.04089605, "- N/A -   "
8.22, 304.594, 0.0137949, NaN, NaN, NaN, 0.0433376, "- N/A -   "
8.24, 305.183, 0.0138254, NaN, NaN, NaN, 0.0445584, "- N/A -   "
8.26, 306.008, 0.013856, NaN, NaN, NaN, 0.04577916, "- N/A -   "
8.28, 306.833, 0.0138949, NaN, NaN, NaN, 0.0445584, "- N/A -   "
8.3, 307.658, 0.0139282, NaN, NaN, NaN, 0.0433376, "- N/A -   "
8.32, 308.4826, 0.0139643, NaN, NaN, NaN, 0.04211683, "- N/A -   "
8.34, 309.19, 0.0139976, NaN, NaN, NaN, 0.0433376, "- N/A -   "
8.36, 309.8965, 0.0140309, NaN, NaN, NaN, 0.0433376, "- N/A -   "
8.38, 310.603, 0.0140615, NaN, NaN, NaN, 0.0433376, "- N/A -   "
8.4, 311.31, 0.0140976, NaN, NaN, NaN, 0.04211683, "- N/A -   "
8.42, 312.253, 0.0141309, NaN, NaN, NaN, 0.04211683, "- N/A -   "
8.44, 313.078, 0.014167, NaN, NaN, NaN, 0.04089605, "- N/A -   "
8.46, 313.7848, 0.0142059, NaN, NaN, NaN, 0.0396753, "- N/A -   "
8.48, 314.7274, 0.0142392, NaN, NaN, NaN, 0.0384545, "- N/A -   "
8.5, 315.552, 0.0142781, NaN, NaN, NaN, 0.03601294, "- N/A -   "
8.52, 316.377, 0.0143197, NaN, NaN, NaN, 0.0323506, "- N/A -   "
8.54, 317.4374, 0.0143586, NaN, NaN, NaN, 0.03112983, "- N/A -   "
8.56, 318.144, 0.0143947, NaN, NaN, NaN, 0.0286883, "- N/A -   "
8.58, 319.205, 0.0144308, NaN, NaN, NaN, 0.0274675, "- N/A -   "
8.6, 319.6761, 0.0144641, NaN, NaN, NaN, 0.0274675, "- N/A -   "
8.62, 320.383, 0.0144974, NaN, NaN, NaN, 0.0286883, "- N/A -   "
8.64, 321.208, 0.0145307, NaN, NaN, NaN, 0.0286883, "- N/A -   "
8.66, 321.915, 0.0145613, NaN, NaN, NaN, 0.0286883, "- N/A -   "
8.68, 322.5039, 0.0145891, NaN, NaN, NaN, 0.03112983, "- N/A -   "
8.7, 323.093, 0.0146168, NaN, NaN, NaN, 0.0335714, "- N/A -   "
8.72, 323.8, 0.0146474, NaN, NaN, NaN, 0.03601294, "- N/A -   "
8.74, 324.625, 0.0146807, NaN, NaN, NaN, 0.0347922, "- N/A -   "
8.76, 325.332, 0.0147112, NaN, NaN, NaN, 0.03601294, "- N/A -   "
8.78, 326.0387, 0.0147418, NaN, NaN, NaN, 0.0372337, "- N/A -   "
8.8, 326.746, 0.0147751, NaN, NaN, NaN, 0.0372337, "- N/A -   "
8.82, 327.57, 0.0148084, NaN, NaN, NaN, 0.0372337, "- N/A -   "
8.84, 328.277, 0.0148417, NaN, NaN, NaN, 0.0372337, "- N/A -   "
8.86, 328.984, 0.01487506, NaN, NaN, NaN, 0.0384545, "- N/A -   "
8.88, 329.6913, 0.0149056, NaN, NaN, NaN, 0.0384545, "- N/A -   "
8.9, 330.28, 0.0149361, NaN, NaN, NaN, 0.0396753, "- N/A -   "
8.92, 330.987, 0.0149639, NaN, NaN, NaN, 0.04211683, "- N/A -   "
8.94, 331.812, 0.0149917, NaN, NaN, NaN, 0.0445584, "- N/A -   "
8.96, 332.519, 0.01502778, NaN, NaN, NaN, 0.0433376, "- N/A -   "
8.98, 333.226, 0.0150611, NaN, NaN, NaN, 0.0433376, "- N/A -   "
9, 334.051, 0.0150944, NaN, NaN, NaN, 0.0445584, "- N/A -   "
9.02, 334.758, 0.015125, NaN, NaN, NaN, 0.0445584, "- N/A -   "
9.04, 335.465, 0.0151583, NaN, NaN, NaN, 0.0445584, "- N/A -   "
9.06, 336.172, 0.01519161, NaN, NaN, NaN, 0.0445584, "- N/A -   "
9.08, 337.114, 0.0152305, NaN, NaN, NaN, 0.0433376, "- N/A -   "
9.1, 338.057, 0.0152694, NaN, NaN, NaN, 0.0396753, "- N/A -   "
9.11, 338.6461, 0.0152888, NaN, NaN, NaN, 0.0384545, "- N/A -   "
9.12, 339, 0.0153082, NaN, NaN, NaN, 0.0372337, "- N/A -   "
9.13, 339.353, 0.0153304, NaN, NaN, NaN, 0.0347922, "- N/A -   "
9.14, 339.824, 0.0153499, NaN, NaN, NaN, 0.0347922, "- N/A -   "
9.15, 340.413, 0.0153693, NaN, NaN, NaN, 0.0335714, "- N/A -   "
9.16, 340.6491, 0.0153888, NaN, NaN, NaN, 0.0323506, "- N/A -   "
9.17, 341.238, 0.0154054, NaN, NaN, NaN, 0.03112983, "- N/A -   "
9.18, 341.592, 0.0154249, NaN, NaN, NaN, 0.03112983, "- N/A -   "
9.19, 341.945, 0.0154415, NaN, NaN, NaN, 0.03112983, "- N/A -   "
9.2, 342.299, 0.0154554, NaN, NaN, NaN, 0.03112983, "- N/A -   "
9.21, 342.652, 0.01547206, NaN, NaN, NaN, 0.03112983, "- N/A -   "
9.22, 343.006, 0.0154887, NaN, NaN, NaN, 0.03112983, "- N/A -   "
9.23, 343.477, 0.0155026, NaN, NaN, NaN, 0.0323506, "- N/A -   "
9.24, 343.713, 0.015522, NaN, NaN, NaN, 0.0323506, "- N/A -   "
9.25, 344.1839, 0.0155359, NaN, NaN, NaN, 0.0323506, "- N/A -   "
9.26, 344.537, 0.0155554, NaN, NaN, NaN, 0.0323506, "- N/A -   "
9.27, 344.891, 0.0155692, NaN, NaN, NaN, 0.0323506, "- N/A -   "
9.28, 345.244, 0.0155859, NaN, NaN, NaN, 0.0323506, "- N/A -   "
9.29, 345.716, 0.0156026, NaN, NaN, NaN, 0.0323506, "- N/A -   "
9.3, 345.9513, 0.0156165, NaN, NaN, NaN, 0.0335714, "- N/A -   "
9.31, 346.4226, 0.0156331, NaN, NaN, NaN, 0.0335714, "- N/A -   "
9.32, 346.7761, 0.015647, NaN, NaN, NaN, 0.0347922, "- N/A -   "
9.33, 347.13, 0.0156637, NaN, NaN, NaN, 0.0347922, "- N/A -   "
9.34, 347.483, 0.01567754, NaN, NaN, NaN, 0.03601294, "- N/A -   "
9.35, 347.837, 0.015697, NaN, NaN, NaN, 0.0347922, "- N/A -   "
9.36, 348.3078, 0.0157136, NaN, NaN, NaN, 0.0347922, "- N/A -   "
9.37, 348.6613, 0.0157331, NaN, NaN, NaN, 0.0347922, "- N/A -   "
9.38, 349.1326, 0.0157497, NaN, NaN, NaN, 0.0347922, "- N/A -   "
9.39, 349.486, 0.0157664, NaN, NaN, NaN, 0.0347922, "- N/A -   "
9.4, 349.84, 0.0157831, NaN, NaN, NaN, 0.0347922, "- N/A -   "
9.41, 350.311, 0.0157997, NaN, NaN, NaN, 0.0335714, "- N/A -   "
9.42, 350.5465, 0.0158164, NaN, NaN, NaN, 0.0335714, "- N/A -   "
9.43, 351.018, 0.015833, NaN, NaN, NaN, 0.0335714, "- N/A -   "
9.44, 351.489, 0.0158525, NaN, NaN, NaN, 0.0335714, "- N/A -   "
9.45, 351.96, 0.0158691, NaN, NaN, NaN, 0.0323506, "- N/A -   "
9.46, 352.3139, 0.0158886, NaN, NaN, NaN, 0.0323506, "- N/A -   "
9.47, 352.6674, 0.0159025, NaN, NaN, NaN, 0.0323506, "- N/A -   "
9.48, 353.1387, 0.0159219, NaN, NaN, NaN, 0.0323506, "- N/A -   "
9.49, 353.4922, 0.0159358, NaN, NaN, NaN, 0.0323506, "- N/A -   "
9.5, 353.846, 0.0159524, NaN, NaN, NaN, 0.0323506, "- N/A -   "
9.51, 354.199, 0.0159663, NaN, NaN, NaN, 0.0335714, "- N/A -   "
9.52, 354.5526, 0.015983, NaN, NaN, NaN, 0.0335714, "- N/A -   "
9.53, 354.788, 0.0159969, NaN, NaN, NaN, 0.0347922, "- N/A -   "
9.54, 355.0239, 0.0160135, NaN, NaN, NaN, 0.03601294, "- N/A -   "
9.55, 355.4952, 0.0160274, NaN, NaN, NaN, 0.03601294, "- N/A -   "
9.56, 355.8487, 0.0160413, NaN, NaN, NaN, 0.0372337, "- N/A -   "
9.57, 356.202, 0.016058, NaN, NaN, NaN, 0.0384545, "- N/A -   "
9.58, 356.438, 0.01607184, NaN, NaN, NaN, 0.0396753, "- N/A -   "
9.59, 356.909, 0.0160857, NaN, NaN, NaN, 0.0396753, "- N/A -   "
9.6, 357.2626, 0.0160996, NaN, NaN, NaN, 0.04089605, "- N/A -   "
9.61, 357.6161, 0.016119, NaN, NaN, NaN, 0.04089605, "- N/A -   "
9.62, 357.97, 0.0161329, NaN, NaN, NaN, 0.04089605, "- N/A -   "
9.63, 358.323, 0.0161496, NaN, NaN, NaN, 0.04089605, "- N/A -   "
9.64, 358.6765, 0.01616625, NaN, NaN, NaN, 0.04089605, "- N/A -   "
9.65, 359.03, 0.0161829, NaN, NaN, NaN, 0.04089605, "- N/A -   "
9.66, 359.5013, 0.01619957, NaN, NaN, NaN, 0.04089605, "- N/A -   "
9.67, 359.8548, 0.01621623, NaN, NaN, NaN, 0.04089605, "- N/A -   "
9.68, 360.326, 0.0162357, NaN, NaN, NaN, 0.04089605, "- N/A -   "
9.69, 360.68, 0.0162523, NaN, NaN, NaN, 0.0396753, "- N/A -   "
9.7, 361.151, 0.01626899, NaN, NaN, NaN, 0.0396753, "- N/A -   "
9.71, 361.504, 0.0162856, NaN, NaN, NaN, 0.0396753, "- N/A -   "
9.72, 361.858, 0.01630231, NaN, NaN, NaN, 0.0396753, "- N/A -   "
9.73, 362.2113, 0.0163217, NaN, NaN, NaN, 0.0396753, "- N/A -   "
9.74, 362.5648, 0.0163384, NaN, NaN, NaN, 0.0396753, "- N/A -   "
9.75, 363.154, 0.01635507, NaN, NaN, NaN, 0.0384545, "- N/A -   "
9.76, 363.5074, 0.0163745, NaN, NaN, NaN, 0.0384545, "- N/A -   "
9.77, 363.9787, 0.0163912, NaN, NaN, NaN, 0.0384545, "- N/A -   "
9.78, 364.45, 0.0164078, NaN, NaN, NaN, 0.0372337, "- N/A -   "
9.79, 364.9213, 0.0164245, NaN, NaN, NaN, 0.0372337, "- N/A -   "
9.8, 365.157, 0.0164411, NaN, NaN, NaN, 0.0372337, "- N/A -   "
9.81, 365.628, 0.01645781, NaN, NaN, NaN, 0.0372337, "- N/A -   "
9.82, 365.982, 0.0164772, NaN, NaN, NaN, 0.0372337, "- N/A -   "
9.83, 366.453, 0.0164911, NaN, NaN, NaN, 0.0372337, "- N/A -   "
9.84, 366.807, 0.0165106, NaN, NaN, NaN, 0.0372337, "- N/A -   "
9.85, 367.16, 0.01652445, NaN, NaN, NaN, 0.0372337, "- N/A -   "
9.86, 367.5135, 0.01654111, NaN, NaN, NaN, 0.0372337, "- N/A -   "
9.87, 367.867, 0.0165578, NaN, NaN, NaN, 0.0372337, "- N/A -   "
9.88, 368.338, 0.0165744, NaN, NaN, NaN, 0.0372337, "- N/A -   "
9.89, 368.81, 0.0165911, NaN, NaN, NaN, 0.0372337, "- N/A -   "
9.9, 369.0452, 0.0166078, NaN, NaN, NaN, 0.0372337, "- N/A -   "
9.91, 369.517, 0.0166244, NaN, NaN, NaN, 0.0372337, "- N/A -   "
9.92, 369.87, 0.0166411, NaN, NaN, NaN, 0.0372337, "- N/A -   "
9.93, 370.3413, 0.0166577, NaN, NaN, NaN, 0.0372337, "- N/A -   "
9.94, 370.695, 0.0166744, NaN, NaN, NaN, 0.0372337, "- N/A -   "
9.95, 371.048, 0.01669383, NaN, NaN, NaN, 0.0372337, "- N/A -   "
9.96, 371.6374, 0.0167133, NaN, NaN, NaN, 0.0347922, "- N/A -   "
9.97, 371.991, 0.0167327, NaN, NaN, NaN, 0.0347922, "- N/A -   "
9.98, 372.58, 0.0167494, NaN, NaN, NaN, 0.0335714, "- N/A -   "
9.99, 372.816, 0.016766, NaN, NaN, NaN, 0.0335714, "- N/A -   "
10, 373.169, 0.0167855, NaN, NaN, NaN, 0.0335714, "- N/A -   "
10.01, 373.64, 0.01679935, NaN, NaN, NaN, 0.0335714, "- N/A -   "
10.02, 373.9939, 0.016816, NaN, NaN, NaN, 0.0335714, "- N/A -   "
10.03, 374.347, 0.0168354, NaN, NaN, NaN, 0.0335714, "- N/A -   "
10.04, 374.8187, 0.01684933, NaN, NaN, NaN, 0.0335714, "- N/A -   "
10.05, 375.172, 0.016866, NaN, NaN, NaN, 0.0335714, "- N/A -   "
10.06, 375.526, 0.01688265, NaN, NaN, NaN, 0.0347922, "- N/A -   "
10.07, 375.879, 0.0168965, NaN, NaN, NaN, 0.0347922, "- N/A -   "
10.08, 376.2326, 0.0169132, NaN, NaN, NaN, 0.0347922, "- N/A -   "
10.09, 376.5861, 0.0169299, NaN, NaN, NaN, 0.03601294, "- N/A -   "
10.1, 376.94, 0.01694374, NaN, NaN, NaN, 0.03601294, "- N/A -   "
10.11, 377.293, 0.0169604, NaN, NaN, NaN, 0.03601294, "- N/A -   "
10.12, 377.6465, 0.01697706, NaN, NaN, NaN, 0.0372337, "- N/A -   "
10.13, 378.118, 0.0169937, NaN, NaN, NaN, 0.03601294, "- N/A -   "
10.14, 378.4713, 0.0170104, NaN, NaN, NaN, 0.03601294, "- N/A -   "
10.15, 378.9426, 0.017027, NaN, NaN, NaN, 0.03601294, "- N/A -   "
10.16, 379.414, 0.01704648, NaN, NaN, NaN, 0.0347922, "- N/A -   "
10.17, 379.7674, 0.0170631, NaN, NaN, NaN, 0.0347922, "- N/A -   "
10.18, 380.2387, 0.0170798, NaN, NaN, NaN, 0.0347922, "- N/A -   "
10.19, 380.592, 0.0170992, NaN, NaN, NaN, 0.0347922, "- N/A -   "
10.2, 380.946, 0.0171159, NaN, NaN, NaN, 0.0335714, "- N/A -   "
10.21, 381.299, 0.01713256, NaN, NaN, NaN, 0.0335714, "- N/A -   "
10.22, 381.77, 0.017152, NaN, NaN, NaN, 0.0335714, "- N/A -   "
10.23, 382.242, 0.0171659, NaN, NaN, NaN, 0.0335714, "- N/A -   "
10.24, 382.5952, 0.01718254, NaN, NaN, NaN, 0.0335714, "- N/A -   "
10.25, 382.9487, 0.0171964, NaN, NaN, NaN, 0.0347922, "- N/A -   "
10.26, 383.302, 0.0172131, NaN, NaN, NaN, 0.0347922, "- N/A -   "
10.27, 383.538, 0.017227, NaN, NaN, NaN, 0.0372337, "- N/A -   "
10.28, 384.009, 0.01724363, NaN, NaN, NaN, 0.0372337, "- N/A -   "
10.29, 384.245, 0.0172575, NaN, NaN, NaN, 0.0372337, "- N/A -   "
10.3, 384.716, 0.0172742, NaN, NaN, NaN, 0.0372337, "- N/A -   "
10.31, 384.952, 0.0172908, NaN, NaN, NaN, 0.0372337, "- N/A -   "
10.32, 385.423, 0.0173047, NaN, NaN, NaN, 0.0384545, "- N/A -   "
10.33, 385.777, 0.0173214, NaN, NaN, NaN, 0.0384545, "- N/A -   "
10.34, 386.13, 0.017338, NaN, NaN, NaN, 0.0384545, "- N/A -   "
10.35, 386.4835, 0.0173547, NaN, NaN, NaN, 0.0384545, "- N/A -   "
10.36, 386.955, 0.0173686, NaN, NaN, NaN, 0.0396753, "- N/A -   "
[...]
32.41, 1360.5, 0.0541411, NaN, NaN, NaN, 0.0299091, "- N/A -   "
32.43, 1361.57, 0.05417998, NaN, NaN, NaN, 0.0274675, "- N/A -   "
32.45, 1362.53, 0.0542133, NaN, NaN, NaN, 0.0274675, "- N/A -   "
32.47, 1363.36, 0.0542466, NaN, NaN, NaN, 0.0274675, "- N/A -   "
32.49, 1364.197, 0.05427717, NaN, NaN, NaN, 0.0286883, "- N/A -   "
32.51, 1364.91, 0.05430771, NaN, NaN, NaN, 0.03112983, "- N/A -   "
32.53, 1365.87, 0.0543383, NaN, NaN, NaN, 0.03112983, "- N/A -   "
32.55, 1366.7, 0.0543688, NaN, NaN, NaN, 0.0323506, "- N/A -   "
32.57, 1367.54, 0.0543993, NaN, NaN, NaN, 0.0335714, "- N/A -   "
32.59, 1368.37, 0.0544327, NaN, NaN, NaN, 0.0347922, "- N/A -   "
32.61, 1369.32, 0.054466, NaN, NaN, NaN, 0.0347922, "- N/A -   "
32.63, 1370.16, 0.0544938, NaN, NaN, NaN, 0.03601294, "- N/A -   "
32.65, 1370.88, 0.0545243, NaN, NaN, NaN, 0.0372337, "- N/A -   "
32.67, 1371.83, 0.0545576, NaN, NaN, NaN, 0.0372337, "- N/A -   "
32.69, 1372.54, 0.05459094, NaN, NaN, NaN, 0.0372337, "- N/A -   "
32.71, 1373.618, 0.05462426, NaN, NaN, NaN, 0.0372337, "- N/A -   "
32.73, 1374.45, 0.0546576, NaN, NaN, NaN, 0.0372337, "- N/A -   "
32.75, 1375.41, 0.0546937, NaN, NaN, NaN, 0.03601294, "- N/A -   "
32.77, 1376.48, 0.05472978, NaN, NaN, NaN, 0.0347922, "- N/A -   "
32.79, 1377.31, 0.0547631, NaN, NaN, NaN, 0.0347922, "- N/A -   "
32.81, 1378.03, 0.0547909, NaN, NaN, NaN, 0.0372337, "- N/A -   "
32.83, 1378.75, 0.0548186, NaN, NaN, NaN, 0.0396753, "- N/A -   "
32.85, 1379.58, 0.0548464, NaN, NaN, NaN, 0.04211683, "- N/A -   "
32.87, 1380.296, 0.0548769, NaN, NaN, NaN, 0.0433376, "- N/A -   "
32.89, 1381.25, 0.05490749, NaN, NaN, NaN, 0.0445584, "- N/A -   "
32.91, 1381.97, 0.0549408, NaN, NaN, NaN, 0.04577916, "- N/A -   "
32.93, 1382.92, 0.0549714, NaN, NaN, NaN, 0.04577916, "- N/A -   "
32.95, 1383.87, 0.0550075, NaN, NaN, NaN, 0.04577916, "- N/A -   "
32.97, 1385.07, 0.0550436, NaN, NaN, NaN, 0.0433376, "- N/A -   "
32.99, 1386.14, 0.0550852, NaN, NaN, NaN, 0.0396753, "- N/A -   "
33.01, 1387.21, 0.0551269, NaN, NaN, NaN, 0.0372337, "- N/A -   "
33.03, 1388.29, 0.05516295, NaN, NaN, NaN, 0.0347922, "- N/A -   "
33.05, 1389.48, 0.05520183, NaN, NaN, NaN, 0.0323506, "- N/A -   "
33.07, 1390.31, 0.0552379, NaN, NaN, NaN, 0.0323506, "- N/A -   "
33.09, 1391.148, 0.0552712, NaN, NaN, NaN, 0.03112983, "- N/A -   "
33.11, 1392.22, 0.0553073, NaN, NaN, NaN, 0.0299091, "- N/A -   "
33.13, 1393.056, 0.0553379, NaN, NaN, NaN, 0.03112983, "- N/A -   "
33.15, 1393.65, 0.0553657, NaN, NaN, NaN, 0.0335714, "- N/A -   "
33.17, 1394.61, 0.05539898, NaN, NaN, NaN, 0.0335714, "- N/A -   "
33.19, 1395.44, 0.05542952, NaN, NaN, NaN, 0.0347922, "- N/A -   "
33.21, 1396.4, 0.05546284, NaN, NaN, NaN, 0.0347922, "- N/A -   "
33.23, 1397.23, 0.05549616, NaN, NaN, NaN, 0.0347922, "- N/A -   "
33.25, 1398.18, 0.0555295, NaN, NaN, NaN, 0.0347922, "- N/A -   "
33.27, 1399.14, 0.05556558, NaN, NaN, NaN, 0.0335714, "- N/A -   "
33.29, 1400.211, 0.0556045, NaN, NaN, NaN, 0.03112983, "- N/A -   "
33.31, 1401.05, 0.0556378, NaN, NaN, NaN, 0.03112983, "- N/A -   "
33.33, 1402.12, 0.0556711, NaN, NaN, NaN, 0.03112983, "- N/A -   "
33.35, 1402.83, 0.0557044, NaN, NaN, NaN, 0.03112983, "- N/A -   "
33.37, 1403.79, 0.05573774, NaN, NaN, NaN, 0.0323506, "- N/A -   "
33.39, 1404.62, 0.0557683, NaN, NaN, NaN, 0.0323506, "- N/A -   "
33.41, 1405.46, 0.05579883, NaN, NaN, NaN, 0.0335714, "- N/A -   "
33.43, 1406.17, 0.0558266, NaN, NaN, NaN, 0.03601294, "- N/A -   "
33.45, 1407.01, 0.05585436, NaN, NaN, NaN, 0.0384545, "- N/A -   "
33.47, 1407.724, 0.0558849, NaN, NaN, NaN, 0.0396753, "- N/A -   "
33.49, 1408.56, 0.0559155, NaN, NaN, NaN, 0.04089605, "- N/A -   "
33.51, 1409.39, 0.0559488, NaN, NaN, NaN, 0.04089605, "- N/A -   "
33.53, 1410.35, 0.0559821, NaN, NaN, NaN, 0.04089605, "- N/A -   "
33.55, 1411.3, 0.0560154, NaN, NaN, NaN, 0.04089605, "- N/A -   "
33.57, 1412.26, 0.0560487, NaN, NaN, NaN, 0.04089605, "- N/A -   "
33.59, 1413.09, 0.0560821, NaN, NaN, NaN, 0.04089605, "- N/A -   "
33.61, 1413.93, 0.0561182, NaN, NaN, NaN, 0.04089605, "- N/A -   "
33.63, 1414.88, 0.0561515, NaN, NaN, NaN, 0.0396753, "- N/A -   "
33.65, 1415.83, 0.0561848, NaN, NaN, NaN, 0.0396753, "- N/A -   "
33.67, 1416.91, 0.0562209, NaN, NaN, NaN, 0.0384545, "- N/A -   "
33.69, 1417.86, 0.056257, NaN, NaN, NaN, 0.0384545, "- N/A -   "
33.71, 1418.81, 0.0562903, NaN, NaN, NaN, 0.0384545, "- N/A -   "
33.73, 1419.65, 0.0563236, NaN, NaN, NaN, 0.0384545, "- N/A -   "
33.75, 1420.6, 0.0563597, NaN, NaN, NaN, 0.03601294, "- N/A -   "
33.77, 1421.438, 0.0563931, NaN, NaN, NaN, 0.0372337, "- N/A -   "
33.79, 1422.39, 0.0564264, NaN, NaN, NaN, 0.03601294, "- N/A -   "
33.81, 1423.35, 0.0564597, NaN, NaN, NaN, 0.03601294, "- N/A -   "
33.83, 1424.18, 0.0564958, NaN, NaN, NaN, 0.0347922, "- N/A -   "
33.85, 1425.25, 0.05653189, NaN, NaN, NaN, 0.0335714, "- N/A -   "
33.87, 1426.33, 0.05656799, NaN, NaN, NaN, 0.0335714, "- N/A -   "
33.89, 1427.28, 0.0566041, NaN, NaN, NaN, 0.0323506, "- N/A -   "
33.91, 1428.12, 0.0566374, NaN, NaN, NaN, 0.03112983, "- N/A -   "
33.93, 1429.19, 0.0566735, NaN, NaN, NaN, 0.03112983, "- N/A -   "
33.95, 1430.024, 0.0567068, NaN, NaN, NaN, 0.03112983, "- N/A -   "
33.97, 1430.98, 0.0567374, NaN, NaN, NaN, 0.03112983, "- N/A -   "
33.99, 1431.813, 0.0567735, NaN, NaN, NaN, 0.03112983, "- N/A -   "
34.01, 1432.65, 0.0568012, NaN, NaN, NaN, 0.0323506, "- N/A -   "
34.03, 1433.36, 0.05683178, NaN, NaN, NaN, 0.0335714, "- N/A -   "
34.05, 1434.32, 0.0568651, NaN, NaN, NaN, 0.0335714, "- N/A -   "
34.07, 1435.15, 0.05689842, NaN, NaN, NaN, 0.0335714, "- N/A -   "
34.09, 1436.23, 0.0569345, NaN, NaN, NaN, 0.0323506, "- N/A -   "
34.11, 1437.06, 0.0569678, NaN, NaN, NaN, 0.0323506, "- N/A -   "
34.13, 1437.89, 0.0570012, NaN, NaN, NaN, 0.0335714, "- N/A -   "
34.15, 1438.85, 0.0570317, NaN, NaN, NaN, 0.0335714, "- N/A -   "
34.17, 1439.45, 0.05705947, NaN, NaN, NaN, 0.03601294, "- N/A -   "
34.19, 1440.28, 0.05709, NaN, NaN, NaN, 0.0372337, "- N/A -   "
34.21, 1441.23, 0.05712334, NaN, NaN, NaN, 0.0372337, "- N/A -   "
34.23, 1442.07, 0.0571539, NaN, NaN, NaN, 0.0396753, "- N/A -   "
34.25, 1442.66, 0.0571817, NaN, NaN, NaN, 0.04089605, "- N/A -   "
34.27, 1443.5, 0.0572094, NaN, NaN, NaN, 0.0433376, "- N/A -   "
34.29, 1444.22, 0.05723996, NaN, NaN, NaN, 0.04577916, "- N/A -   "
34.31, 1445.05, 0.05727051, NaN, NaN, NaN, 0.04577916, "- N/A -   "
34.33, 1446, 0.0573011, NaN, NaN, NaN, 0.04699994, "- N/A -   "
34.35, 1446.96, 0.05733993, NaN, NaN, NaN, 0.0445584, "- N/A -   "
34.37, 1447.79, 0.0573732, NaN, NaN, NaN, 0.0445584, "- N/A -   "
34.39, 1448.866, 0.0574093, NaN, NaN, NaN, 0.0433376, "- N/A -   "
34.41, 1449.94, 0.0574454, NaN, NaN, NaN, 0.04211683, "- N/A -   "
34.43, 1451.01, 0.0574871, NaN, NaN, NaN, 0.0396753, "- N/A -   "
34.45, 1451.97, 0.05752319, NaN, NaN, NaN, 0.0372337, "- N/A -   "
34.47, 1452.92, 0.05755929, NaN, NaN, NaN, 0.03601294, "- N/A -   "
34.49, 1453.99, 0.0575954, NaN, NaN, NaN, 0.0347922, "- N/A -   "
34.51, 1454.95, 0.0576315, NaN, NaN, NaN, 0.0347922, "- N/A -   "
34.53, 1455.9, 0.0576648, NaN, NaN, NaN, 0.0335714, "- N/A -   "
34.55, 1456.74, 0.0576981, NaN, NaN, NaN, 0.0335714, "- N/A -   "
34.57, 1457.69, 0.05773422, NaN, NaN, NaN, 0.0335714, "- N/A -   "
34.59, 1458.64, 0.05776477, NaN, NaN, NaN, 0.0335714, "- N/A -   "
34.61, 1459.48, 0.05779809, NaN, NaN, NaN, 0.0335714, "- N/A -   "
34.63, 1460.43, 0.05783419, NaN, NaN, NaN, 0.0335714, "- N/A -   "
34.65, 1461.39, 0.0578731, NaN, NaN, NaN, 0.0299091, "- N/A -   "
34.67, 1462.58, 0.0579119, NaN, NaN, NaN, 0.0274675, "- N/A -   "
34.69, 1463.65, 0.057948, NaN, NaN, NaN, 0.0262467, "- N/A -   "
34.71, 1464.49, 0.0579814, NaN, NaN, NaN, 0.0262467, "- N/A -   "
34.73, 1465.2, 0.0580119, NaN, NaN, NaN, 0.0274675, "- N/A -   "
34.75, 1466.16, 0.0580424, NaN, NaN, NaN, 0.0286883, "- N/A -   "
34.77, 1466.87, 0.058073, NaN, NaN, NaN, 0.0299091, "- N/A -   "
34.79, 1467.71, 0.0581035, NaN, NaN, NaN, 0.03112983, "- N/A -   "
34.81, 1468.42, 0.0581313, NaN, NaN, NaN, 0.0335714, "- N/A -   "
34.83, 1469.14, 0.05815907, NaN, NaN, NaN, 0.03601294, "- N/A -   "
34.85, 1469.735, 0.0581868, NaN, NaN, NaN, 0.0396753, "- N/A -   "
34.87, 1470.45, 0.05821183, NaN, NaN, NaN, 0.04211683, "- N/A -   "
34.89, 1471.166, 0.05824237, NaN, NaN, NaN, 0.0433376, "- N/A -   "
34.91, 1472.12, 0.0582729, NaN, NaN, NaN, 0.0445584, "- N/A -   "
34.93, 1472.95, 0.0583035, NaN, NaN, NaN, 0.04699994, "- N/A -   "
34.95, 1473.55, 0.0583312, NaN, NaN, NaN, 0.0482207, "- N/A -   "
34.97, 1474.51, 0.0583645, NaN, NaN, NaN, 0.0482207, "- N/A -   "
34.99, 1475.46, 0.0584006, NaN, NaN, NaN, 0.0482207, "- N/A -   "
35.01, 1476.65, 0.0584367, NaN, NaN, NaN, 0.04577916, "- N/A -   "
35.03, 1477.72, 0.0584784, NaN, NaN, NaN, 0.04211683, "- N/A -   "
35.05, 1478.8, 0.0585173, NaN, NaN, NaN, 0.0396753, "- N/A -   "
35.07, 1479.99, 0.05855892, NaN, NaN, NaN, 0.0372337, "- N/A -   "
35.09, 1480.94, 0.058595, NaN, NaN, NaN, 0.03601294, "- N/A -   "
35.11, 1481.9, 0.0586311, NaN, NaN, NaN, 0.0347922, "- N/A -   "
35.13, 1482.85, 0.0586644, NaN, NaN, NaN, 0.0335714, "- N/A -   "
35.15, 1483.69, 0.0586978, NaN, NaN, NaN, 0.0335714, "- N/A -   "
35.17, 1484.64, 0.0587311, NaN, NaN, NaN, 0.0335714, "- N/A -   "
35.19, 1485.48, 0.0587644, NaN, NaN, NaN, 0.0347922, "- N/A -   "
35.21, 1486.55, 0.0588005, NaN, NaN, NaN, 0.0335714, "- N/A -   "
35.23, 1487.38, 0.0588366, NaN, NaN, NaN, 0.03112983, "- N/A -   "
35.25, 1488.46, 0.0588727, NaN, NaN, NaN, 0.0299091, "- N/A -   "
35.27, 1489.53, 0.05890879, NaN, NaN, NaN, 0.0299091, "- N/A -   "
35.29, 1490.37, 0.05894211, NaN, NaN, NaN, 0.0299091, "- N/A -   "
35.31, 1491.2, 0.0589754, NaN, NaN, NaN, 0.03112983, "- N/A -   "
35.33, 1492.27, 0.0590115, NaN, NaN, NaN, 0.0286883, "- N/A -   "
35.35, 1493.11, 0.0590449, NaN, NaN, NaN, 0.0299091, "- N/A -   "
35.37, 1494.06, 0.05907817, NaN, NaN, NaN, 0.0299091, "- N/A -   "
35.39, 1494.9, 0.0591087, NaN, NaN, NaN, 0.03112983, "- N/A -   "
35.41, 1495.61, 0.0591365, NaN, NaN, NaN, 0.0323506, "- N/A -   "
35.43, 1496.209, 0.0591643, NaN, NaN, NaN, 0.0347922, "- N/A -   "
35.45, 1497.04, 0.0591948, NaN, NaN, NaN, 0.0372337, "- N/A -   "
35.47, 1497.76, 0.0592226, NaN, NaN, NaN, 0.0384545, "- N/A -   "
35.49, 1498.594, 0.0592531, NaN, NaN, NaN, 0.0396753, "- N/A -   "
35.51, 1499.31, 0.05928365, NaN, NaN, NaN, 0.04211683, "- N/A -   "
35.53, 1500.025, 0.0593142, NaN, NaN, NaN, 0.0433376, "- N/A -   "
35.55, 1500.98, 0.0593447, NaN, NaN, NaN, 0.0433376, "- N/A -   "
35.57, 1501.81, 0.05938084, NaN, NaN, NaN, 0.0433376, "- N/A -   "
35.59, 1502.77, 0.0594114, NaN, NaN, NaN, 0.0433376, "- N/A -   "
35.61, 1503.72, 0.0594447, NaN, NaN, NaN, 0.0433376, "- N/A -   "
35.63, 1504.56, 0.0594752, NaN, NaN, NaN, 0.0445584, "- N/A -   "
35.65, 1505.15, 0.0595058, NaN, NaN, NaN, 0.04577916, "- N/A -   "
35.67, 1506.11, 0.0595391, NaN, NaN, NaN, 0.04699994, "- N/A -   "
35.69, 1507.06, 0.0595724, NaN, NaN, NaN, 0.04577916, "- N/A -   "
35.71, 1508.01, 0.0596085, NaN, NaN, NaN, 0.04577916, "- N/A -   "
35.73, 1509.09, 0.05964463, NaN, NaN, NaN, 0.0433376, "- N/A -   "
35.75, 1510.16, 0.0596835, NaN, NaN, NaN, 0.04211683, "- N/A -   "
35.77, 1511.12, 0.0597224, NaN, NaN, NaN, 0.0384545, "- N/A -   "
35.79, 1512.19, 0.059764, NaN, NaN, NaN, 0.0347922, "- N/A -   "
35.81, 1513.38, 0.0598029, NaN, NaN, NaN, 0.0323506, "- N/A -   "
35.83, 1514.45, 0.0598418, NaN, NaN, NaN, 0.0299091, "- N/A -   "
35.85, 1515.41, 0.0598779, NaN, NaN, NaN, 0.0286883, "- N/A -   "
35.87, 1516.36, 0.0599112, NaN, NaN, NaN, 0.0286883, "- N/A -   "
35.89, 1517.078, 0.0599445, NaN, NaN, NaN, 0.0299091, "- N/A -   "
35.91, 1518.03, 0.05997506, NaN, NaN, NaN, 0.0299091, "- N/A -   "
35.93, 1518.87, 0.06000561, NaN, NaN, NaN, 0.03112983, "- N/A -   "
35.95, 1519.7, 0.0600389, NaN, NaN, NaN, 0.03112983, "- N/A -   "
35.97, 1520.42, 0.06006947, NaN, NaN, NaN, 0.0323506, "- N/A -   "
35.99, 1521.37, 0.0601028, NaN, NaN, NaN, 0.0323506, "- N/A -   "
36.01, 1522.09, 0.0601306, NaN, NaN, NaN, 0.0347922, "- N/A -   "
36.03, 1522.92, 0.0601611, NaN, NaN, NaN, 0.03601294, "- N/A -   "
36.05, 1523.76, 0.0601944, NaN, NaN, NaN, 0.0372337, "- N/A -   "
36.07, 1524.71, 0.0602277, NaN, NaN, NaN, 0.03601294, "- N/A -   "
36.09, 1525.66, 0.0602611, NaN, NaN, NaN, 0.03601294, "- N/A -   "
36.11, 1526.62, 0.06029439, NaN, NaN, NaN, 0.03601294, "- N/A -   "
36.13, 1527.453, 0.0603277, NaN, NaN, NaN, 0.03601294, "- N/A -   "
36.15, 1528.29, 0.0603638, NaN, NaN, NaN, 0.03601294, "- N/A -   "
36.17, 1529.36, 0.0603999, NaN, NaN, NaN, 0.0347922, "- N/A -   "
36.19, 1530.08, 0.0604249, NaN, NaN, NaN, 0.0372337, "- N/A -   "
36.21, 1530.79, 0.06045544, NaN, NaN, NaN, 0.0384545, "- N/A -   "
36.23, 1531.51, 0.06048321, NaN, NaN, NaN, 0.04089605, "- N/A -   "
36.25, 1532.22, 0.060511, NaN, NaN, NaN, 0.0433376, "- N/A -   "
36.27, 1533.06, 0.0605415, NaN, NaN, NaN, 0.0445584, "- N/A -   "
36.29, 1533.77, 0.0605721, NaN, NaN, NaN, 0.04577916, "- N/A -   "
36.31, 1534.608, 0.06060261, NaN, NaN, NaN, 0.0482207, "- N/A -   "
36.33, 1535.44, 0.0606359, NaN, NaN, NaN, 0.0482207, "- N/A -   "
36.35, 1536.4, 0.060672, NaN, NaN, NaN, 0.04699994, "- N/A -   "
36.37, 1537.47, 0.0607081, NaN, NaN, NaN, 0.0445584, "- N/A -   "
36.39, 1538.54, 0.0607498, NaN, NaN, NaN, 0.04211683, "- N/A -   "
36.41, 1539.86, 0.0607914, NaN, NaN, NaN, 0.0372337, "- N/A -   "
36.43, 1540.81, 0.0608331, NaN, NaN, NaN, 0.0347922, "- N/A -   "
36.45, 1541.88, 0.0608692, NaN, NaN, NaN, 0.0323506, "- N/A -   "
36.47, 1542.84, 0.0609053, NaN, NaN, NaN, 0.03112983, "- N/A -   "
36.49, 1543.79, 0.0609386, NaN, NaN, NaN, 0.03112983, "- N/A -   "
36.51, 1544.63, 0.0609719, NaN, NaN, NaN, 0.03112983, "- N/A -   "
36.53, 1545.46, 0.0610052, NaN, NaN, NaN, 0.0323506, "- N/A -   "
36.55, 1546.29, 0.0610358, NaN, NaN, NaN, 0.0335714, "- N/A -   "
36.57, 1547.13, 0.0610663, NaN, NaN, NaN, 0.0347922, "- N/A -   "
36.59, 1547.85, 0.0610941, NaN, NaN, NaN, 0.03601294, "- N/A -   "
36.61, 1548.68, 0.0611274, NaN, NaN, NaN, 0.0372337, "- N/A -   "
36.63, 1549.63, 0.06116074, NaN, NaN, NaN, 0.0372337, "- N/A -   "
36.65, 1550.47, 0.06119406, NaN, NaN, NaN, 0.0372337, "- N/A -   "
36.67, 1551.42, 0.0612246, NaN, NaN, NaN, 0.0372337, "- N/A -   "
36.69, 1552.38, 0.0612607, NaN, NaN, NaN, 0.03601294, "- N/A -   "
36.71, 1553.45, 0.0612996, NaN, NaN, NaN, 0.0335714, "- N/A -   "
36.73, 1554.4, 0.06133567, NaN, NaN, NaN, 0.0323506, "- N/A -   "
36.75, 1555.24, 0.061369, NaN, NaN, NaN, 0.0323506, "- N/A -   "
36.77, 1556.07, 0.0613995, NaN, NaN, NaN, 0.0335714, "- N/A -   "
36.79, 1556.91, 0.0614301, NaN, NaN, NaN, 0.0347922, "- N/A -   "
36.81, 1557.62, 0.0614606, NaN, NaN, NaN, 0.03601294, "- N/A -   "
36.83, 1558.34, 0.06149117, NaN, NaN, NaN, 0.0372337, "- N/A -   "
36.85, 1559.29, 0.06152449, NaN, NaN, NaN, 0.0372337, "- N/A -   "
36.87, 1560.128, 0.06155781, NaN, NaN, NaN, 0.0372337, "- N/A -   "
36.89, 1560.84, 0.06158558, NaN, NaN, NaN, 0.0396753, "- N/A -   "
36.91, 1561.56, 0.0616161, NaN, NaN, NaN, 0.04211683, "- N/A -   "
36.93, 1562.63, 0.0616494, NaN, NaN, NaN, 0.04089605, "- N/A -   "
36.95, 1563.467, 0.0616855, NaN, NaN, NaN, 0.0396753, "- N/A -   "
36.97, 1564.421, 0.0617189, NaN, NaN, NaN, 0.0396753, "- N/A -   "
36.99, 1565.38, 0.06175496, NaN, NaN, NaN, 0.0384545, "- N/A -   "
37.01, 1566.21, 0.06178273, NaN, NaN, NaN, 0.04089605, "- N/A -   "
37.03, 1566.93, 0.0618133, NaN, NaN, NaN, 0.04211683, "- N/A -   "
37.05, 1567.88, 0.06184937, NaN, NaN, NaN, 0.04211683, "- N/A -   "
37.07, 1568.71, 0.0618827, NaN, NaN, NaN, 0.04211683, "- N/A -   "
37.09, 1569.79, 0.06191879, NaN, NaN, NaN, 0.04089605, "- N/A -   "
37.11, 1570.74, 0.06195211, NaN, NaN, NaN, 0.0396753, "- N/A -   "
37.13, 1571.7, 0.06198821, NaN, NaN, NaN, 0.0384545, "- N/A -   "
37.15, 1572.65, 0.0620243, NaN, NaN, NaN, 0.0372337, "- N/A -   "
37.17, 1573.6, 0.0620604, NaN, NaN, NaN, 0.03601294, "- N/A -   "
37.19, 1574.68, 0.0620965, NaN, NaN, NaN, 0.03601294, "- N/A -   "
37.21, 1575.39, 0.06212982, NaN, NaN, NaN, 0.03601294, "- N/A -   "
37.23, 1576.35, 0.0621631, NaN, NaN, NaN, 0.03601294, "- N/A -   "
37.25, 1577.181, 0.06219369, NaN, NaN, NaN, 0.03601294, "- N/A -   "
37.27, 1578.02, 0.06222701, NaN, NaN, NaN, 0.03601294, "- N/A -   "
37.29, 1579.09, 0.06226311, NaN, NaN, NaN, 0.0347922, "- N/A -   "
37.31, 1580.04, 0.0622992, NaN, NaN, NaN, 0.0335714, "- N/A -   "
37.33, 1580.88, 0.0623325, NaN, NaN, NaN, 0.0347922, "- N/A -   "
37.35, 1581.71, 0.0623603, NaN, NaN, NaN, 0.03601294, "- N/A -   "
37.37, 1582.43, 0.0623936, NaN, NaN, NaN, 0.03601294, "- N/A -   "
37.39, 1583.38, 0.06242971, NaN, NaN, NaN, 0.0347922, "- N/A -   "
37.41, 1584.22, 0.06246303, NaN, NaN, NaN, 0.0347922, "- N/A -   "
37.43, 1585.17, 0.0624964, NaN, NaN, NaN, 0.0347922, "- N/A -   "
37.45, 1586.125, 0.06253245, NaN, NaN, NaN, 0.0335714, "- N/A -   "
37.47, 1586.96, 0.0625658, NaN, NaN, NaN, 0.0335714, "- N/A -   "
37.49, 1587.91, 0.06260187, NaN, NaN, NaN, 0.0323506, "- N/A -   "
37.51, 1588.87, 0.06263519, NaN, NaN, NaN, 0.0323506, "- N/A -   "
37.53, 1589.7, 0.06266851, NaN, NaN, NaN, 0.0323506, "- N/A -   "
37.55, 1590.42, 0.06269906, NaN, NaN, NaN, 0.0335714, "- N/A -   "
37.57, 1591.25, 0.0627296, NaN, NaN, NaN, 0.03601294, "- N/A -   "
37.59, 1591.97, 0.06275737, NaN, NaN, NaN, 0.0384545, "- N/A -   "
37.61, 1592.68, 0.06278513, NaN, NaN, NaN, 0.0396753, "- N/A -   "
37.63, 1593.52, 0.06281845, NaN, NaN, NaN, 0.0396753, "- N/A -   "
37.65, 1594.35, 0.06285178, NaN, NaN, NaN, 0.04089605, "- N/A -   "
37.67, 1595.31, 0.06288233, NaN, NaN, NaN, 0.04089605, "- N/A -   "
37.69, 1596.02, 0.06291287, NaN, NaN, NaN, 0.04211683, "- N/A -   "
37.71, 1596.86, 0.0629462, NaN, NaN, NaN, 0.0433376, "- N/A -   "
37.73, 1597.69, 0.062974, NaN, NaN, NaN, 0.0445584, "- N/A -   "
37.75, 1598.65, 0.06300728, NaN, NaN, NaN, 0.0445584, "- N/A -   "
37.77, 1599.48, 0.06304338, NaN, NaN, NaN, 0.0445584, "- N/A -   "
37.79, 1600.55, 0.06307948, NaN, NaN, NaN, 0.0433376, "- N/A -   "
37.81, 1601.51, 0.0631156, NaN, NaN, NaN, 0.04089605, "- N/A -   "
37.83, 1602.58, 0.0631544, NaN, NaN, NaN, 0.0384545, "- N/A -   "
37.85, 1603.65, 0.0631933, NaN, NaN, NaN, 0.0372337, "- N/A -   "
37.87, 1604.609, 0.06323219, NaN, NaN, NaN, 0.0347922, "- N/A -   "
37.89, 1605.563, 0.06326551, NaN, NaN, NaN, 0.0335714, "- N/A -   "
37.91, 1606.4, 0.06329884, NaN, NaN, NaN, 0.0335714, "- N/A -   "
37.93, 1607.23, 0.0633322, NaN, NaN, NaN, 0.0335714, "- N/A -   "
37.95, 1608.19, 0.06336825, NaN, NaN, NaN, 0.0335714, "- N/A -   "
37.97, 1609.14, 0.06340158, NaN, NaN, NaN, 0.0323506, "- N/A -   "
37.99, 1610.09, 0.06343768, NaN, NaN, NaN, 0.03112983, "- N/A -   "
38.01, 1610.93, 0.063471, NaN, NaN, NaN, 0.0323506, "- N/A -   "
38.03, 1611.76, 0.06350154, NaN, NaN, NaN, 0.0323506, "- N/A -   "
38.05, 1612.72, 0.0635376, NaN, NaN, NaN, 0.03112983, "- N/A -   "
38.07, 1613.67, 0.06357373, NaN, NaN, NaN, 0.0299091, "- N/A -   "
38.09, 1614.63, 0.06360983, NaN, NaN, NaN, 0.0286883, "- N/A -   "
38.11, 1615.58, 0.06364315, NaN, NaN, NaN, 0.0286883, "- N/A -   "
38.13, 1616.53, 0.06367648, NaN, NaN, NaN, 0.0286883, "- N/A -   "
38.15, 1617.13, 0.0637098, NaN, NaN, NaN, 0.0299091, "- N/A -   "
38.17, 1618.2, 0.0637403, NaN, NaN, NaN, 0.0299091, "- N/A -   "
38.19, 1618.8, 0.06377088, NaN, NaN, NaN, 0.03112983, "- N/A -   "
38.21, 1619.63, 0.06380143, NaN, NaN, NaN, 0.0323506, "- N/A -   "
38.23, 1620.47, 0.06382919, NaN, NaN, NaN, 0.0347922, "- N/A -   "
38.25, 1621.07, 0.06385974, NaN, NaN, NaN, 0.03601294, "- N/A -   "
38.27, 1621.78, 0.06388751, NaN, NaN, NaN, 0.0384545, "- N/A -   "
38.29, 1622.616, 0.0639153, NaN, NaN, NaN, 0.04089605, "- N/A -   "
38.31, 1623.21, 0.06394304, NaN, NaN, NaN, 0.0433376, "- N/A -   "
38.33, 1624.17, 0.06397358, NaN, NaN, NaN, 0.0445584, "- N/A -   "
38.35, 1624.88, 0.0640069, NaN, NaN, NaN, 0.04577916, "- N/A -   "
38.37, 1625.72, 0.06403745, NaN, NaN, NaN, 0.04577916, "- N/A -   "
38.388, 1626.43, 0.064068, NaN, NaN, NaN, 0.04577916, "- N/A -   "