File: 2_Tensile_Data/Hamel_ForceTest_Bolt9_Test6.csv
Time, Load (lb), Position (in), AxialStrain (in), TransverseStrain (in), Auxiliary (), Control Out (V), Stress (psi)
0.0, 15.0973, 0.0, NaN, NaN, NaN, -0.006714277, "- N/A -   "
0.01, 15.0973, 2.776752E-6, NaN, NaN, NaN, -6.103888E-4, "- N/A -   "
0.02, 15.0973, 2.776752E-6, NaN, NaN, NaN, 0.006714277, "- N/A -   "
0.03, 15.0973, 2.776752E-6, NaN, NaN, NaN, 0.0213636, "- N/A -   "
0.04, 15.0973, 8.330256E-6, NaN, NaN, NaN, 0.0384545, "- N/A -   "
0.05, 15.2152, 1.66605e-05, NaN, NaN, NaN, 0.0543246, "- N/A -   "
0.06, 15.3332, 3.054427E-5, NaN, NaN, NaN, 0.0689739, "- N/A -   "
0.07, 15.5691, 4.720478E-5, NaN, NaN, NaN, 0.0799609, "- N/A -   "
0.08, 16.0409, 7.21955e-05, NaN, NaN, NaN, 0.08850638, "- N/A -   "
0.09, 16.3947, 9.99631e-05, NaN, NaN, NaN, 0.095831, "- N/A -   "
0.1, 16.74854, 0.000130507, NaN, NaN, NaN, 0.103156, "- N/A -   "
0.11, 17.3383, 0.000158275, NaN, NaN, NaN, 0.09705182, "- N/A -   "
0.12, 17.6921, 0.000188819, NaN, NaN, NaN, 0.09094793, "- N/A -   "
0.13, 18.046, 2.138099E-4, NaN, NaN, NaN, 0.0872856, "- N/A -   "
0.14, 18.3998, 0.000238801, NaN, NaN, NaN, 0.08362327, "- N/A -   "
0.15, 18.7536, 0.000263791, NaN, NaN, NaN, 0.0799609, "- N/A -   "
0.16, 19.1075, 0.000286005, NaN, NaN, NaN, 0.07751938, "- N/A -   "
0.17, 19.3434, 3.109962E-4, NaN, NaN, NaN, 0.07385705, "- N/A -   "
0.18, 19.6972, 0.00033321, NaN, NaN, NaN, 0.07263627, "- N/A -   "
0.19, 19.9331, 0.000349871, NaN, NaN, NaN, 0.07141549, "- N/A -   "
0.2, 20.169, 0.000372085, NaN, NaN, NaN, 0.0689739, "- N/A -   "
0.21, 20.4049, 0.000391522, NaN, NaN, NaN, 0.06775316, "- N/A -   "
0.22, 20.7588, 4.13736E-4, NaN, NaN, NaN, 0.06653238, "- N/A -   "
0.23, 20.99465, 4.331733E-4, NaN, NaN, NaN, 0.0653116, "- N/A -   "
0.24, 21.3485, 4.553873E-4, NaN, NaN, NaN, 0.06287005, "- N/A -   "
0.25, 21.5844, 0.000474825, NaN, NaN, NaN, 0.06164927, "- N/A -   "
0.26, 21.93823, 4.942618E-4, NaN, NaN, NaN, 0.0592077, "- N/A -   "
0.27, 22.1741, 5.136991E-4, NaN, NaN, NaN, 0.0579869, "- N/A -   "
0.28, 22.528, 0.000533136, NaN, NaN, NaN, 0.05676616, "- N/A -   "
0.29, 22.7639, 5.525736E-4, NaN, NaN, NaN, 0.0555454, "- N/A -   "
0.3, 22.9998, 5.720109E-4, NaN, NaN, NaN, 0.0543246, "- N/A -   "
0.31, 23.3536, 5.942249E-4, NaN, NaN, NaN, 0.05188305, "- N/A -   "
0.32, 23.5895, 6.164389E-4, NaN, NaN, NaN, 0.05066227, "- N/A -   "
0.33, 23.9433, 0.000638653, NaN, NaN, NaN, 0.0482207, "- N/A -   "
0.34, 24.1792, 0.00065809, NaN, NaN, NaN, 0.04577916, "- N/A -   "
0.35, 24.5331, 6.803042E-4, NaN, NaN, NaN, 0.0433376, "- N/A -   "
0.36, 24.8869, 6.997415E-4, NaN, NaN, NaN, 0.04211683, "- N/A -   "
0.37, 25.1228, 7.219555E-4, NaN, NaN, NaN, 0.04089605, "- N/A -   "
0.38, 25.3587, 7.413927E-4, NaN, NaN, NaN, 0.0384545, "- N/A -   "
0.39, 25.5946, 0.000758053, NaN, NaN, NaN, 0.0384545, "- N/A -   "
0.4, 25.9484, 7.774905E-4, NaN, NaN, NaN, 0.0372337, "- N/A -   "
0.41, 26.18434, 0.000794151, NaN, NaN, NaN, 0.0372337, "- N/A -   "
0.42, 26.3023, 8.108115E-4, NaN, NaN, NaN, 0.0372337, "- N/A -   "
0.43, 26.6561, 8.27472E-4, NaN, NaN, NaN, 0.0372337, "- N/A -   "
0.44, 26.892, 0.000844133, NaN, NaN, NaN, 0.0372337, "- N/A -   "
0.45, 27.1279, 0.000860793, NaN, NaN, NaN, 0.0384545, "- N/A -   "
0.46, 27.3638, 8.746768E-4, NaN, NaN, NaN, 0.0384545, "- N/A -   "
0.47, 27.4818, 8.941141E-4, NaN, NaN, NaN, 0.0372337, "- N/A -   "
0.48, 27.7177, 0.000907998, NaN, NaN, NaN, 0.0384545, "- N/A -   "
0.49, 28.0715, 9.274351E-4, NaN, NaN, NaN, 0.0372337, "- N/A -   "
0.5, 28.3074, 0.000946872, NaN, NaN, NaN, 0.03601294, "- N/A -   "
0.51, 28.6612, 9.663096E-4, NaN, NaN, NaN, 0.0347922, "- N/A -   "
0.52, 29.0151, 9.857469E-4, NaN, NaN, NaN, 0.0335714, "- N/A -   "
0.53, 29.251, 0.00100241, NaN, NaN, NaN, 0.0335714, "- N/A -   "
0.54, 29.4869, 0.00102184, NaN, NaN, NaN, 0.0323506, "- N/A -   "
0.55, 29.7228, 0.001041282, NaN, NaN, NaN, 0.0323506, "- N/A -   "
0.56, 29.9587, 0.00105794, NaN, NaN, NaN, 0.03112983, "- N/A -   "
0.57, 30.1946, 0.001074603, NaN, NaN, NaN, 0.03112983, "- N/A -   "
0.58, 30.5484, 0.00109126, NaN, NaN, NaN, 0.03112983, "- N/A -   "
0.59, 30.6663, 0.00110792, NaN, NaN, NaN, 0.03112983, "- N/A -   "
0.6, 30.9022, 0.00112458, NaN, NaN, NaN, 0.03112983, "- N/A -   "
0.61, 31.1381, 0.001141245, NaN, NaN, NaN, 0.03112983, "- N/A -   "
0.62, 31.374, 0.00115513, NaN, NaN, NaN, 0.0323506, "- N/A -   "
0.63, 31.72787, 0.00117179, NaN, NaN, NaN, 0.0323506, "- N/A -   "
0.64, 31.9638, 0.00118845, NaN, NaN, NaN, 0.0323506, "- N/A -   "
0.65, 32.08171, 0.00120511, NaN, NaN, NaN, 0.0323506, "- N/A -   "
0.66, 32.3176, 0.001218994, NaN, NaN, NaN, 0.0335714, "- N/A -   "
0.67, 32.5535, 0.00123288, NaN, NaN, NaN, 0.0347922, "- N/A -   "
0.68, 32.7894, 0.00124954, NaN, NaN, NaN, 0.0347922, "- N/A -   "
0.69, 33.1432, 0.0012662, NaN, NaN, NaN, 0.0347922, "- N/A -   "
0.7, 33.2612, 0.00128008, NaN, NaN, NaN, 0.03601294, "- N/A -   "
0.71, 33.49708, 0.00129397, NaN, NaN, NaN, 0.0372337, "- N/A -   "
0.72, 33.61503, 0.00130785, NaN, NaN, NaN, 0.0384545, "- N/A -   "
0.73, 33.8509, 0.00132173, NaN, NaN, NaN, 0.0396753, "- N/A -   "
0.74, 34.08682, 0.00133839, NaN, NaN, NaN, 0.0396753, "- N/A -   "
0.75, 34.3227, 0.00135228, NaN, NaN, NaN, 0.04089605, "- N/A -   "
0.76, 34.55861, 0.00136894, NaN, NaN, NaN, 0.04089605, "- N/A -   "
0.77, 34.6766, 0.00138282, NaN, NaN, NaN, 0.04211683, "- N/A -   "
0.78, 35.0304, 0.001399483, NaN, NaN, NaN, 0.04211683, "- N/A -   "
0.79, 35.2663, 0.00141337, NaN, NaN, NaN, 0.0433376, "- N/A -   "
0.8, 35.3842, 0.00142725, NaN, NaN, NaN, 0.0445584, "- N/A -   "
0.81, 35.6201, 0.001443911, NaN, NaN, NaN, 0.0445584, "- N/A -   "
0.82, 35.85603, 0.00146057, NaN, NaN, NaN, 0.0445584, "- N/A -   "
0.83, 36.2099, 0.001477232, NaN, NaN, NaN, 0.0445584, "- N/A -   "
0.84, 36.44577, 0.00149389, NaN, NaN, NaN, 0.0445584, "- N/A -   "
0.85, 36.6817, 0.00151333, NaN, NaN, NaN, 0.0445584, "- N/A -   "
0.86, 37.0355, 0.00152999, NaN, NaN, NaN, 0.0433376, "- N/A -   "
0.87, 37.2714, 0.00154665, NaN, NaN, NaN, 0.0433376, "- N/A -   "
0.88, 37.5073, 0.00156609, NaN, NaN, NaN, 0.04211683, "- N/A -   "
0.89, 37.8611, 0.00158275, NaN, NaN, NaN, 0.04211683, "- N/A -   "
0.9, 38.097, 0.001599409, NaN, NaN, NaN, 0.04211683, "- N/A -   "
0.91, 38.3329, 0.00161885, NaN, NaN, NaN, 0.04089605, "- N/A -   "
0.92, 38.68677, 0.00163828, NaN, NaN, NaN, 0.04089605, "- N/A -   "
0.93, 38.9227, 0.001654944, NaN, NaN, NaN, 0.0396753, "- N/A -   "
0.94, 39.15856, 0.0016716, NaN, NaN, NaN, 0.0396753, "- N/A -   "
0.95, 39.5124, 0.00169104, NaN, NaN, NaN, 0.0384545, "- N/A -   "
0.96, 39.7483, 0.0017077, NaN, NaN, NaN, 0.0384545, "- N/A -   "
0.97, 39.98419, 0.00172436, NaN, NaN, NaN, 0.0384545, "- N/A -   "
0.98, 40.33803, 0.00174102, NaN, NaN, NaN, 0.0384545, "- N/A -   "
0.99, 40.57393, 0.00176046, NaN, NaN, NaN, 0.0372337, "- N/A -   "
1, 40.8098, 0.00177712, NaN, NaN, NaN, 0.0372337, "- N/A -   "
1.01, 41.04572, 0.00179656, NaN, NaN, NaN, 0.0372337, "- N/A -   "
1.02, 41.39956, 0.001816, NaN, NaN, NaN, 0.03601294, "- N/A -   "
1.03, 41.6355, 0.00183266, NaN, NaN, NaN, 0.0347922, "- N/A -   "
1.04, 41.8714, 0.00184932, NaN, NaN, NaN, 0.0347922, "- N/A -   "
1.05, 42.1072, 0.00186598, NaN, NaN, NaN, 0.0347922, "- N/A -   "
1.06, 42.4611, 0.00188264, NaN, NaN, NaN, 0.0347922, "- N/A -   "
1.07, 42.697, 0.0018993, NaN, NaN, NaN, 0.0347922, "- N/A -   "
1.08, 42.93288, 0.00191596, NaN, NaN, NaN, 0.0347922, "- N/A -   "
1.09, 43.1688, 0.00193262, NaN, NaN, NaN, 0.0347922, "- N/A -   "
1.1, 43.5226, 0.00195206, NaN, NaN, NaN, 0.0347922, "- N/A -   "
1.11, 43.87646, 0.001968717, NaN, NaN, NaN, 0.0347922, "- N/A -   "
1.12, 44.1124, 0.00198815, NaN, NaN, NaN, 0.0335714, "- N/A -   "
1.13, 44.34825, 0.00200481, NaN, NaN, NaN, 0.0323506, "- N/A -   "
1.14, 44.58414, 0.002024252, NaN, NaN, NaN, 0.0323506, "- N/A -   "
1.15, 44.93799, 0.00204091, NaN, NaN, NaN, 0.03112983, "- N/A -   "
1.16, 45.29183, 0.002057573, NaN, NaN, NaN, 0.03112983, "- N/A -   "
1.17, 45.40978, 0.00207146, NaN, NaN, NaN, 0.0323506, "- N/A -   "
1.18, 45.76362, 0.00209089, NaN, NaN, NaN, 0.0323506, "- N/A -   "
1.19, 45.9995, 0.00211033, NaN, NaN, NaN, 0.03112983, "- N/A -   "
1.2, 46.3534, 0.002126992, NaN, NaN, NaN, 0.03112983, "- N/A -   "
1.21, 46.5893, 0.00214365, NaN, NaN, NaN, 0.0299091, "- N/A -   "
1.22, 46.9431, 0.00216031, NaN, NaN, NaN, 0.0299091, "- N/A -   "
1.23, 47.179, 0.00217975, NaN, NaN, NaN, 0.0299091, "- N/A -   "
1.24, 47.4149, 0.002193634, NaN, NaN, NaN, 0.0299091, "- N/A -   "
1.25, 47.65078, 0.00221029, NaN, NaN, NaN, 0.0299091, "- N/A -   "
1.26, 47.8867, 0.00222418, NaN, NaN, NaN, 0.03112983, "- N/A -   "
1.27, 48.12257, 0.00224084, NaN, NaN, NaN, 0.03112983, "- N/A -   "
1.28, 48.47641, 0.0022575, NaN, NaN, NaN, 0.03112983, "- N/A -   "
1.29, 48.7123, 0.00227416, NaN, NaN, NaN, 0.03112983, "- N/A -   "
1.3, 48.9482, 0.00228804, NaN, NaN, NaN, 0.0323506, "- N/A -   "
1.31, 49.0661, 0.002304704, NaN, NaN, NaN, 0.0323506, "- N/A -   "
1.32, 49.41999, 0.00232136, NaN, NaN, NaN, 0.0335714, "- N/A -   "
1.33, 49.7738, 0.002338025, NaN, NaN, NaN, 0.0323506, "- N/A -   "
1.34, 49.8918, 0.00235469, NaN, NaN, NaN, 0.0335714, "- N/A -   "
1.35, 50.2456, 0.00236857, NaN, NaN, NaN, 0.0335714, "- N/A -   "
1.36, 50.3636, 0.002382453, NaN, NaN, NaN, 0.0347922, "- N/A -   "
1.37, 50.5995, 0.00239634, NaN, NaN, NaN, 0.03601294, "- N/A -   "
1.38, 50.83536, 0.00241022, NaN, NaN, NaN, 0.0372337, "- N/A -   "
1.39, 51.0713, 0.0024241, NaN, NaN, NaN, 0.0384545, "- N/A -   "
1.4, 51.30715, 0.002437988, NaN, NaN, NaN, 0.0396753, "- N/A -   "
1.41, 51.543, 0.00245187, NaN, NaN, NaN, 0.04089605, "- N/A -   "
1.42, 51.7789, 0.00246853, NaN, NaN, NaN, 0.04211683, "- N/A -   "
1.43, 52.01483, 0.002482416, NaN, NaN, NaN, 0.04211683, "- N/A -   "
1.44, 52.25073, 0.00249908, NaN, NaN, NaN, 0.0433376, "- N/A -   "
1.45, 52.48662, 0.00251296, NaN, NaN, NaN, 0.0433376, "- N/A -   "
1.46, 52.72252, 0.00252684, NaN, NaN, NaN, 0.0445584, "- N/A -   "
1.47, 52.9584, 0.0025435, NaN, NaN, NaN, 0.0445584, "- N/A -   "
1.48, 53.3123, 0.002562942, NaN, NaN, NaN, 0.0433376, "- N/A -   "
1.49, 53.54815, 0.0025796, NaN, NaN, NaN, 0.0433376, "- N/A -   "
1.5, 54.0199, 0.002596263, NaN, NaN, NaN, 0.0433376, "- N/A -   "
1.51, 54.13789, 0.00261292, NaN, NaN, NaN, 0.0433376, "- N/A -   "
1.52, 54.4917, 0.00262681, NaN, NaN, NaN, 0.0445584, "- N/A -   "
1.53, 54.7276, 0.00264347, NaN, NaN, NaN, 0.0445584, "- N/A -   "
1.54, 54.9635, 0.00265735, NaN, NaN, NaN, 0.04577916, "- N/A -   "
1.55, 55.3174, 0.00267401, NaN, NaN, NaN, 0.04577916, "- N/A -   "
1.56, 55.43531, 0.00269067, NaN, NaN, NaN, 0.04577916, "- N/A -   "
1.57, 55.6712, 0.002707333, NaN, NaN, NaN, 0.04577916, "- N/A -   "
1.58, 55.9071, 0.00272399, NaN, NaN, NaN, 0.04577916, "- N/A -   "
1.59, 56.2609, 0.00274065, NaN, NaN, NaN, 0.04577916, "- N/A -   "
1.6, 56.6148, 0.00275731, NaN, NaN, NaN, 0.04577916, "- N/A -   "
1.61, 56.73273, 0.00277398, NaN, NaN, NaN, 0.04577916, "- N/A -   "
1.62, 57.08658, 0.00279064, NaN, NaN, NaN, 0.04577916, "- N/A -   "
1.63, 57.32247, 0.00281007, NaN, NaN, NaN, 0.0445584, "- N/A -   "
1.64, 57.5584, 0.00282951, NaN, NaN, NaN, 0.0433376, "- N/A -   "
1.65, 58.0302, 0.00284895, NaN, NaN, NaN, 0.04211683, "- N/A -   "
1.66, 58.384, 0.00286838, NaN, NaN, NaN, 0.04089605, "- N/A -   "
1.67, 58.7378, 0.002887822, NaN, NaN, NaN, 0.04089605, "- N/A -   "
1.68, 59.0917, 0.00290726, NaN, NaN, NaN, 0.0384545, "- N/A -   "
1.69, 59.4455, 0.0029267, NaN, NaN, NaN, 0.0372337, "- N/A -   "
1.7, 59.79937, 0.00294891, NaN, NaN, NaN, 0.0347922, "- N/A -   "
1.71, 59.9173, 0.00296835, NaN, NaN, NaN, 0.0335714, "- N/A -   "
1.72, 60.3891, 0.002987785, NaN, NaN, NaN, 0.0335714, "- N/A -   "
1.73, 60.625, 0.00300445, NaN, NaN, NaN, 0.0323506, "- N/A -   "
1.74, 60.97884, 0.00302388, NaN, NaN, NaN, 0.03112983, "- N/A -   "
1.75, 61.2147, 0.00304054, NaN, NaN, NaN, 0.03112983, "- N/A -   "
1.76, 61.56858, 0.00305998, NaN, NaN, NaN, 0.0299091, "- N/A -   "
1.77, 61.9224, 0.00307664, NaN, NaN, NaN, 0.0299091, "- N/A -   "
1.78, 62.1583, 0.0030933, NaN, NaN, NaN, 0.0299091, "- N/A -   "
1.79, 62.3942, 0.003112739, NaN, NaN, NaN, 0.0299091, "- N/A -   "
1.8, 62.7481, 0.0031294, NaN, NaN, NaN, 0.0286883, "- N/A -   "
1.81, 62.98395, 0.00314606, NaN, NaN, NaN, 0.0286883, "- N/A -   "
1.82, 63.2198, 0.00316272, NaN, NaN, NaN, 0.0286883, "- N/A -   "
1.83, 63.5737, 0.003179381, NaN, NaN, NaN, 0.0286883, "- N/A -   "
1.84, 63.80958, 0.00319604, NaN, NaN, NaN, 0.0286883, "- N/A -   "
1.85, 64.04548, 0.003209925, NaN, NaN, NaN, 0.0299091, "- N/A -   "
1.86, 64.28137, 0.00322659, NaN, NaN, NaN, 0.0299091, "- N/A -   "
1.87, 64.6352, 0.003243246, NaN, NaN, NaN, 0.0299091, "- N/A -   "
1.88, 64.87111, 0.00325991, NaN, NaN, NaN, 0.03112983, "- N/A -   "
1.89, 65.107, 0.00327101, NaN, NaN, NaN, 0.0323506, "- N/A -   "
1.9, 65.3429, 0.00328767, NaN, NaN, NaN, 0.0323506, "- N/A -   "
1.91, 65.69674, 0.00330433, NaN, NaN, NaN, 0.0323506, "- N/A -   "
1.92, 66.05058, 0.003321, NaN, NaN, NaN, 0.0323506, "- N/A -   "
1.93, 66.2865, 0.00333488, NaN, NaN, NaN, 0.0335714, "- N/A -   "
1.94, 66.64032, 0.00335154, NaN, NaN, NaN, 0.0335714, "- N/A -   "
1.95, 66.75827, 0.00336542, NaN, NaN, NaN, 0.0347922, "- N/A -   "
1.96, 67.1121, 0.003379307, NaN, NaN, NaN, 0.03601294, "- N/A -   "
1.97, 67.34801, 0.00339319, NaN, NaN, NaN, 0.0372337, "- N/A -   "
1.98, 67.46596, 0.003409851, NaN, NaN, NaN, 0.0384545, "- N/A -   "
1.99, 67.81979, 0.003423735, NaN, NaN, NaN, 0.0384545, "- N/A -   "
2, 68.05569, 0.00344317, NaN, NaN, NaN, 0.0372337, "- N/A -   "
2.01, 68.40953, 0.00345983, NaN, NaN, NaN, 0.0372337, "- N/A -   "
2.02, 68.8813, 0.00347649, NaN, NaN, NaN, 0.0372337, "- N/A -   "
2.03, 68.9993, 0.00349315, NaN, NaN, NaN, 0.0372337, "- N/A -   "
2.04, 69.35311, 0.00350981, NaN, NaN, NaN, 0.0372337, "- N/A -   "
2.05, 69.707, 0.00352925, NaN, NaN, NaN, 0.03601294, "- N/A -   "
2.06, 69.8249, 0.00354591, NaN, NaN, NaN, 0.03601294, "- N/A -   "
2.07, 70.29669, 0.00356257, NaN, NaN, NaN, 0.03601294, "- N/A -   "
2.08, 70.5326, 0.00357646, NaN, NaN, NaN, 0.0372337, "- N/A -   "
2.09, 70.6505, 0.00359034, NaN, NaN, NaN, 0.0384545, "- N/A -   "
2.1, 71.00438, 0.003604224, NaN, NaN, NaN, 0.0396753, "- N/A -   "
2.11, 71.24027, 0.00362088, NaN, NaN, NaN, 0.0396753, "- N/A -   "
2.12, 71.4762, 0.00363477, NaN, NaN, NaN, 0.04089605, "- N/A -   "
2.13, 71.71206, 0.00365143, NaN, NaN, NaN, 0.04089605, "- N/A -   "
2.14, 72.06591, 0.00366531, NaN, NaN, NaN, 0.04211683, "- N/A -   "
2.15, 72.3018, 0.00368197, NaN, NaN, NaN, 0.04211683, "- N/A -   "
2.16, 72.5377, 0.00369863, NaN, NaN, NaN, 0.04211683, "- N/A -   "
2.17, 72.89154, 0.003715294, NaN, NaN, NaN, 0.0433376, "- N/A -   "
2.18, 73.2454, 0.00373195, NaN, NaN, NaN, 0.0433376, "- N/A -   "
2.19, 73.48127, 0.003748615, NaN, NaN, NaN, 0.0433376, "- N/A -   "
2.2, 73.83511, 0.0037625, NaN, NaN, NaN, 0.0433376, "- N/A -   "
2.21, 74.189, 0.00377916, NaN, NaN, NaN, 0.0433376, "- N/A -   "
2.22, 74.3069, 0.00379582, NaN, NaN, NaN, 0.0433376, "- N/A -   "
2.23, 74.7787, 0.00381248, NaN, NaN, NaN, 0.0433376, "- N/A -   "
2.24, 75.13254, 0.00383192, NaN, NaN, NaN, 0.04211683, "- N/A -   "
2.25, 75.36844, 0.00385135, NaN, NaN, NaN, 0.04211683, "- N/A -   "
2.26, 75.7223, 0.00386802, NaN, NaN, NaN, 0.04089605, "- N/A -   "
2.27, 76.07612, 0.003884676, NaN, NaN, NaN, 0.04089605, "- N/A -   "
2.28, 76.43, 0.00390689, NaN, NaN, NaN, 0.0396753, "- N/A -   "
2.29, 76.7838, 0.003926327, NaN, NaN, NaN, 0.0372337, "- N/A -   "
2.3, 77.25559, 0.00394576, NaN, NaN, NaN, 0.03601294, "- N/A -   "
2.31, 77.6094, 0.003962425, NaN, NaN, NaN, 0.03601294, "- N/A -   "
2.32, 77.84533, 0.00397909, NaN, NaN, NaN, 0.03601294, "- N/A -   "
2.33, 78.19917, 0.003995746, NaN, NaN, NaN, 0.03601294, "- N/A -   "
2.34, 78.4351, 0.004015183, NaN, NaN, NaN, 0.0347922, "- N/A -   "
2.35, 78.78891, 0.00403184, NaN, NaN, NaN, 0.0347922, "- N/A -   "
2.36, 79.14275, 0.004051281, NaN, NaN, NaN, 0.0335714, "- N/A -   "
2.37, 79.4966, 0.00407072, NaN, NaN, NaN, 0.0323506, "- N/A -   "
2.38, 79.85043, 0.00409016, NaN, NaN, NaN, 0.03112983, "- N/A -   "
2.39, 80.20428, 0.004106816, NaN, NaN, NaN, 0.03112983, "- N/A -   "
2.4, 80.55813, 0.004126253, NaN, NaN, NaN, 0.0299091, "- N/A -   "
2.41, 80.794, 0.00414569, NaN, NaN, NaN, 0.0299091, "- N/A -   "
2.42, 81.14786, 0.00415957, NaN, NaN, NaN, 0.0299091, "- N/A -   "
2.43, 81.5017, 0.004173458, NaN, NaN, NaN, 0.03112983, "- N/A -   "
2.44, 81.8555, 0.0041929, NaN, NaN, NaN, 0.03112983, "- N/A -   "
2.45, 82.09144, 0.00420956, NaN, NaN, NaN, 0.03112983, "- N/A -   "
2.46, 82.44528, 0.00422344, NaN, NaN, NaN, 0.03112983, "- N/A -   "
2.47, 82.68118, 0.004237323, NaN, NaN, NaN, 0.0323506, "- N/A -   "
2.48, 83.03502, 0.004253984, NaN, NaN, NaN, 0.0323506, "- N/A -   "
2.49, 83.27091, 0.00426787, NaN, NaN, NaN, 0.0335714, "- N/A -   "
2.5, 83.50681, 0.004284528, NaN, NaN, NaN, 0.0335714, "- N/A -   "
2.51, 83.86065, 0.004298412, NaN, NaN, NaN, 0.0347922, "- N/A -   "
2.52, 84.09654, 0.004315072, NaN, NaN, NaN, 0.0347922, "- N/A -   "
2.53, 84.45039, 0.00433173, NaN, NaN, NaN, 0.0347922, "- N/A -   "
2.54, 84.68629, 0.00434839, NaN, NaN, NaN, 0.0347922, "- N/A -   "
2.55, 85.04012, 0.004362277, NaN, NaN, NaN, 0.03601294, "- N/A -   "
2.56, 85.15807, 0.00437894, NaN, NaN, NaN, 0.03601294, "- N/A -   "
2.57, 85.74781, 0.004398375, NaN, NaN, NaN, 0.03601294, "- N/A -   "
2.58, 85.9837, 0.00441504, NaN, NaN, NaN, 0.0347922, "- N/A -   "
2.59, 86.33755, 0.0044317, NaN, NaN, NaN, 0.0347922, "- N/A -   "
2.6, 86.69139, 0.00445113, NaN, NaN, NaN, 0.0335714, "- N/A -   "
2.61, 87.04523, 0.00446779, NaN, NaN, NaN, 0.0335714, "- N/A -   "
2.62, 87.39908, 0.004484454, NaN, NaN, NaN, 0.0335714, "- N/A -   "
2.63, 87.63497, 0.00450111, NaN, NaN, NaN, 0.0347922, "- N/A -   "
2.64, 87.9888, 0.00451778, NaN, NaN, NaN, 0.0335714, "- N/A -   "
2.65, 88.34265, 0.00453721, NaN, NaN, NaN, 0.0335714, "- N/A -   "
2.66, 88.6965, 0.0045511, NaN, NaN, NaN, 0.0335714, "- N/A -   "
2.67, 89.05035, 0.004567757, NaN, NaN, NaN, 0.0335714, "- N/A -   "
2.68, 89.28623, 0.00458164, NaN, NaN, NaN, 0.0347922, "- N/A -   "
2.69, 89.6401, 0.004595524, NaN, NaN, NaN, 0.03601294, "- N/A -   "
2.7, 89.758, 0.004612185, NaN, NaN, NaN, 0.03601294, "- N/A -   "
2.71, 90.11186, 0.00462607, NaN, NaN, NaN, 0.0372337, "- N/A -   "
2.72, 90.4657, 0.004642729, NaN, NaN, NaN, 0.0372337, "- N/A -   "
2.73, 90.81956, 0.00465939, NaN, NaN, NaN, 0.0372337, "- N/A -   "
2.74, 91.05545, 0.00467605, NaN, NaN, NaN, 0.0372337, "- N/A -   "
2.75, 91.40929, 0.00469271, NaN, NaN, NaN, 0.0372337, "- N/A -   "
2.76, 91.64519, 0.00470659, NaN, NaN, NaN, 0.0384545, "- N/A -   "
2.77, 91.99903, 0.004720478, NaN, NaN, NaN, 0.0396753, "- N/A -   "
2.78, 92.23492, 0.00473714, NaN, NaN, NaN, 0.04089605, "- N/A -   "
2.79, 92.58876, 0.00475102, NaN, NaN, NaN, 0.04089605, "- N/A -   "
2.8, 92.82466, 0.004767683, NaN, NaN, NaN, 0.04089605, "- N/A -   "
2.81, 93.1785, 0.00478434, NaN, NaN, NaN, 0.04089605, "- N/A -   "
2.82, 93.53234, 0.004801004, NaN, NaN, NaN, 0.04089605, "- N/A -   "
2.83, 93.8862, 0.00481766, NaN, NaN, NaN, 0.04089605, "- N/A -   "
2.84, 94.1221, 0.0048371, NaN, NaN, NaN, 0.0396753, "- N/A -   "
2.85, 94.47592, 0.004853762, NaN, NaN, NaN, 0.04089605, "- N/A -   "
2.86, 94.8298, 0.004870423, NaN, NaN, NaN, 0.0396753, "- N/A -   "
2.87, 95.18361, 0.004887083, NaN, NaN, NaN, 0.0396753, "- N/A -   "
2.88, 95.5374, 0.00490374, NaN, NaN, NaN, 0.0396753, "- N/A -   "
2.89, 95.8913, 0.004920405, NaN, NaN, NaN, 0.0396753, "- N/A -   "
2.9, 96.12719, 0.004937065, NaN, NaN, NaN, 0.0396753, "- N/A -   "
2.91, 96.481, 0.004950949, NaN, NaN, NaN, 0.04089605, "- N/A -   "
2.92, 96.71693, 0.004967609, NaN, NaN, NaN, 0.04211683, "- N/A -   "
2.93, 97.07077, 0.00498427, NaN, NaN, NaN, 0.04089605, "- N/A -   "
2.94, 97.4246, 0.00500093, NaN, NaN, NaN, 0.04089605, "- N/A -   "
2.95, 97.8964, 0.00502037, NaN, NaN, NaN, 0.0396753, "- N/A -   "
2.96, 98.13229, 0.005039805, NaN, NaN, NaN, 0.0396753, "- N/A -   "
2.97, 98.4861, 0.005056465, NaN, NaN, NaN, 0.0384545, "- N/A -   "
2.98, 98.9579, 0.0050759, NaN, NaN, NaN, 0.0372337, "- N/A -   "
2.99, 99.3118, 0.00509534, NaN, NaN, NaN, 0.03601294, "- N/A -   "
3, 99.66561, 0.005114777, NaN, NaN, NaN, 0.0347922, "- N/A -   "
3.01, 100.019, 0.00513144, NaN, NaN, NaN, 0.0347922, "- N/A -   "
3.02, 100.3733, 0.0051481, NaN, NaN, NaN, 0.0347922, "- N/A -   "
3.03, 100.6092, 0.005164759, NaN, NaN, NaN, 0.0347922, "- N/A -   "
3.04, 100.963, 0.00517864, NaN, NaN, NaN, 0.03601294, "- N/A -   "
3.05, 101.317, 0.005195303, NaN, NaN, NaN, 0.03601294, "- N/A -   "
3.06, 101.553, 0.005209187, NaN, NaN, NaN, 0.0372337, "- N/A -   "
3.07, 101.907, 0.00522862, NaN, NaN, NaN, 0.03601294, "- N/A -   "
3.08, 102.143, 0.00524528, NaN, NaN, NaN, 0.03601294, "- N/A -   "
3.09, 102.496, 0.005261945, NaN, NaN, NaN, 0.03601294, "- N/A -   "
3.1, 102.85, 0.00527861, NaN, NaN, NaN, 0.03601294, "- N/A -   "
3.11, 103.322, 0.00529527, NaN, NaN, NaN, 0.03601294, "- N/A -   "
3.12, 103.558, 0.005314703, NaN, NaN, NaN, 0.0347922, "- N/A -   "
3.13, 104.03, 0.00533136, NaN, NaN, NaN, 0.0347922, "- N/A -   "
3.14, 104.266, 0.005350801, NaN, NaN, NaN, 0.0335714, "- N/A -   "
3.15, 104.737, 0.005370238, NaN, NaN, NaN, 0.0323506, "- N/A -   "
3.16, 105.091, 0.005386899, NaN, NaN, NaN, 0.0323506, "- N/A -   "
3.17, 105.327, 0.00540634, NaN, NaN, NaN, 0.03112983, "- N/A -   "
3.18, 105.799, 0.005422996, NaN, NaN, NaN, 0.03112983, "- N/A -   "
3.19, 106.035, 0.00543966, NaN, NaN, NaN, 0.03112983, "- N/A -   "
3.2, 106.389, 0.00545632, NaN, NaN, NaN, 0.0323506, "- N/A -   "
3.21, 106.625, 0.0054702, NaN, NaN, NaN, 0.0323506, "- N/A -   "
3.22, 106.86, 0.005484085, NaN, NaN, NaN, 0.0335714, "- N/A -   "
3.23, 107.214, 0.00550075, NaN, NaN, NaN, 0.0347922, "- N/A -   "
3.24, 107.568, 0.005514629, NaN, NaN, NaN, 0.0347922, "- N/A -   "
3.25, 107.922, 0.005534066, NaN, NaN, NaN, 0.0335714, "- N/A -   "
3.26, 108.276, 0.00555073, NaN, NaN, NaN, 0.0335714, "- N/A -   "
3.27, 108.512, 0.00556739, NaN, NaN, NaN, 0.0335714, "- N/A -   "
3.28, 108.866, 0.00558683, NaN, NaN, NaN, 0.0335714, "- N/A -   "
3.29, 109.219, 0.005600708, NaN, NaN, NaN, 0.0335714, "- N/A -   "
3.3, 109.5732, 0.00561737, NaN, NaN, NaN, 0.0335714, "- N/A -   "
3.31, 109.8091, 0.00563403, NaN, NaN, NaN, 0.0347922, "- N/A -   "
3.32, 110.163, 0.00564791, NaN, NaN, NaN, 0.0347922, "- N/A -   "
3.33, 110.399, 0.0056618, NaN, NaN, NaN, 0.03601294, "- N/A -   "
3.34, 110.753, 0.00567846, NaN, NaN, NaN, 0.03601294, "- N/A -   "
3.35, 110.871, 0.00569512, NaN, NaN, NaN, 0.03601294, "- N/A -   "
3.36, 111.342, 0.005709002, NaN, NaN, NaN, 0.0372337, "- N/A -   "
3.37, 111.578, 0.00572566, NaN, NaN, NaN, 0.0372337, "- N/A -   "
3.38, 111.932, 0.005742323, NaN, NaN, NaN, 0.0372337, "- N/A -   "
3.39, 112.286, 0.00575898, NaN, NaN, NaN, 0.0372337, "- N/A -   "
3.4, 112.758, 0.00577842, NaN, NaN, NaN, 0.03601294, "- N/A -   "
3.41, 112.994, 0.00579508, NaN, NaN, NaN, 0.03601294, "- N/A -   "
3.42, 113.465, 0.005814518, NaN, NaN, NaN, 0.0347922, "- N/A -   "
3.43, 113.819, 0.00583396, NaN, NaN, NaN, 0.0335714, "- N/A -   "
3.44, 114.173, 0.005850616, NaN, NaN, NaN, 0.0335714, "- N/A -   "
3.45, 114.409, 0.0058645, NaN, NaN, NaN, 0.0347922, "- N/A -   "
3.46, 114.763, 0.00587838, NaN, NaN, NaN, 0.03601294, "- N/A -   "
3.47, 114.999, 0.00589227, NaN, NaN, NaN, 0.0372337, "- N/A -   "
3.48, 115.235, 0.005908928, NaN, NaN, NaN, 0.0372337, "- N/A -   "
3.49, 115.589, 0.00592559, NaN, NaN, NaN, 0.0384545, "- N/A -   "
3.5, 115.942, 0.00594225, NaN, NaN, NaN, 0.0384545, "- N/A -   "
3.51, 116.178, 0.00595891, NaN, NaN, NaN, 0.0372337, "- N/A -   "
3.52, 116.5321, 0.00597557, NaN, NaN, NaN, 0.0372337, "- N/A -   "
3.53, 116.886, 0.00599223, NaN, NaN, NaN, 0.0372337, "- N/A -   "
3.54, 117.24, 0.006006114, NaN, NaN, NaN, 0.0384545, "- N/A -   "
3.55, 117.476, 0.006022774, NaN, NaN, NaN, 0.0384545, "- N/A -   "
3.56, 117.712, 0.00603666, NaN, NaN, NaN, 0.0396753, "- N/A -   "
3.57, 118.065, 0.006050542, NaN, NaN, NaN, 0.04089605, "- N/A -   "
3.58, 118.301, 0.0060672, NaN, NaN, NaN, 0.04089605, "- N/A -   "
3.59, 118.655, 0.006081086, NaN, NaN, NaN, 0.04211683, "- N/A -   "
3.6, 118.891, 0.00609775, NaN, NaN, NaN, 0.04211683, "- N/A -   "
3.61, 119.245, 0.00611163, NaN, NaN, NaN, 0.0433376, "- N/A -   "
3.62, 119.717, 0.006133844, NaN, NaN, NaN, 0.0433376, "- N/A -   "
3.63, 120.071, 0.00615051, NaN, NaN, NaN, 0.04211683, "- N/A -   "
3.64, 120.188, 0.006167166, NaN, NaN, NaN, 0.04211683, "- N/A -   "
3.65, 120.66, 0.00618383, NaN, NaN, NaN, 0.04211683, "- N/A -   "
3.66, 121.014, 0.006203264, NaN, NaN, NaN, 0.04089605, "- N/A -   "
3.67, 121.486, 0.006219924, NaN, NaN, NaN, 0.04089605, "- N/A -   "
3.68, 121.84, 0.00623936, NaN, NaN, NaN, 0.0396753, "- N/A -   "
3.69, 122.076, 0.0062588, NaN, NaN, NaN, 0.0396753, "- N/A -   "
3.7, 122.429, 0.00627546, NaN, NaN, NaN, 0.0396753, "- N/A -   "
3.71, 122.783, 0.00629212, NaN, NaN, NaN, 0.0384545, "- N/A -   "
3.72, 123.137, 0.00630878, NaN, NaN, NaN, 0.0384545, "- N/A -   "
3.73, 123.7269, 0.00632822, NaN, NaN, NaN, 0.0372337, "- N/A -   "
3.74, 123.963, 0.00634765, NaN, NaN, NaN, 0.03601294, "- N/A -   "
3.75, 124.199, 0.00636432, NaN, NaN, NaN, 0.03601294, "- N/A -   "
3.76, 124.553, 0.00638375, NaN, NaN, NaN, 0.0347922, "- N/A -   "
3.77, 125.024, 0.00640041, NaN, NaN, NaN, 0.0347922, "- N/A -   "
3.78, 125.378, 0.00641985, NaN, NaN, NaN, 0.0335714, "- N/A -   "
3.79, 125.732, 0.00643651, NaN, NaN, NaN, 0.0335714, "- N/A -   "
3.8, 126.086, 0.006453172, NaN, NaN, NaN, 0.0335714, "- N/A -   "
3.81, 126.322, 0.00647261, NaN, NaN, NaN, 0.0335714, "- N/A -   "
3.82, 126.676, 0.00648927, NaN, NaN, NaN, 0.0323506, "- N/A -   "
3.83, 127.029, 0.00650593, NaN, NaN, NaN, 0.0323506, "- N/A -   "
3.84, 127.383, 0.006519814, NaN, NaN, NaN, 0.0335714, "- N/A -   "
3.85, 127.619, 0.006536474, NaN, NaN, NaN, 0.0335714, "- N/A -   "
3.86, 127.855, 0.00655313, NaN, NaN, NaN, 0.0335714, "- N/A -   "
3.87, 128.209, 0.00656979, NaN, NaN, NaN, 0.0335714, "- N/A -   "
3.88, 128.563, 0.00658646, NaN, NaN, NaN, 0.0335714, "- N/A -   "
3.89, 128.799, 0.00660034, NaN, NaN, NaN, 0.0347922, "- N/A -   "
3.9, 129.152, 0.006617, NaN, NaN, NaN, 0.0347922, "- N/A -   "
3.91, 129.388, 0.00663366, NaN, NaN, NaN, 0.0347922, "- N/A -   "
3.92, 129.742, 0.00665032, NaN, NaN, NaN, 0.0347922, "- N/A -   "
3.93, 130.096, 0.00666976, NaN, NaN, NaN, 0.0335714, "- N/A -   "
3.94, 130.4499, 0.00668642, NaN, NaN, NaN, 0.0335714, "- N/A -   "
3.95, 130.804, 0.00670308, NaN, NaN, NaN, 0.0335714, "- N/A -   "
3.96, 131.1576, 0.00671974, NaN, NaN, NaN, 0.0335714, "- N/A -   "
3.97, 131.511, 0.00673918, NaN, NaN, NaN, 0.0323506, "- N/A -   "
3.98, 131.865, 0.00675584, NaN, NaN, NaN, 0.0323506, "- N/A -   "
3.99, 132.337, 0.00677527, NaN, NaN, NaN, 0.03112983, "- N/A -   "
4, 132.6909, 0.006791935, NaN, NaN, NaN, 0.03112983, "- N/A -   "
4.01, 133.045, 0.006808596, NaN, NaN, NaN, 0.03112983, "- N/A -   "
4.02, 133.399, 0.00682803, NaN, NaN, NaN, 0.0299091, "- N/A -   "
4.03, 133.634, 0.00684192, NaN, NaN, NaN, 0.03112983, "- N/A -   "
4.04, 133.988, 0.00685858, NaN, NaN, NaN, 0.03112983, "- N/A -   "
4.05, 134.342, 0.00687246, NaN, NaN, NaN, 0.0323506, "- N/A -   "
4.06, 134.578, 0.006889122, NaN, NaN, NaN, 0.0323506, "- N/A -   "
4.07, 135.05, 0.006905782, NaN, NaN, NaN, 0.0323506, "- N/A -   "
4.08, 135.286, 0.006919666, NaN, NaN, NaN, 0.0335714, "- N/A -   "
4.09, 135.522, 0.006936326, NaN, NaN, NaN, 0.0347922, "- N/A -   "
4.1, 135.875, 0.00694743, NaN, NaN, NaN, 0.03601294, "- N/A -   "
4.11, 136.111, 0.00696687, NaN, NaN, NaN, 0.0347922, "- N/A -   "
4.12, 136.583, 0.00698075, NaN, NaN, NaN, 0.03601294, "- N/A -   "
4.13, 136.937, 0.00699741, NaN, NaN, NaN, 0.03601294, "- N/A -   "
4.14, 137.173, 0.00700852, NaN, NaN, NaN, 0.0384545, "- N/A -   "
4.15, 137.4088, 0.007022406, NaN, NaN, NaN, 0.0396753, "- N/A -   "
4.16, 137.763, 0.00703629, NaN, NaN, NaN, 0.04089605, "- N/A -   "
4.17, 137.999, 0.007050173, NaN, NaN, NaN, 0.04211683, "- N/A -   "
4.18, 138.234, 0.00706683, NaN, NaN, NaN, 0.0433376, "- N/A -   "
4.19, 138.47, 0.007080717, NaN, NaN, NaN, 0.0433376, "- N/A -   "
4.2, 138.942, 0.00709738, NaN, NaN, NaN, 0.0433376, "- N/A -   "
4.21, 139.178, 0.007111262, NaN, NaN, NaN, 0.0445584, "- N/A -   "
4.22, 139.532, 0.00712792, NaN, NaN, NaN, 0.0445584, "- N/A -   "
4.23, 139.768, 0.007141806, NaN, NaN, NaN, 0.04577916, "- N/A -   "
4.24, 140.1216, 0.00715569, NaN, NaN, NaN, 0.04699994, "- N/A -   "
4.25, 140.475, 0.00717235, NaN, NaN, NaN, 0.04699994, "- N/A -   "
4.26, 140.829, 0.00718901, NaN, NaN, NaN, 0.04699994, "- N/A -   "
4.27, 141.301, 0.00720567, NaN, NaN, NaN, 0.04699994, "- N/A -   "
4.28, 141.537, 0.007222332, NaN, NaN, NaN, 0.04699994, "- N/A -   "
4.29, 142.009, 0.00724177, NaN, NaN, NaN, 0.04699994, "- N/A -   "
4.3, 142.3626, 0.00725843, NaN, NaN, NaN, 0.04699994, "- N/A -   "
4.31, 142.5985, 0.00727509, NaN, NaN, NaN, 0.04577916, "- N/A -   "
4.32, 143.07, 0.007294527, NaN, NaN, NaN, 0.0445584, "- N/A -   "
4.33, 143.542, 0.00731396, NaN, NaN, NaN, 0.0433376, "- N/A -   "
4.34, 143.896, 0.007333402, NaN, NaN, NaN, 0.04211683, "- N/A -   "
4.35, 144.368, 0.00735284, NaN, NaN, NaN, 0.04089605, "- N/A -   "
4.36, 144.722, 0.00737228, NaN, NaN, NaN, 0.04089605, "- N/A -   "
4.37, 145.193, 0.007391713, NaN, NaN, NaN, 0.0396753, "- N/A -   "
4.38, 145.665, 0.00740837, NaN, NaN, NaN, 0.0384545, "- N/A -   "
4.39, 145.901, 0.007427811, NaN, NaN, NaN, 0.0384545, "- N/A -   "
4.4, 146.3728, 0.00744447, NaN, NaN, NaN, 0.0372337, "- N/A -   "
4.41, 146.6087, 0.00746391, NaN, NaN, NaN, 0.03601294, "- N/A -   "
4.42, 147.0805, 0.007480569, NaN, NaN, NaN, 0.03601294, "- N/A -   "
4.43, 147.434, 0.00749723, NaN, NaN, NaN, 0.03601294, "- N/A -   "
4.44, 147.788, 0.00751389, NaN, NaN, NaN, 0.03601294, "- N/A -   "
4.45, 148.142, 0.00753333, NaN, NaN, NaN, 0.03601294, "- N/A -   "
4.46, 148.496, 0.00754999, NaN, NaN, NaN, 0.0347922, "- N/A -   "
4.47, 148.8497, 0.007566649, NaN, NaN, NaN, 0.0347922, "- N/A -   "
4.48, 149.204, 0.00758609, NaN, NaN, NaN, 0.0335714, "- N/A -   "
4.49, 149.675, 0.007605523, NaN, NaN, NaN, 0.0323506, "- N/A -   "
4.5, 150.029, 0.007622184, NaN, NaN, NaN, 0.0323506, "- N/A -   "
4.51, 150.383, 0.00763884, NaN, NaN, NaN, 0.0323506, "- N/A -   "
4.52, 150.737, 0.007655505, NaN, NaN, NaN, 0.0323506, "- N/A -   "
4.53, 151.209, 0.00767494, NaN, NaN, NaN, 0.03112983, "- N/A -   "
4.54, 151.445, 0.0076916, NaN, NaN, NaN, 0.03112983, "- N/A -   "
4.55, 151.798, 0.007708263, NaN, NaN, NaN, 0.03112983, "- N/A -   "
4.56, 152.27, 0.0077277, NaN, NaN, NaN, 0.03112983, "- N/A -   "
4.57, 152.624, 0.00774436, NaN, NaN, NaN, 0.0299091, "- N/A -   "
4.58, 153.096, 0.007761021, NaN, NaN, NaN, 0.0299091, "- N/A -   "
4.59, 153.332, 0.00777768, NaN, NaN, NaN, 0.0299091, "- N/A -   "
4.6, 153.686, 0.007794343, NaN, NaN, NaN, 0.0299091, "- N/A -   "
4.61, 154.0394, 0.007811003, NaN, NaN, NaN, 0.0299091, "- N/A -   "
4.62, 154.393, 0.007827663, NaN, NaN, NaN, 0.0299091, "- N/A -   "
4.63, 154.629, 0.007844324, NaN, NaN, NaN, 0.0299091, "- N/A -   "
4.64, 155.101, 0.007860985, NaN, NaN, NaN, 0.0299091, "- N/A -   "
4.65, 155.455, 0.007877645, NaN, NaN, NaN, 0.03112983, "- N/A -   "
4.66, 155.691, 0.00789431, NaN, NaN, NaN, 0.03112983, "- N/A -   "
4.67, 156.162, 0.007910967, NaN, NaN, NaN, 0.0299091, "- N/A -   "
4.68, 156.5163, 0.007924849, NaN, NaN, NaN, 0.03112983, "- N/A -   "
4.69, 156.752, 0.00794151, NaN, NaN, NaN, 0.03112983, "- N/A -   "
4.7, 157.106, 0.007955395, NaN, NaN, NaN, 0.0323506, "- N/A -   "
4.71, 157.342, 0.007969277, NaN, NaN, NaN, 0.0335714, "- N/A -   "
4.72, 157.578, 0.007983161, NaN, NaN, NaN, 0.0347922, "- N/A -   "
4.73, 157.932, 0.007997045, NaN, NaN, NaN, 0.03601294, "- N/A -   "
4.74, 158.168, 0.008013706, NaN, NaN, NaN, 0.03601294, "- N/A -   "
4.75, 158.521, 0.008027589, NaN, NaN, NaN, 0.0372337, "- N/A -   "
4.76, 158.7573, 0.008041473, NaN, NaN, NaN, 0.0384545, "- N/A -   "
4.77, 159.111, 0.008058134, NaN, NaN, NaN, 0.0384545, "- N/A -   "
4.78, 159.347, 0.008072018, NaN, NaN, NaN, 0.0396753, "- N/A -   "
4.79, 159.701, 0.008085901, NaN, NaN, NaN, 0.04089605, "- N/A -   "
4.8, 159.937, 0.008099785, NaN, NaN, NaN, 0.04211683, "- N/A -   "
4.81, 160.2906, 0.00811645, NaN, NaN, NaN, 0.04211683, "- N/A -   "
4.82, 160.644, 0.00813033, NaN, NaN, NaN, 0.0433376, "- N/A -   "
4.83, 160.998, 0.008146989, NaN, NaN, NaN, 0.0445584, "- N/A -   "
4.84, 161.234, 0.008160873, NaN, NaN, NaN, 0.0445584, "- N/A -   "
4.85, 161.588, 0.008177535, NaN, NaN, NaN, 0.0445584, "- N/A -   "
4.86, 161.942, 0.008194195, NaN, NaN, NaN, 0.0445584, "- N/A -   "
4.87, 162.296, 0.008213632, NaN, NaN, NaN, 0.0445584, "- N/A -   "
4.88, 162.768, 0.008230293, NaN, NaN, NaN, 0.0433376, "- N/A -   "
4.89, 163.0034, 0.008244176, NaN, NaN, NaN, 0.0445584, "- N/A -   "
4.9, 163.357, 0.008260837, NaN, NaN, NaN, 0.0445584, "- N/A -   "
4.91, 163.711, 0.00828027, NaN, NaN, NaN, 0.0433376, "- N/A -   "
4.92, 164.065, 0.008296935, NaN, NaN, NaN, 0.0433376, "- N/A -   "
4.93, 164.419, 0.008313595, NaN, NaN, NaN, 0.0433376, "- N/A -   "
4.94, 164.891, 0.008330256, NaN, NaN, NaN, 0.0433376, "- N/A -   "
4.95, 165.2444, 0.008346915, NaN, NaN, NaN, 0.0433376, "- N/A -   "
4.96, 165.4803, 0.008363577, NaN, NaN, NaN, 0.0433376, "- N/A -   "
4.97, 165.952, 0.008380237, NaN, NaN, NaN, 0.0433376, "- N/A -   "
4.98, 166.188, 0.008396897, NaN, NaN, NaN, 0.0433376, "- N/A -   "
4.99, 166.66, 0.008413558, NaN, NaN, NaN, 0.0433376, "- N/A -   "
5, 167.014, 0.008433, NaN, NaN, NaN, 0.04211683, "- N/A -   "
5.01, 167.367, 0.008452433, NaN, NaN, NaN, 0.04089605, "- N/A -   "
5.02, 167.839, 0.00847187, NaN, NaN, NaN, 0.0396753, "- N/A -   "
5.03, 168.193, 0.00849131, NaN, NaN, NaN, 0.0396753, "- N/A -   "
5.04, 168.547, 0.008507968, NaN, NaN, NaN, 0.0384545, "- N/A -   "
5.05, 168.901, 0.008527406, NaN, NaN, NaN, 0.0372337, "- N/A -   "
5.06, 169.255, 0.008544065, NaN, NaN, NaN, 0.0372337, "- N/A -   "
5.07, 169.608, 0.00856073, NaN, NaN, NaN, 0.0372337, "- N/A -   "
5.08, 170.1982, 0.008580163, NaN, NaN, NaN, 0.03601294, "- N/A -   "
5.09, 170.552, 0.008602377, NaN, NaN, NaN, 0.0347922, "- N/A -   "
5.1, 171.024, 0.008621815, NaN, NaN, NaN, 0.0323506, "- N/A -   "
5.11, 171.378, 0.008641251, NaN, NaN, NaN, 0.03112983, "- N/A -   "
5.12, 171.732, 0.008657912, NaN, NaN, NaN, 0.03112983, "- N/A -   "
5.13, 172.085, 0.008677349, NaN, NaN, NaN, 0.03112983, "- N/A -   "
5.14, 172.321, 0.00869401, NaN, NaN, NaN, 0.03112983, "- N/A -   "
5.15, 172.793, 0.008710671, NaN, NaN, NaN, 0.03112983, "- N/A -   "
5.16, 173.1469, 0.008727332, NaN, NaN, NaN, 0.0299091, "- N/A -   "
5.17, 173.501, 0.008743991, NaN, NaN, NaN, 0.0299091, "- N/A -   "
5.18, 173.855, 0.00876343, NaN, NaN, NaN, 0.0286883, "- N/A -   "
5.19, 174.208, 0.008780089, NaN, NaN, NaN, 0.0286883, "- N/A -   "
5.2, 174.6802, 0.00879675, NaN, NaN, NaN, 0.0286883, "- N/A -   "
5.21, 175.034, 0.008816187, NaN, NaN, NaN, 0.0274675, "- N/A -   "
5.22, 175.388, 0.008832848, NaN, NaN, NaN, 0.0274675, "- N/A -   "
5.23, 175.742, 0.008849508, NaN, NaN, NaN, 0.0274675, "- N/A -   "
5.24, 175.978, 0.00886617, NaN, NaN, NaN, 0.0274675, "- N/A -   "
5.25, 176.449, 0.00888283, NaN, NaN, NaN, 0.0286883, "- N/A -   "
5.26, 176.6853, 0.008896713, NaN, NaN, NaN, 0.0286883, "- N/A -   "
5.27, 176.9212, 0.008910597, NaN, NaN, NaN, 0.0299091, "- N/A -   "
5.28, 177.1571, 0.008927258, NaN, NaN, NaN, 0.0299091, "- N/A -   "
5.29, 177.511, 0.008941141, NaN, NaN, NaN, 0.03112983, "- N/A -   "
5.3, 177.865, 0.008955025, NaN, NaN, NaN, 0.0323506, "- N/A -   "
5.31, 178.219, 0.008968908, NaN, NaN, NaN, 0.0335714, "- N/A -   "
5.32, 178.455, 0.00898557, NaN, NaN, NaN, 0.0335714, "- N/A -   "
5.33, 178.926, 0.009002229, NaN, NaN, NaN, 0.0335714, "- N/A -   "
5.34, 179.162, 0.00901889, NaN, NaN, NaN, 0.0335714, "- N/A -   "
5.35, 179.516, 0.009032774, NaN, NaN, NaN, 0.0347922, "- N/A -   "
5.36, 179.752, 0.009046658, NaN, NaN, NaN, 0.03601294, "- N/A -   "
5.37, 179.988, 0.009063318, NaN, NaN, NaN, 0.03601294, "- N/A -   "
5.38, 180.342, 0.009077202, NaN, NaN, NaN, 0.0372337, "- N/A -   "
5.39, 180.696, 0.009093862, NaN, NaN, NaN, 0.0372337, "- N/A -   "
5.4, 181.049, 0.009110523, NaN, NaN, NaN, 0.0372337, "- N/A -   "
5.41, 181.403, 0.00912996, NaN, NaN, NaN, 0.03601294, "- N/A -   "
5.42, 181.875, 0.00914662, NaN, NaN, NaN, 0.03601294, "- N/A -   "
5.43, 182.229, 0.009166058, NaN, NaN, NaN, 0.03601294, "- N/A -   "
5.44, 182.583, 0.009182718, NaN, NaN, NaN, 0.0347922, "- N/A -   "
5.45, 182.937, 0.009199379, NaN, NaN, NaN, 0.0347922, "- N/A -   "
5.46, 183.172, 0.009216039, NaN, NaN, NaN, 0.03601294, "- N/A -   "
5.47, 183.526, 0.009229924, NaN, NaN, NaN, 0.03601294, "- N/A -   "
5.48, 183.8801, 0.009243808, NaN, NaN, NaN, 0.0372337, "- N/A -   "
5.49, 184.116, 0.009260467, NaN, NaN, NaN, 0.0372337, "- N/A -   "
5.5, 184.47, 0.009274351, NaN, NaN, NaN, 0.0384545, "- N/A -   "
5.51, 184.706, 0.009288236, NaN, NaN, NaN, 0.0396753, "- N/A -   "
5.52, 184.942, 0.009302118, NaN, NaN, NaN, 0.04089605, "- N/A -   "
5.53, 185.295, 0.009316002, NaN, NaN, NaN, 0.04211683, "- N/A -   "
5.54, 185.531, 0.009332663, NaN, NaN, NaN, 0.0433376, "- N/A -   "
5.55, 185.885, 0.009346547, NaN, NaN, NaN, 0.0433376, "- N/A -   "
5.56, 186.239, 0.009363208, NaN, NaN, NaN, 0.0433376, "- N/A -   "
5.57, 186.593, 0.009379867, NaN, NaN, NaN, 0.0433376, "- N/A -   "
5.58, 186.829, 0.009393752, NaN, NaN, NaN, 0.0445584, "- N/A -   "
5.59, 187.183, 0.009410412, NaN, NaN, NaN, 0.0445584, "- N/A -   "
5.6, 187.536, 0.00942707, NaN, NaN, NaN, 0.0445584, "- N/A -   "
5.61, 187.89, 0.009443734, NaN, NaN, NaN, 0.04577916, "- N/A -   "
5.62, 188.244, 0.009457616, NaN, NaN, NaN, 0.04577916, "- N/A -   "
5.63, 188.48, 0.00947428, NaN, NaN, NaN, 0.04577916, "- N/A -   "
5.64, 188.834, 0.009493714, NaN, NaN, NaN, 0.04577916, "- N/A -   "
5.65, 189.3057, 0.009510376, NaN, NaN, NaN, 0.0445584, "- N/A -   "
5.66, 189.777, 0.009529812, NaN, NaN, NaN, 0.0433376, "- N/A -   "
5.67, 190.131, 0.00954925, NaN, NaN, NaN, 0.04211683, "- N/A -   "
5.68, 190.485, 0.009568687, NaN, NaN, NaN, 0.04089605, "- N/A -   "
5.69, 190.957, 0.009588124, NaN, NaN, NaN, 0.0396753, "- N/A -   "
5.7, 191.311, 0.009607562, NaN, NaN, NaN, 0.0384545, "- N/A -   "
5.71, 191.665, 0.009626999, NaN, NaN, NaN, 0.0372337, "- N/A -   "
5.72, 192.136, 0.009646436, NaN, NaN, NaN, 0.03601294, "- N/A -   "
5.73, 192.49, 0.009665874, NaN, NaN, NaN, 0.03601294, "- N/A -   "
5.74, 192.962, 0.009682534, NaN, NaN, NaN, 0.0347922, "- N/A -   "
5.75, 193.3159, 0.009701972, NaN, NaN, NaN, 0.0335714, "- N/A -   "
5.76, 193.67, 0.009721409, NaN, NaN, NaN, 0.0323506, "- N/A -   "
5.77, 194.024, 0.00973807, NaN, NaN, NaN, 0.0323506, "- N/A -   "
5.78, 194.377, 0.009757506, NaN, NaN, NaN, 0.03112983, "- N/A -   "
5.79, 194.731, 0.009774166, NaN, NaN, NaN, 0.03112983, "- N/A -   "
5.8, 195.085, 0.00979083, NaN, NaN, NaN, 0.03112983, "- N/A -   "
5.81, 195.321, 0.009807488, NaN, NaN, NaN, 0.03112983, "- N/A -   "
5.82, 195.675, 0.009824148, NaN, NaN, NaN, 0.0323506, "- N/A -   "
5.83, 195.911, 0.009838033, NaN, NaN, NaN, 0.0323506, "- N/A -   "
5.84, 196.147, 0.009854692, NaN, NaN, NaN, 0.0323506, "- N/A -   "
5.85, 196.618, 0.009868576, NaN, NaN, NaN, 0.0335714, "- N/A -   "
5.86, 196.854, 0.009885237, NaN, NaN, NaN, 0.0335714, "- N/A -   "
5.87, 197.09, 0.009899121, NaN, NaN, NaN, 0.0347922, "- N/A -   "
5.88, 197.444, 0.009915782, NaN, NaN, NaN, 0.0347922, "- N/A -   "
5.89, 197.798, 0.009932442, NaN, NaN, NaN, 0.03601294, "- N/A -   "
5.9, 198.152, 0.009949102, NaN, NaN, NaN, 0.0347922, "- N/A -   "
5.91, 198.506, 0.00996576, NaN, NaN, NaN, 0.03601294, "- N/A -   "
5.92, 198.741, 0.009979647, NaN, NaN, NaN, 0.03601294, "- N/A -   "
5.93, 199.095, 0.009996306, NaN, NaN, NaN, 0.03601294, "- N/A -   "
5.94, 199.331, 0.010013, NaN, NaN, NaN, 0.03601294, "- N/A -   "
5.95, 199.685, 0.0100296, NaN, NaN, NaN, 0.03601294, "- N/A -   "
[...]
35.4, 1420.13, 0.0591198, NaN, NaN, NaN, 0.0335714, "- N/A -   "
35.41, 1420.36, 0.05913371, NaN, NaN, NaN, 0.0347922, "- N/A -   "
35.42, 1420.84, 0.0591504, NaN, NaN, NaN, 0.0347922, "- N/A -   "
35.43, 1421.32, 0.059167, NaN, NaN, NaN, 0.03601294, "- N/A -   "
35.44, 1421.68, 0.05918091, NaN, NaN, NaN, 0.03601294, "- N/A -   "
35.45, 1422.15, 0.0591948, NaN, NaN, NaN, 0.0372337, "- N/A -   "
35.46, 1422.39, 0.0592115, NaN, NaN, NaN, 0.0372337, "- N/A -   "
35.47, 1422.869, 0.0592253, NaN, NaN, NaN, 0.0384545, "- N/A -   "
35.48, 1423.23, 0.059242, NaN, NaN, NaN, 0.0396753, "- N/A -   "
35.49, 1423.58, 0.0592531, NaN, NaN, NaN, 0.04089605, "- N/A -   "
35.5, 1424.06, 0.0592698, NaN, NaN, NaN, 0.04089605, "- N/A -   "
35.51, 1424.3, 0.05928365, NaN, NaN, NaN, 0.04211683, "- N/A -   "
35.52, 1424.66, 0.05930031, NaN, NaN, NaN, 0.04211683, "- N/A -   "
35.53, 1425.13, 0.0593142, NaN, NaN, NaN, 0.0433376, "- N/A -   "
35.54, 1425.49, 0.0593281, NaN, NaN, NaN, 0.0445584, "- N/A -   "
35.55, 1425.97, 0.0593447, NaN, NaN, NaN, 0.0445584, "- N/A -   "
35.56, 1426.33, 0.0593614, NaN, NaN, NaN, 0.04577916, "- N/A -   "
35.57, 1426.8, 0.0593753, NaN, NaN, NaN, 0.04577916, "- N/A -   "
35.58, 1427.28, 0.0593919, NaN, NaN, NaN, 0.04577916, "- N/A -   "
35.59, 1427.76, 0.0594114, NaN, NaN, NaN, 0.04577916, "- N/A -   "
35.6, 1428.24, 0.059428, NaN, NaN, NaN, 0.0445584, "- N/A -   "
35.61, 1428.593, 0.0594447, NaN, NaN, NaN, 0.0445584, "- N/A -   "
35.62, 1429.07, 0.0594614, NaN, NaN, NaN, 0.0445584, "- N/A -   "
35.63, 1429.55, 0.059478, NaN, NaN, NaN, 0.0445584, "- N/A -   "
35.64, 1430.024, 0.05949469, NaN, NaN, NaN, 0.0445584, "- N/A -   "
35.65, 1430.5, 0.05951412, NaN, NaN, NaN, 0.0433376, "- N/A -   "
35.66, 1430.86, 0.0595308, NaN, NaN, NaN, 0.0433376, "- N/A -   "
35.67, 1431.46, 0.0595474, NaN, NaN, NaN, 0.0433376, "- N/A -   "
35.68, 1431.813, 0.0595641, NaN, NaN, NaN, 0.0433376, "- N/A -   "
35.69, 1432.29, 0.0595808, NaN, NaN, NaN, 0.0433376, "- N/A -   "
35.7, 1432.767, 0.0595974, NaN, NaN, NaN, 0.0433376, "- N/A -   "
35.71, 1433.244, 0.05961409, NaN, NaN, NaN, 0.0433376, "- N/A -   "
35.72, 1433.6, 0.0596307, NaN, NaN, NaN, 0.0433376, "- N/A -   "
35.73, 1434.08, 0.0596474, NaN, NaN, NaN, 0.0433376, "- N/A -   "
35.74, 1434.56, 0.0596668, NaN, NaN, NaN, 0.04211683, "- N/A -   "
35.75, 1435.03, 0.0596863, NaN, NaN, NaN, 0.04211683, "- N/A -   "
35.76, 1435.51, 0.0597029, NaN, NaN, NaN, 0.04089605, "- N/A -   "
35.77, 1435.99, 0.0597196, NaN, NaN, NaN, 0.04089605, "- N/A -   "
35.78, 1436.46, 0.0597363, NaN, NaN, NaN, 0.04089605, "- N/A -   "
35.79, 1436.94, 0.0597557, NaN, NaN, NaN, 0.0396753, "- N/A -   "
35.8, 1437.537, 0.05977514, NaN, NaN, NaN, 0.0384545, "- N/A -   "
35.81, 1438.13, 0.0597974, NaN, NaN, NaN, 0.03601294, "- N/A -   "
35.82, 1438.73, 0.0598223, NaN, NaN, NaN, 0.0335714, "- N/A -   "
35.83, 1439.33, 0.0598418, NaN, NaN, NaN, 0.03112983, "- N/A -   "
35.84, 1439.922, 0.0598612, NaN, NaN, NaN, 0.0299091, "- N/A -   "
35.85, 1440.399, 0.0598807, NaN, NaN, NaN, 0.0286883, "- N/A -   "
35.86, 1440.88, 0.0599001, NaN, NaN, NaN, 0.0274675, "- N/A -   "
35.87, 1441.353, 0.0599168, NaN, NaN, NaN, 0.0274675, "- N/A -   "
35.88, 1441.71, 0.0599334, NaN, NaN, NaN, 0.0274675, "- N/A -   "
35.89, 1442.19, 0.0599473, NaN, NaN, NaN, 0.0286883, "- N/A -   "
35.9, 1442.55, 0.059964, NaN, NaN, NaN, 0.0286883, "- N/A -   "
35.91, 1443.02, 0.0599806, NaN, NaN, NaN, 0.0286883, "- N/A -   "
35.92, 1443.38, 0.0599973, NaN, NaN, NaN, 0.0286883, "- N/A -   "
35.93, 1443.74, 0.06001116, NaN, NaN, NaN, 0.0299091, "- N/A -   "
35.94, 1444.22, 0.0600278, NaN, NaN, NaN, 0.0299091, "- N/A -   "
35.95, 1444.57, 0.0600445, NaN, NaN, NaN, 0.0299091, "- N/A -   "
35.96, 1445.17, 0.0600584, NaN, NaN, NaN, 0.03112983, "- N/A -   "
35.97, 1445.41, 0.060075, NaN, NaN, NaN, 0.03112983, "- N/A -   "
35.98, 1445.65, 0.06008891, NaN, NaN, NaN, 0.0323506, "- N/A -   "
35.99, 1446.12, 0.0601028, NaN, NaN, NaN, 0.0335714, "- N/A -   "
36, 1446.6, 0.0601167, NaN, NaN, NaN, 0.0347922, "- N/A -   "
36.01, 1446.96, 0.06013334, NaN, NaN, NaN, 0.0347922, "- N/A -   "
36.02, 1447.32, 0.0601472, NaN, NaN, NaN, 0.03601294, "- N/A -   "
36.03, 1447.79, 0.0601639, NaN, NaN, NaN, 0.03601294, "- N/A -   "
36.04, 1448.15, 0.0601778, NaN, NaN, NaN, 0.0372337, "- N/A -   "
36.05, 1448.63, 0.0601944, NaN, NaN, NaN, 0.0372337, "- N/A -   "
36.06, 1448.99, 0.06021109, NaN, NaN, NaN, 0.0372337, "- N/A -   "
36.07, 1449.46, 0.0602277, NaN, NaN, NaN, 0.0384545, "- N/A -   "
36.08, 1449.94, 0.0602444, NaN, NaN, NaN, 0.0384545, "- N/A -   "
36.09, 1450.297, 0.0602583, NaN, NaN, NaN, 0.0384545, "- N/A -   "
36.1, 1450.774, 0.060275, NaN, NaN, NaN, 0.0396753, "- N/A -   "
36.11, 1451.13, 0.0602916, NaN, NaN, NaN, 0.0384545, "- N/A -   "
36.12, 1451.61, 0.0603083, NaN, NaN, NaN, 0.0384545, "- N/A -   "
36.13, 1452.09, 0.0603277, NaN, NaN, NaN, 0.0372337, "- N/A -   "
36.14, 1452.56, 0.0603444, NaN, NaN, NaN, 0.0372337, "- N/A -   "
36.15, 1453.04, 0.060361, NaN, NaN, NaN, 0.0372337, "- N/A -   "
36.16, 1453.52, 0.0603777, NaN, NaN, NaN, 0.0372337, "- N/A -   "
36.17, 1453.99, 0.06039713, NaN, NaN, NaN, 0.03601294, "- N/A -   "
36.18, 1454.35, 0.060411, NaN, NaN, NaN, 0.0372337, "- N/A -   "
36.19, 1454.71, 0.0604277, NaN, NaN, NaN, 0.0372337, "- N/A -   "
36.2, 1455.19, 0.0604416, NaN, NaN, NaN, 0.0384545, "- N/A -   "
36.21, 1455.544, 0.0604582, NaN, NaN, NaN, 0.0384545, "- N/A -   "
36.22, 1455.9, 0.0604721, NaN, NaN, NaN, 0.0396753, "- N/A -   "
36.23, 1456.38, 0.06048599, NaN, NaN, NaN, 0.04089605, "- N/A -   "
36.24, 1456.74, 0.06049987, NaN, NaN, NaN, 0.04211683, "- N/A -   "
36.25, 1457.09, 0.0605138, NaN, NaN, NaN, 0.0433376, "- N/A -   "
36.26, 1457.452, 0.0605304, NaN, NaN, NaN, 0.0445584, "- N/A -   "
36.27, 1457.93, 0.0605443, NaN, NaN, NaN, 0.0445584, "- N/A -   "
36.28, 1458.29, 0.06056096, NaN, NaN, NaN, 0.0445584, "- N/A -   "
36.29, 1458.76, 0.06057762, NaN, NaN, NaN, 0.0445584, "- N/A -   "
36.3, 1459.12, 0.06059428, NaN, NaN, NaN, 0.0445584, "- N/A -   "
36.31, 1459.48, 0.0606082, NaN, NaN, NaN, 0.04577916, "- N/A -   "
36.32, 1459.84, 0.0606248, NaN, NaN, NaN, 0.04577916, "- N/A -   "
36.33, 1460.31, 0.0606415, NaN, NaN, NaN, 0.04699994, "- N/A -   "
36.34, 1460.79, 0.0606581, NaN, NaN, NaN, 0.04577916, "- N/A -   "
36.35, 1461.27, 0.0606748, NaN, NaN, NaN, 0.04577916, "- N/A -   "
36.36, 1461.75, 0.0606915, NaN, NaN, NaN, 0.04577916, "- N/A -   "
36.37, 1462.22, 0.0607109, NaN, NaN, NaN, 0.0445584, "- N/A -   "
36.38, 1462.82, 0.0607331, NaN, NaN, NaN, 0.0433376, "- N/A -   "
36.39, 1463.3, 0.0607526, NaN, NaN, NaN, 0.04089605, "- N/A -   "
36.4, 1464.011, 0.060772, NaN, NaN, NaN, 0.0396753, "- N/A -   "
36.41, 1464.49, 0.06079143, NaN, NaN, NaN, 0.0384545, "- N/A -   "
36.42, 1464.96, 0.0608136, NaN, NaN, NaN, 0.03601294, "- N/A -   "
36.43, 1465.68, 0.0608331, NaN, NaN, NaN, 0.0347922, "- N/A -   "
36.44, 1466.04, 0.0608525, NaN, NaN, NaN, 0.0335714, "- N/A -   "
36.45, 1466.63, 0.060872, NaN, NaN, NaN, 0.0323506, "- N/A -   "
36.46, 1467.11, 0.0608914, NaN, NaN, NaN, 0.0323506, "- N/A -   "
36.47, 1467.59, 0.0609081, NaN, NaN, NaN, 0.03112983, "- N/A -   "
36.48, 1468.07, 0.06092749, NaN, NaN, NaN, 0.0299091, "- N/A -   "
36.49, 1468.54, 0.0609469, NaN, NaN, NaN, 0.0286883, "- N/A -   "
36.5, 1469.14, 0.06096359, NaN, NaN, NaN, 0.0286883, "- N/A -   "
36.51, 1469.62, 0.060983, NaN, NaN, NaN, 0.0274675, "- N/A -   "
36.52, 1470.09, 0.0609997, NaN, NaN, NaN, 0.0274675, "- N/A -   "
36.53, 1470.45, 0.06101357, NaN, NaN, NaN, 0.0286883, "- N/A -   "
36.54, 1470.81, 0.0610302, NaN, NaN, NaN, 0.0286883, "- N/A -   "
36.55, 1471.166, 0.06104411, NaN, NaN, NaN, 0.0299091, "- N/A -   "
36.56, 1471.52, 0.061058, NaN, NaN, NaN, 0.03112983, "- N/A -   "
36.57, 1471.88, 0.06107188, NaN, NaN, NaN, 0.0323506, "- N/A -   "
36.58, 1472.24, 0.0610885, NaN, NaN, NaN, 0.0323506, "- N/A -   "
36.59, 1472.72, 0.0611024, NaN, NaN, NaN, 0.0335714, "- N/A -   "
36.6, 1473.07, 0.0611191, NaN, NaN, NaN, 0.0335714, "- N/A -   "
36.61, 1473.43, 0.061133, NaN, NaN, NaN, 0.0347922, "- N/A -   "
36.62, 1473.79, 0.0611469, NaN, NaN, NaN, 0.03601294, "- N/A -   "
36.63, 1474.15, 0.0611635, NaN, NaN, NaN, 0.03601294, "- N/A -   "
36.64, 1474.62, 0.0611802, NaN, NaN, NaN, 0.03601294, "- N/A -   "
36.65, 1474.98, 0.0611968, NaN, NaN, NaN, 0.0372337, "- N/A -   "
36.66, 1475.46, 0.0612107, NaN, NaN, NaN, 0.0372337, "- N/A -   "
36.67, 1475.936, 0.0612274, NaN, NaN, NaN, 0.0372337, "- N/A -   "
36.68, 1476.29, 0.06124404, NaN, NaN, NaN, 0.0372337, "- N/A -   "
36.69, 1476.77, 0.0612635, NaN, NaN, NaN, 0.03601294, "- N/A -   "
36.7, 1477.25, 0.06128014, NaN, NaN, NaN, 0.03601294, "- N/A -   "
36.71, 1477.84, 0.0612996, NaN, NaN, NaN, 0.0347922, "- N/A -   "
36.72, 1478.32, 0.061319, NaN, NaN, NaN, 0.0347922, "- N/A -   "
36.73, 1478.8, 0.06133567, NaN, NaN, NaN, 0.0347922, "- N/A -   "
36.74, 1479.156, 0.06135233, NaN, NaN, NaN, 0.0335714, "- N/A -   "
36.75, 1479.75, 0.061369, NaN, NaN, NaN, 0.0335714, "- N/A -   "
36.76, 1480.11, 0.0613829, NaN, NaN, NaN, 0.0347922, "- N/A -   "
36.77, 1480.47, 0.0613995, NaN, NaN, NaN, 0.0347922, "- N/A -   "
36.78, 1480.94, 0.0614162, NaN, NaN, NaN, 0.0347922, "- N/A -   "
36.79, 1481.42, 0.0614329, NaN, NaN, NaN, 0.0347922, "- N/A -   "
36.8, 1481.78, 0.06144952, NaN, NaN, NaN, 0.0347922, "- N/A -   "
36.81, 1482.26, 0.0614634, NaN, NaN, NaN, 0.03601294, "- N/A -   "
36.82, 1482.61, 0.0614801, NaN, NaN, NaN, 0.03601294, "- N/A -   "
36.83, 1482.972, 0.0614939, NaN, NaN, NaN, 0.0372337, "- N/A -   "
36.84, 1483.33, 0.0615106, NaN, NaN, NaN, 0.0372337, "- N/A -   "
36.85, 1483.69, 0.06152449, NaN, NaN, NaN, 0.0384545, "- N/A -   "
36.86, 1484.16, 0.0615384, NaN, NaN, NaN, 0.0396753, "- N/A -   "
36.87, 1484.52, 0.06155504, NaN, NaN, NaN, 0.0396753, "- N/A -   "
36.88, 1484.88, 0.06156892, NaN, NaN, NaN, 0.04089605, "- N/A -   "
36.89, 1485.36, 0.0615828, NaN, NaN, NaN, 0.04211683, "- N/A -   "
36.9, 1485.6, 0.0615995, NaN, NaN, NaN, 0.04211683, "- N/A -   "
36.91, 1486.07, 0.0616161, NaN, NaN, NaN, 0.0433376, "- N/A -   "
36.92, 1486.43, 0.06163, NaN, NaN, NaN, 0.0433376, "- N/A -   "
36.93, 1487.03, 0.0616494, NaN, NaN, NaN, 0.04211683, "- N/A -   "
36.94, 1487.62, 0.0616661, NaN, NaN, NaN, 0.04211683, "- N/A -   "
36.95, 1487.98, 0.0616828, NaN, NaN, NaN, 0.04211683, "- N/A -   "
36.96, 1488.46, 0.0617022, NaN, NaN, NaN, 0.04089605, "- N/A -   "
36.97, 1488.93, 0.0617189, NaN, NaN, NaN, 0.04089605, "- N/A -   "
36.98, 1489.29, 0.0617355, NaN, NaN, NaN, 0.04089605, "- N/A -   "
36.99, 1489.77, 0.06175219, NaN, NaN, NaN, 0.04089605, "- N/A -   "
37, 1490.25, 0.06177162, NaN, NaN, NaN, 0.0396753, "- N/A -   "
37.01, 1490.72, 0.06178828, NaN, NaN, NaN, 0.04089605, "- N/A -   "
37.02, 1491.08, 0.0618022, NaN, NaN, NaN, 0.04089605, "- N/A -   "
37.03, 1491.56, 0.06181605, NaN, NaN, NaN, 0.04211683, "- N/A -   "
37.04, 1492.04, 0.06183549, NaN, NaN, NaN, 0.04089605, "- N/A -   "
37.05, 1492.51, 0.06185215, NaN, NaN, NaN, 0.04089605, "- N/A -   "
37.06, 1492.99, 0.06187159, NaN, NaN, NaN, 0.0396753, "- N/A -   "
37.07, 1493.35, 0.0618882, NaN, NaN, NaN, 0.0396753, "- N/A -   "
37.08, 1493.94, 0.0619077, NaN, NaN, NaN, 0.0384545, "- N/A -   "
37.09, 1494.3, 0.0619243, NaN, NaN, NaN, 0.0384545, "- N/A -   "
37.1, 1494.9, 0.06194378, NaN, NaN, NaN, 0.0372337, "- N/A -   "
37.11, 1495.25, 0.0619604, NaN, NaN, NaN, 0.0372337, "- N/A -   "
37.12, 1495.73, 0.0619771, NaN, NaN, NaN, 0.0372337, "- N/A -   "
37.13, 1496.209, 0.0619938, NaN, NaN, NaN, 0.0372337, "- N/A -   "
37.14, 1496.69, 0.0620104, NaN, NaN, NaN, 0.0372337, "- N/A -   "
37.15, 1497.163, 0.06202708, NaN, NaN, NaN, 0.0372337, "- N/A -   "
37.16, 1497.52, 0.062041, NaN, NaN, NaN, 0.0384545, "- N/A -   "
37.17, 1497.88, 0.0620576, NaN, NaN, NaN, 0.0384545, "- N/A -   "
37.18, 1498.24, 0.0620743, NaN, NaN, NaN, 0.0384545, "- N/A -   "
37.19, 1498.71, 0.06209095, NaN, NaN, NaN, 0.0384545, "- N/A -   "
37.2, 1499.071, 0.06210761, NaN, NaN, NaN, 0.0384545, "- N/A -   "
37.21, 1499.55, 0.06212427, NaN, NaN, NaN, 0.0384545, "- N/A -   "
37.22, 1499.91, 0.06214093, NaN, NaN, NaN, 0.0384545, "- N/A -   "
37.23, 1500.5, 0.06216037, NaN, NaN, NaN, 0.0372337, "- N/A -   "
37.24, 1500.98, 0.0621798, NaN, NaN, NaN, 0.03601294, "- N/A -   "
37.25, 1501.69, 0.0621992, NaN, NaN, NaN, 0.0347922, "- N/A -   "
37.26, 1502.17, 0.0622187, NaN, NaN, NaN, 0.0335714, "- N/A -   "
37.27, 1502.53, 0.0622381, NaN, NaN, NaN, 0.0323506, "- N/A -   "
37.28, 1503.13, 0.0622548, NaN, NaN, NaN, 0.0323506, "- N/A -   "
37.29, 1503.6, 0.0622742, NaN, NaN, NaN, 0.03112983, "- N/A -   "
37.3, 1504.08, 0.0622909, NaN, NaN, NaN, 0.03112983, "- N/A -   "
37.31, 1504.44, 0.0623075, NaN, NaN, NaN, 0.03112983, "- N/A -   "
37.32, 1504.8, 0.0623242, NaN, NaN, NaN, 0.03112983, "- N/A -   "
37.33, 1505.39, 0.0623409, NaN, NaN, NaN, 0.03112983, "- N/A -   "
37.34, 1505.63, 0.0623547, NaN, NaN, NaN, 0.0323506, "- N/A -   "
37.35, 1506.11, 0.0623714, NaN, NaN, NaN, 0.0323506, "- N/A -   "
37.36, 1506.46, 0.0623853, NaN, NaN, NaN, 0.0335714, "- N/A -   "
37.37, 1506.94, 0.0624019, NaN, NaN, NaN, 0.0335714, "- N/A -   "
37.38, 1507.42, 0.0624186, NaN, NaN, NaN, 0.0335714, "- N/A -   "
37.39, 1507.78, 0.0624353, NaN, NaN, NaN, 0.0335714, "- N/A -   "
37.4, 1508.13, 0.0624519, NaN, NaN, NaN, 0.0335714, "- N/A -   "
37.41, 1508.61, 0.0624686, NaN, NaN, NaN, 0.0335714, "- N/A -   "
37.42, 1509.09, 0.0624852, NaN, NaN, NaN, 0.0335714, "- N/A -   "
37.43, 1509.57, 0.06250191, NaN, NaN, NaN, 0.0335714, "- N/A -   "
37.44, 1509.923, 0.06251857, NaN, NaN, NaN, 0.0335714, "- N/A -   "
37.45, 1510.4, 0.06253523, NaN, NaN, NaN, 0.0335714, "- N/A -   "
37.46, 1510.76, 0.06255189, NaN, NaN, NaN, 0.0335714, "- N/A -   "
37.47, 1511.23, 0.0625713, NaN, NaN, NaN, 0.0335714, "- N/A -   "
37.48, 1511.59, 0.06258521, NaN, NaN, NaN, 0.0335714, "- N/A -   "
37.49, 1512.07, 0.06260465, NaN, NaN, NaN, 0.0335714, "- N/A -   "
37.5, 1512.43, 0.06261853, NaN, NaN, NaN, 0.0335714, "- N/A -   "
37.51, 1513.02, 0.06263797, NaN, NaN, NaN, 0.0323506, "- N/A -   "
37.52, 1513.5, 0.06265463, NaN, NaN, NaN, 0.0323506, "- N/A -   "
37.53, 1513.86, 0.06267129, NaN, NaN, NaN, 0.0323506, "- N/A -   "
37.54, 1514.216, 0.06268518, NaN, NaN, NaN, 0.0335714, "- N/A -   "
37.55, 1514.693, 0.0627018, NaN, NaN, NaN, 0.0335714, "- N/A -   "
37.56, 1515.05, 0.06271572, NaN, NaN, NaN, 0.0347922, "- N/A -   "
37.57, 1515.29, 0.0627324, NaN, NaN, NaN, 0.03601294, "- N/A -   "
37.58, 1515.77, 0.0627463, NaN, NaN, NaN, 0.03601294, "- N/A -   "
37.59, 1516.124, 0.06276292, NaN, NaN, NaN, 0.0372337, "- N/A -   "
37.6, 1516.6, 0.0627768, NaN, NaN, NaN, 0.0372337, "- N/A -   "
37.61, 1516.84, 0.06279069, NaN, NaN, NaN, 0.0384545, "- N/A -   "
37.62, 1517.32, 0.06280457, NaN, NaN, NaN, 0.0396753, "- N/A -   "
37.63, 1517.79, 0.06282123, NaN, NaN, NaN, 0.0396753, "- N/A -   "
37.64, 1518.15, 0.06283512, NaN, NaN, NaN, 0.04089605, "- N/A -   "
37.65, 1518.509, 0.06285178, NaN, NaN, NaN, 0.04089605, "- N/A -   "
37.66, 1518.87, 0.06286844, NaN, NaN, NaN, 0.04089605, "- N/A -   "
37.67, 1519.34, 0.06288233, NaN, NaN, NaN, 0.04211683, "- N/A -   "
37.68, 1519.7, 0.062899, NaN, NaN, NaN, 0.04211683, "- N/A -   "
37.69, 1520.06, 0.06291287, NaN, NaN, NaN, 0.0433376, "- N/A -   "
37.7, 1520.42, 0.06292675, NaN, NaN, NaN, 0.0445584, "- N/A -   "
37.71, 1520.89, 0.06294341, NaN, NaN, NaN, 0.0445584, "- N/A -   "
37.72, 1521.252, 0.0629573, NaN, NaN, NaN, 0.04577916, "- N/A -   "
37.73, 1521.729, 0.062974, NaN, NaN, NaN, 0.04577916, "- N/A -   "
37.74, 1522.21, 0.06299062, NaN, NaN, NaN, 0.04577916, "- N/A -   "
37.75, 1522.68, 0.06300728, NaN, NaN, NaN, 0.04577916, "- N/A -   "
37.76, 1523.16, 0.06302394, NaN, NaN, NaN, 0.04577916, "- N/A -   "
37.77, 1523.52, 0.06304338, NaN, NaN, NaN, 0.0445584, "- N/A -   "
37.78, 1524.11, 0.06306281, NaN, NaN, NaN, 0.0433376, "- N/A -   "
37.79, 1524.591, 0.06307948, NaN, NaN, NaN, 0.0433376, "- N/A -   "
37.8, 1525.07, 0.06309891, NaN, NaN, NaN, 0.04211683, "- N/A -   "
37.81, 1525.54, 0.0631156, NaN, NaN, NaN, 0.04211683, "- N/A -   "
37.82, 1526.022, 0.063135, NaN, NaN, NaN, 0.04089605, "- N/A -   "
37.83, 1526.5, 0.0631544, NaN, NaN, NaN, 0.0396753, "- N/A -   "
37.84, 1526.976, 0.0631767, NaN, NaN, NaN, 0.0372337, "- N/A -   "
37.85, 1527.57, 0.06319609, NaN, NaN, NaN, 0.03601294, "- N/A -   "
37.86, 1528.17, 0.06321553, NaN, NaN, NaN, 0.0347922, "- N/A -   "
37.87, 1528.65, 0.06323219, NaN, NaN, NaN, 0.0347922, "- N/A -   "
37.88, 1529.12, 0.06325441, NaN, NaN, NaN, 0.0335714, "- N/A -   "
37.89, 1529.6, 0.06327107, NaN, NaN, NaN, 0.0323506, "- N/A -   "
37.9, 1530.08, 0.06328773, NaN, NaN, NaN, 0.0323506, "- N/A -   "
37.91, 1530.67, 0.06330439, NaN, NaN, NaN, 0.0323506, "- N/A -   "
37.92, 1530.91, 0.0633238, NaN, NaN, NaN, 0.0323506, "- N/A -   "
37.93, 1531.39, 0.0633405, NaN, NaN, NaN, 0.03112983, "- N/A -   "
37.94, 1531.87, 0.0633571, NaN, NaN, NaN, 0.03112983, "- N/A -   "
37.95, 1532.34, 0.06337103, NaN, NaN, NaN, 0.0323506, "- N/A -   "
37.96, 1532.82, 0.06339046, NaN, NaN, NaN, 0.03112983, "- N/A -   "
37.97, 1533.18, 0.06340713, NaN, NaN, NaN, 0.03112983, "- N/A -   "
37.98, 1533.53, 0.06342102, NaN, NaN, NaN, 0.0323506, "- N/A -   "
37.99, 1534.01, 0.06343768, NaN, NaN, NaN, 0.0323506, "- N/A -   "
38, 1534.37, 0.06345434, NaN, NaN, NaN, 0.0323506, "- N/A -   "
38.01, 1534.73, 0.063471, NaN, NaN, NaN, 0.0323506, "- N/A -   "
38.02, 1535.32, 0.06348766, NaN, NaN, NaN, 0.0323506, "- N/A -   "
38.03, 1535.68, 0.0635043, NaN, NaN, NaN, 0.0323506, "- N/A -   "
38.04, 1536.16, 0.063521, NaN, NaN, NaN, 0.0323506, "- N/A -   "
38.05, 1536.52, 0.0635404, NaN, NaN, NaN, 0.03112983, "- N/A -   "
38.06, 1537.11, 0.06355985, NaN, NaN, NaN, 0.03112983, "- N/A -   "
38.07, 1537.59, 0.06357651, NaN, NaN, NaN, 0.0299091, "- N/A -   "
38.08, 1538.07, 0.06359317, NaN, NaN, NaN, 0.0299091, "- N/A -   "
38.09, 1538.42, 0.06361261, NaN, NaN, NaN, 0.0286883, "- N/A -   "
38.1, 1538.9, 0.06362927, NaN, NaN, NaN, 0.0286883, "- N/A -   "
38.11, 1539.26, 0.06364593, NaN, NaN, NaN, 0.0286883, "- N/A -   "
38.12, 1539.736, 0.06366259, NaN, NaN, NaN, 0.0286883, "- N/A -   "
38.13, 1540.33, 0.06367925, NaN, NaN, NaN, 0.0286883, "- N/A -   "
38.14, 1540.57, 0.0636931, NaN, NaN, NaN, 0.0299091, "- N/A -   "
38.15, 1541.05, 0.0637098, NaN, NaN, NaN, 0.0299091, "- N/A -   "
38.16, 1541.52, 0.0637265, NaN, NaN, NaN, 0.0299091, "- N/A -   "
38.17, 1541.76, 0.06374034, NaN, NaN, NaN, 0.03112983, "- N/A -   "
38.18, 1542.12, 0.06375422, NaN, NaN, NaN, 0.0323506, "- N/A -   "
38.19, 1542.48, 0.06377088, NaN, NaN, NaN, 0.0323506, "- N/A -   "
38.2, 1542.96, 0.06378754, NaN, NaN, NaN, 0.0323506, "- N/A -   "
38.21, 1543.31, 0.06380143, NaN, NaN, NaN, 0.0335714, "- N/A -   "
38.22, 1543.67, 0.06381531, NaN, NaN, NaN, 0.0347922, "- N/A -   "
38.23, 1544.03, 0.06383197, NaN, NaN, NaN, 0.0347922, "- N/A -   "
38.24, 1544.506, 0.06384864, NaN, NaN, NaN, 0.0347922, "- N/A -   "
38.25, 1544.86, 0.0638653, NaN, NaN, NaN, 0.03601294, "- N/A -   "
38.26, 1545.34, 0.06387918, NaN, NaN, NaN, 0.03601294, "- N/A -   "
38.27, 1545.58, 0.06389306, NaN, NaN, NaN, 0.0372337, "- N/A -   "
38.28, 1546.06, 0.0639069, NaN, NaN, NaN, 0.0384545, "- N/A -   "
38.29, 1546.29, 0.0639181, NaN, NaN, NaN, 0.04089605, "- N/A -   "
38.3, 1546.65, 0.0639319, NaN, NaN, NaN, 0.04211683, "- N/A -   "
38.31, 1547.01, 0.06394582, NaN, NaN, NaN, 0.0433376, "- N/A -   "
38.32, 1547.25, 0.0639597, NaN, NaN, NaN, 0.0445584, "- N/A -   "
38.33, 1547.61, 0.06397359, NaN, NaN, NaN, 0.04577916, "- N/A -   "
38.34, 1548.08, 0.06398747, NaN, NaN, NaN, 0.04699994, "- N/A -   "
38.35, 1548.44, 0.06400413, NaN, NaN, NaN, 0.04699994, "- N/A -   "
38.36, 1548.92, 0.06402079, NaN, NaN, NaN, 0.04699994, "- N/A -   "
38.37, 1549.4, 0.06403745, NaN, NaN, NaN, 0.04699994, "- N/A -   "
38.38, 1549.75, 0.06405411, NaN, NaN, NaN, 0.04699994, "- N/A -   "
38.389, 1550.23, 0.0640708, NaN, NaN, NaN, 0.04699994, "- N/A -   "