File: 2_Tensile_Data/Hamel_ForceTest_Bolt8_Test11.csv
Time, Load (lb), Position (in), AxialStrain (in), TransverseStrain (in), Auxiliary (), Control Out (V), Stress (psi)
0.0, 14.3896, 0.0, NaN, NaN, NaN, -0.007935055, "- N/A -   "
0.01, 14.5075, 0.0, NaN, NaN, NaN, -6.103888E-4, "- N/A -   "
0.02, 14.3896, 0.0, NaN, NaN, NaN, 0.01037661, "- N/A -   "
0.03, 14.5075, 2.776752E-6, NaN, NaN, NaN, 0.0286883, "- N/A -   "
0.04, 14.6255, 8.330256E-6, NaN, NaN, NaN, 0.04577916, "- N/A -   "
0.05, 14.7434, 1.94373e-05, NaN, NaN, NaN, 0.0604285, "- N/A -   "
0.06, 15.0973, 3.60978e-05, NaN, NaN, NaN, 0.07385705, "- N/A -   "
0.07, 15.4511, 5.5535e-05, NaN, NaN, NaN, 0.08362327, "- N/A -   "
0.08, 16.0409, 8.05258E-5, NaN, NaN, NaN, 0.09216871, "- N/A -   "
0.09, 16.5126, 0.00011107, NaN, NaN, NaN, 0.0982726, "- N/A -   "
0.1, 17.1024, 0.000141614, NaN, NaN, NaN, 0.101935, "- N/A -   "
0.11, 17.6921, 0.000174935, NaN, NaN, NaN, 0.095831, "- N/A -   "
0.12, 18.3998, 0.000202703, NaN, NaN, NaN, 0.0897272, "- N/A -   "
0.13, 18.8716, 0.000233247, NaN, NaN, NaN, 0.084844, "- N/A -   "
0.14, 19.3434, 2.582379E-4, NaN, NaN, NaN, 0.08118171, "- N/A -   "
0.15, 19.8152, 0.000286005, NaN, NaN, NaN, 0.0762986, "- N/A -   "
0.16, 20.169, 0.000308219, NaN, NaN, NaN, 0.07263627, "- N/A -   "
0.17, 20.6408, 0.000330433, NaN, NaN, NaN, 0.07141549, "- N/A -   "
0.18, 20.99465, 0.000349871, NaN, NaN, NaN, 0.0701947, "- N/A -   "
0.19, 21.46644, 3.69308E-4, NaN, NaN, NaN, 0.06775316, "- N/A -   "
0.2, 21.7023, 0.000391522, NaN, NaN, NaN, 0.06653238, "- N/A -   "
0.21, 22.1741, 0.000410959, NaN, NaN, NaN, 0.0653116, "- N/A -   "
0.22, 22.528, 0.000430397, NaN, NaN, NaN, 0.06287005, "- N/A -   "
0.23, 22.88181, 0.000449834, NaN, NaN, NaN, 0.06164927, "- N/A -   "
0.24, 23.2357, 0.000469271, NaN, NaN, NaN, 0.0604285, "- N/A -   "
0.25, 23.5895, 4.887083E-4, NaN, NaN, NaN, 0.0604285, "- N/A -   "
0.26, 23.9433, 5.053688E-4, NaN, NaN, NaN, 0.0592077, "- N/A -   "
0.27, 24.4151, 5.248061E-4, NaN, NaN, NaN, 0.0579869, "- N/A -   "
0.28, 24.65102, 5.414666E-4, NaN, NaN, NaN, 0.0579869, "- N/A -   "
0.29, 25.0049, 5.636806E-4, NaN, NaN, NaN, 0.0555454, "- N/A -   "
0.3, 25.3587, 5.831179E-4, NaN, NaN, NaN, 0.0555454, "- N/A -   "
0.31, 25.7125, 0.000602555, NaN, NaN, NaN, 0.0543246, "- N/A -   "
0.32, 26.0664, 6.219924E-4, NaN, NaN, NaN, 0.0531038, "- N/A -   "
0.33, 26.5382, 6.414297E-4, NaN, NaN, NaN, 0.05066227, "- N/A -   "
0.34, 27.01, 6.608669E-4, NaN, NaN, NaN, 0.0494415, "- N/A -   "
0.35, 27.3638, 6.803042E-4, NaN, NaN, NaN, 0.0482207, "- N/A -   "
0.36, 27.5997, 6.969647E-4, NaN, NaN, NaN, 0.0482207, "- N/A -   "
0.37, 28.0715, 7.136252E-4, NaN, NaN, NaN, 0.0482207, "- N/A -   "
0.38, 28.1894, 7.302857E-4, NaN, NaN, NaN, 0.0482207, "- N/A -   "
0.39, 28.54329, 7.49723E-4, NaN, NaN, NaN, 0.04699994, "- N/A -   "
0.4, 29.0151, 7.691603E-4, NaN, NaN, NaN, 0.04577916, "- N/A -   "
0.41, 29.251, 7.885975E-4, NaN, NaN, NaN, 0.0445584, "- N/A -   "
0.42, 29.7228, 8.080348E-4, NaN, NaN, NaN, 0.0445584, "- N/A -   "
0.44, 30.5484, 0.000844133, NaN, NaN, NaN, 0.0433376, "- N/A -   "
0.46, 31.0202, 0.00088023, NaN, NaN, NaN, 0.04089605, "- N/A -   "
0.48, 31.72787, 0.000919105, NaN, NaN, NaN, 0.0384545, "- N/A -   "
0.5, 32.5535, 0.000957979, NaN, NaN, NaN, 0.03601294, "- N/A -   "
0.52, 33.2612, 9.968539E-4, NaN, NaN, NaN, 0.0335714, "- N/A -   "
0.54, 33.9689, 0.00103295, NaN, NaN, NaN, 0.0323506, "- N/A -   "
0.56, 34.6766, 0.00106905, NaN, NaN, NaN, 0.03112983, "- N/A -   "
0.58, 35.2663, 0.00110237, NaN, NaN, NaN, 0.0323506, "- N/A -   "
0.6, 35.85603, 0.00113569, NaN, NaN, NaN, 0.0323506, "- N/A -   "
0.62, 36.5637, 0.00116901, NaN, NaN, NaN, 0.03112983, "- N/A -   "
0.64, 37.15345, 0.00120511, NaN, NaN, NaN, 0.0299091, "- N/A -   "
0.66, 37.74319, 0.00123565, NaN, NaN, NaN, 0.03112983, "- N/A -   "
0.68, 38.3329, 0.0012662, NaN, NaN, NaN, 0.0323506, "- N/A -   "
0.7, 38.8047, 0.001296743, NaN, NaN, NaN, 0.0335714, "- N/A -   "
0.72, 39.2765, 0.00132451, NaN, NaN, NaN, 0.03601294, "- N/A -   "
0.74, 39.98419, 0.00135505, NaN, NaN, NaN, 0.0372337, "- N/A -   "
0.76, 40.456, 0.0013856, NaN, NaN, NaN, 0.0384545, "- N/A -   "
0.78, 40.8098, 0.00141614, NaN, NaN, NaN, 0.04089605, "- N/A -   "
0.8, 41.39956, 0.001443911, NaN, NaN, NaN, 0.04211683, "- N/A -   "
0.82, 42.1072, 0.00147446, NaN, NaN, NaN, 0.0433376, "- N/A -   "
0.84, 42.697, 0.001510553, NaN, NaN, NaN, 0.0433376, "- N/A -   "
0.86, 43.40467, 0.001543874, NaN, NaN, NaN, 0.04211683, "- N/A -   "
0.88, 44.1124, 0.001577195, NaN, NaN, NaN, 0.0433376, "- N/A -   "
0.9, 44.58414, 0.00160774, NaN, NaN, NaN, 0.0445584, "- N/A -   "
0.92, 45.17388, 0.00164106, NaN, NaN, NaN, 0.0445584, "- N/A -   "
0.94, 45.8816, 0.0016716, NaN, NaN, NaN, 0.0445584, "- N/A -   "
0.96, 46.4713, 0.00170493, NaN, NaN, NaN, 0.0445584, "- N/A -   "
0.98, 47.179, 0.00174102, NaN, NaN, NaN, 0.0433376, "- N/A -   "
1, 47.8867, 0.00177712, NaN, NaN, NaN, 0.04211683, "- N/A -   "
1.02, 48.59436, 0.00181322, NaN, NaN, NaN, 0.04089605, "- N/A -   "
1.04, 49.30204, 0.00185209, NaN, NaN, NaN, 0.0384545, "- N/A -   "
1.06, 50.1277, 0.001890968, NaN, NaN, NaN, 0.03601294, "- N/A -   "
1.08, 51.0713, 0.001935396, NaN, NaN, NaN, 0.0323506, "- N/A -   "
1.1, 51.7789, 0.00197427, NaN, NaN, NaN, 0.0286883, "- N/A -   "
1.12, 52.36868, 0.00201037, NaN, NaN, NaN, 0.0274675, "- N/A -   "
1.14, 53.0764, 0.00204369, NaN, NaN, NaN, 0.0274675, "- N/A -   "
1.16, 53.784, 0.00207701, NaN, NaN, NaN, 0.0274675, "- N/A -   "
1.18, 54.4917, 0.00211033, NaN, NaN, NaN, 0.0274675, "- N/A -   "
1.2, 55.0815, 0.00214643, NaN, NaN, NaN, 0.0274675, "- N/A -   "
1.22, 55.55326, 0.0021742, NaN, NaN, NaN, 0.0286883, "- N/A -   "
1.24, 56.2609, 0.002204741, NaN, NaN, NaN, 0.0299091, "- N/A -   "
1.26, 56.85068, 0.00223529, NaN, NaN, NaN, 0.03112983, "- N/A -   "
1.28, 57.32247, 0.00226583, NaN, NaN, NaN, 0.0323506, "- N/A -   "
1.3, 58.0302, 0.00229915, NaN, NaN, NaN, 0.0335714, "- N/A -   "
1.32, 58.6199, 0.002326918, NaN, NaN, NaN, 0.0347922, "- N/A -   "
1.34, 59.2096, 0.00235746, NaN, NaN, NaN, 0.0372337, "- N/A -   "
1.36, 59.68142, 0.00238801, NaN, NaN, NaN, 0.0372337, "- N/A -   "
1.38, 60.3891, 0.00241855, NaN, NaN, NaN, 0.0384545, "- N/A -   "
1.4, 60.97884, 0.00245187, NaN, NaN, NaN, 0.0384545, "- N/A -   "
1.42, 61.6865, 0.00248519, NaN, NaN, NaN, 0.0396753, "- N/A -   "
1.44, 62.3942, 0.00251851, NaN, NaN, NaN, 0.0384545, "- N/A -   "
1.46, 62.98395, 0.00255183, NaN, NaN, NaN, 0.0384545, "- N/A -   "
1.48, 63.5737, 0.00258238, NaN, NaN, NaN, 0.0396753, "- N/A -   "
1.5, 64.16342, 0.00261015, NaN, NaN, NaN, 0.04211683, "- N/A -   "
1.52, 64.75317, 0.00264347, NaN, NaN, NaN, 0.0433376, "- N/A -   "
1.54, 65.4608, 0.00267401, NaN, NaN, NaN, 0.0433376, "- N/A -   "
1.56, 65.93263, 0.00270456, NaN, NaN, NaN, 0.0445584, "- N/A -   "
1.58, 66.64032, 0.00273788, NaN, NaN, NaN, 0.0445584, "- N/A -   "
1.6, 67.34801, 0.0027712, NaN, NaN, NaN, 0.0445584, "- N/A -   "
1.62, 67.9377, 0.00280174, NaN, NaN, NaN, 0.04577916, "- N/A -   "
1.64, 68.6454, 0.002840617, NaN, NaN, NaN, 0.0433376, "- N/A -   "
1.66, 69.47106, 0.00287949, NaN, NaN, NaN, 0.04089605, "- N/A -   "
1.68, 70.29669, 0.002918366, NaN, NaN, NaN, 0.0384545, "- N/A -   "
1.7, 71.00438, 0.002957241, NaN, NaN, NaN, 0.03601294, "- N/A -   "
1.72, 71.59412, 0.00299056, NaN, NaN, NaN, 0.03601294, "- N/A -   "
1.74, 72.41975, 0.00302388, NaN, NaN, NaN, 0.03601294, "- N/A -   "
1.76, 73.12743, 0.00305998, NaN, NaN, NaN, 0.0347922, "- N/A -   "
1.78, 73.9531, 0.003098855, NaN, NaN, NaN, 0.0323506, "- N/A -   "
1.8, 74.5428, 0.00313218, NaN, NaN, NaN, 0.0323506, "- N/A -   "
1.82, 75.13254, 0.003165497, NaN, NaN, NaN, 0.0323506, "- N/A -   "
1.84, 75.8402, 0.003198818, NaN, NaN, NaN, 0.0323506, "- N/A -   "
1.86, 76.43, 0.00323214, NaN, NaN, NaN, 0.0335714, "- N/A -   "
1.88, 77.13765, 0.00326268, NaN, NaN, NaN, 0.0347922, "- N/A -   "
1.9, 77.72738, 0.00329323, NaN, NaN, NaN, 0.0347922, "- N/A -   "
1.92, 78.31712, 0.003321, NaN, NaN, NaN, 0.0372337, "- N/A -   "
1.94, 78.90686, 0.003354316, NaN, NaN, NaN, 0.0384545, "- N/A -   "
1.96, 79.61454, 0.00338764, NaN, NaN, NaN, 0.0372337, "- N/A -   "
1.98, 80.32223, 0.003423735, NaN, NaN, NaN, 0.03601294, "- N/A -   "
2, 81.0299, 0.003459833, NaN, NaN, NaN, 0.03601294, "- N/A -   "
2.02, 81.7376, 0.00349593, NaN, NaN, NaN, 0.0335714, "- N/A -   "
2.04, 82.56323, 0.00353203, NaN, NaN, NaN, 0.0323506, "- N/A -   "
2.06, 83.27091, 0.00356535, NaN, NaN, NaN, 0.0323506, "- N/A -   "
2.08, 83.86065, 0.00359867, NaN, NaN, NaN, 0.0323506, "- N/A -   "
2.1, 84.56834, 0.00362921, NaN, NaN, NaN, 0.0335714, "- N/A -   "
2.12, 85.15807, 0.00365976, NaN, NaN, NaN, 0.0347922, "- N/A -   "
2.14, 85.74781, 0.0036903, NaN, NaN, NaN, 0.03601294, "- N/A -   "
2.16, 86.33755, 0.00371807, NaN, NaN, NaN, 0.0384545, "- N/A -   "
2.18, 86.80934, 0.00375139, NaN, NaN, NaN, 0.0396753, "- N/A -   "
2.2, 87.51702, 0.00378194, NaN, NaN, NaN, 0.0396753, "- N/A -   "
2.22, 88.34265, 0.00381526, NaN, NaN, NaN, 0.0396753, "- N/A -   "
2.24, 89.05035, 0.00384858, NaN, NaN, NaN, 0.0396753, "- N/A -   "
2.26, 89.758, 0.00388468, NaN, NaN, NaN, 0.0396753, "- N/A -   "
2.28, 90.4657, 0.00391522, NaN, NaN, NaN, 0.0396753, "- N/A -   "
2.3, 91.05545, 0.00394854, NaN, NaN, NaN, 0.0396753, "- N/A -   "
2.32, 91.76313, 0.003981862, NaN, NaN, NaN, 0.0396753, "- N/A -   "
2.34, 92.47082, 0.00401518, NaN, NaN, NaN, 0.0396753, "- N/A -   "
2.36, 93.2965, 0.00405406, NaN, NaN, NaN, 0.0384545, "- N/A -   "
2.38, 94.0041, 0.00409016, NaN, NaN, NaN, 0.03601294, "- N/A -   "
2.4, 94.8298, 0.00412625, NaN, NaN, NaN, 0.0347922, "- N/A -   "
2.42, 95.41951, 0.00416235, NaN, NaN, NaN, 0.0347922, "- N/A -   "
2.44, 96.12719, 0.004195672, NaN, NaN, NaN, 0.0347922, "- N/A -   "
2.46, 96.83487, 0.00422344, NaN, NaN, NaN, 0.03601294, "- N/A -   "
2.48, 97.4246, 0.00425676, NaN, NaN, NaN, 0.03601294, "- N/A -   "
2.5, 98.13229, 0.00429286, NaN, NaN, NaN, 0.0347922, "- N/A -   "
2.52, 98.83998, 0.004328956, NaN, NaN, NaN, 0.0347922, "- N/A -   "
2.54, 99.54767, 0.00436228, NaN, NaN, NaN, 0.0335714, "- N/A -   "
2.56, 100.3733, 0.004398375, NaN, NaN, NaN, 0.0323506, "- N/A -   "
2.58, 101.081, 0.004434473, NaN, NaN, NaN, 0.03112983, "- N/A -   "
2.6, 101.789, 0.004465017, NaN, NaN, NaN, 0.0323506, "- N/A -   "
2.62, 102.496, 0.004498338, NaN, NaN, NaN, 0.0323506, "- N/A -   "
2.64, 103.086, 0.004531659, NaN, NaN, NaN, 0.0323506, "- N/A -   "
2.66, 103.794, 0.0045622, NaN, NaN, NaN, 0.0335714, "- N/A -   "
2.68, 104.384, 0.004595524, NaN, NaN, NaN, 0.0335714, "- N/A -   "
2.7, 105.091, 0.004628845, NaN, NaN, NaN, 0.0335714, "- N/A -   "
2.72, 105.799, 0.00465939, NaN, NaN, NaN, 0.0347922, "- N/A -   "
2.74, 106.389, 0.004692711, NaN, NaN, NaN, 0.03601294, "- N/A -   "
2.76, 107.214, 0.004726032, NaN, NaN, NaN, 0.0347922, "- N/A -   "
2.78, 107.922, 0.004759353, NaN, NaN, NaN, 0.0347922, "- N/A -   "
2.8, 108.512, 0.004792674, NaN, NaN, NaN, 0.0347922, "- N/A -   "
2.82, 109.219, 0.004825995, NaN, NaN, NaN, 0.03601294, "- N/A -   "
2.84, 109.927, 0.004856539, NaN, NaN, NaN, 0.03601294, "- N/A -   "
2.86, 110.517, 0.004887083, NaN, NaN, NaN, 0.0372337, "- N/A -   "
2.88, 110.989, 0.00491763, NaN, NaN, NaN, 0.0396753, "- N/A -   "
2.9, 111.8142, 0.004950949, NaN, NaN, NaN, 0.0384545, "- N/A -   "
2.92, 112.522, 0.004981493, NaN, NaN, NaN, 0.0396753, "- N/A -   "
2.94, 113.23, 0.005017591, NaN, NaN, NaN, 0.0396753, "- N/A -   "
2.96, 113.701, 0.005045358, NaN, NaN, NaN, 0.04211683, "- N/A -   "
2.98, 114.173, 0.005070349, NaN, NaN, NaN, 0.0445584, "- N/A -   "
3, 114.999, 0.00510367, NaN, NaN, NaN, 0.0445584, "- N/A -   "
3.02, 115.824, 0.00514254, NaN, NaN, NaN, 0.0433376, "- N/A -   "
3.04, 116.5321, 0.00517864, NaN, NaN, NaN, 0.04211683, "- N/A -   "
3.06, 117.358, 0.00521474, NaN, NaN, NaN, 0.04089605, "- N/A -   "
3.08, 118.065, 0.00524806, NaN, NaN, NaN, 0.0396753, "- N/A -   "
3.1, 118.891, 0.005284159, NaN, NaN, NaN, 0.0384545, "- N/A -   "
3.12, 119.599, 0.00532026, NaN, NaN, NaN, 0.0372337, "- N/A -   "
3.14, 120.306, 0.005356354, NaN, NaN, NaN, 0.03601294, "- N/A -   "
3.16, 121.014, 0.00538968, NaN, NaN, NaN, 0.03601294, "- N/A -   "
3.18, 121.958, 0.005425773, NaN, NaN, NaN, 0.0347922, "- N/A -   "
3.2, 122.547, 0.005461871, NaN, NaN, NaN, 0.0347922, "- N/A -   "
3.22, 123.373, 0.00549519, NaN, NaN, NaN, 0.0335714, "- N/A -   "
3.24, 124.081, 0.00553129, NaN, NaN, NaN, 0.0323506, "- N/A -   "
3.26, 124.67, 0.00556461, NaN, NaN, NaN, 0.0323506, "- N/A -   "
3.28, 125.378, 0.00559516, NaN, NaN, NaN, 0.0347922, "- N/A -   "
3.3, 125.9679, 0.0056257, NaN, NaN, NaN, 0.0347922, "- N/A -   "
3.32, 126.676, 0.0056618, NaN, NaN, NaN, 0.0347922, "- N/A -   "
3.34, 127.383, 0.00569512, NaN, NaN, NaN, 0.0335714, "- N/A -   "
3.36, 128.091, 0.00573122, NaN, NaN, NaN, 0.0323506, "- N/A -   "
3.38, 128.917, 0.00576731, NaN, NaN, NaN, 0.03112983, "- N/A -   "
3.4, 129.624, 0.00580341, NaN, NaN, NaN, 0.0299091, "- N/A -   "
3.42, 130.332, 0.00583673, NaN, NaN, NaN, 0.0299091, "- N/A -   "
3.44, 130.922, 0.005867277, NaN, NaN, NaN, 0.03112983, "- N/A -   "
3.46, 131.511, 0.0059006, NaN, NaN, NaN, 0.03112983, "- N/A -   "
3.48, 132.219, 0.005931142, NaN, NaN, NaN, 0.0323506, "- N/A -   "
3.5, 132.809, 0.00596169, NaN, NaN, NaN, 0.0335714, "- N/A -   "
3.52, 133.281, 0.00598945, NaN, NaN, NaN, 0.03601294, "- N/A -   "
3.54, 133.752, 0.00601722, NaN, NaN, NaN, 0.0396753, "- N/A -   "
3.56, 134.342, 0.006044989, NaN, NaN, NaN, 0.04089605, "- N/A -   "
3.58, 134.932, 0.006072757, NaN, NaN, NaN, 0.0433376, "- N/A -   "
3.6, 135.522, 0.006103301, NaN, NaN, NaN, 0.0445584, "- N/A -   "
3.62, 136.229, 0.006133845, NaN, NaN, NaN, 0.04699994, "- N/A -   "
3.64, 136.937, 0.006167166, NaN, NaN, NaN, 0.04699994, "- N/A -   "
3.66, 137.6447, 0.006200487, NaN, NaN, NaN, 0.04699994, "- N/A -   "
3.68, 138.352, 0.006236585, NaN, NaN, NaN, 0.04577916, "- N/A -   "
3.7, 139.178, 0.006275459, NaN, NaN, NaN, 0.0445584, "- N/A -   "
3.72, 140.004, 0.006314334, NaN, NaN, NaN, 0.04211683, "- N/A -   "
3.74, 140.711, 0.00635043, NaN, NaN, NaN, 0.0396753, "- N/A -   "
3.76, 141.537, 0.006389306, NaN, NaN, NaN, 0.0372337, "- N/A -   "
3.78, 142.3626, 0.006425404, NaN, NaN, NaN, 0.03601294, "- N/A -   "
3.8, 143.07, 0.006461502, NaN, NaN, NaN, 0.0347922, "- N/A -   "
3.82, 143.778, 0.006494823, NaN, NaN, NaN, 0.0347922, "- N/A -   "
3.84, 144.486, 0.00653092, NaN, NaN, NaN, 0.0335714, "- N/A -   "
3.86, 145.193, 0.00656424, NaN, NaN, NaN, 0.0335714, "- N/A -   "
3.88, 145.901, 0.006597562, NaN, NaN, NaN, 0.0335714, "- N/A -   "
3.9, 146.6087, 0.006636437, NaN, NaN, NaN, 0.0323506, "- N/A -   "
3.92, 147.434, 0.006672535, NaN, NaN, NaN, 0.0299091, "- N/A -   "
3.94, 148.142, 0.006708633, NaN, NaN, NaN, 0.0286883, "- N/A -   "
3.96, 148.8497, 0.00674473, NaN, NaN, NaN, 0.0274675, "- N/A -   "
3.98, 149.557, 0.006778051, NaN, NaN, NaN, 0.0274675, "- N/A -   "
4, 150.265, 0.00681137, NaN, NaN, NaN, 0.0274675, "- N/A -   "
4.02, 150.855, 0.006841917, NaN, NaN, NaN, 0.0286883, "- N/A -   "
4.04, 151.445, 0.006875238, NaN, NaN, NaN, 0.0286883, "- N/A -   "
4.06, 152.152, 0.006905782, NaN, NaN, NaN, 0.0299091, "- N/A -   "
4.08, 152.742, 0.006936326, NaN, NaN, NaN, 0.03112983, "- N/A -   "
4.1, 153.45, 0.00696687, NaN, NaN, NaN, 0.0323506, "- N/A -   "
4.12, 154.0394, 0.00699742, NaN, NaN, NaN, 0.0335714, "- N/A -   "
4.14, 154.629, 0.00702518, NaN, NaN, NaN, 0.03601294, "- N/A -   "
4.16, 155.219, 0.00705295, NaN, NaN, NaN, 0.0384545, "- N/A -   "
4.18, 155.809, 0.007083494, NaN, NaN, NaN, 0.04089605, "- N/A -   "
4.2, 156.2804, 0.00711126, NaN, NaN, NaN, 0.04211683, "- N/A -   "
4.22, 156.87, 0.007141806, NaN, NaN, NaN, 0.0445584, "- N/A -   "
4.24, 157.578, 0.00717235, NaN, NaN, NaN, 0.04577916, "- N/A -   "
4.26, 158.2855, 0.007205671, NaN, NaN, NaN, 0.04577916, "- N/A -   "
4.28, 158.9932, 0.00723899, NaN, NaN, NaN, 0.0445584, "- N/A -   "
4.3, 159.701, 0.00727231, NaN, NaN, NaN, 0.0445584, "- N/A -   "
4.32, 160.409, 0.00730563, NaN, NaN, NaN, 0.0445584, "- N/A -   "
4.34, 160.998, 0.00733896, NaN, NaN, NaN, 0.0445584, "- N/A -   "
4.36, 161.706, 0.00737228, NaN, NaN, NaN, 0.0445584, "- N/A -   "
4.38, 162.532, 0.00740837, NaN, NaN, NaN, 0.0445584, "- N/A -   "
4.4, 163.2393, 0.0074417, NaN, NaN, NaN, 0.0433376, "- N/A -   "
4.42, 164.065, 0.00748057, NaN, NaN, NaN, 0.04211683, "- N/A -   "
4.44, 164.773, 0.00751389, NaN, NaN, NaN, 0.04211683, "- N/A -   "
4.46, 165.4803, 0.00754999, NaN, NaN, NaN, 0.0396753, "- N/A -   "
4.48, 166.306, 0.007588863, NaN, NaN, NaN, 0.0372337, "- N/A -   "
4.5, 167.25, 0.00762774, NaN, NaN, NaN, 0.0347922, "- N/A -   "
4.52, 167.9572, 0.007666612, NaN, NaN, NaN, 0.0335714, "- N/A -   "
4.54, 168.665, 0.007699933, NaN, NaN, NaN, 0.0323506, "- N/A -   "
4.56, 169.373, 0.007736031, NaN, NaN, NaN, 0.03112983, "- N/A -   "
4.58, 170.316, 0.00777213, NaN, NaN, NaN, 0.0299091, "- N/A -   "
4.6, 171.024, 0.00780823, NaN, NaN, NaN, 0.0286883, "- N/A -   "
4.62, 171.614, 0.007841548, NaN, NaN, NaN, 0.0286883, "- N/A -   "
4.64, 172.321, 0.007872092, NaN, NaN, NaN, 0.0299091, "- N/A -   "
4.66, 172.911, 0.007902636, NaN, NaN, NaN, 0.03112983, "- N/A -   "
4.68, 173.501, 0.00793318, NaN, NaN, NaN, 0.0335714, "- N/A -   "
4.7, 174.09, 0.007960948, NaN, NaN, NaN, 0.0347922, "- N/A -   "
4.72, 174.6802, 0.007991492, NaN, NaN, NaN, 0.03601294, "- N/A -   "
4.74, 175.27, 0.008022036, NaN, NaN, NaN, 0.0372337, "- N/A -   "
4.76, 175.978, 0.008055357, NaN, NaN, NaN, 0.0372337, "- N/A -   "
4.78, 176.567, 0.008085902, NaN, NaN, NaN, 0.0384545, "- N/A -   "
4.8, 177.393, 0.008121999, NaN, NaN, NaN, 0.0372337, "- N/A -   "
4.82, 178.219, 0.008158097, NaN, NaN, NaN, 0.03601294, "- N/A -   "
4.84, 178.808, 0.008191418, NaN, NaN, NaN, 0.0372337, "- N/A -   "
4.86, 179.516, 0.00822196, NaN, NaN, NaN, 0.0372337, "- N/A -   "
4.88, 180.106, 0.008252507, NaN, NaN, NaN, 0.0384545, "- N/A -   "
4.9, 180.696, 0.008283051, NaN, NaN, NaN, 0.0396753, "- N/A -   "
4.92, 181.285, 0.008310818, NaN, NaN, NaN, 0.04211683, "- N/A -   "
4.94, 181.875, 0.008344139, NaN, NaN, NaN, 0.04211683, "- N/A -   "
4.96, 182.701, 0.008377461, NaN, NaN, NaN, 0.04211683, "- N/A -   "
4.98, 183.408, 0.008408005, NaN, NaN, NaN, 0.0433376, "- N/A -   "
5, 183.998, 0.008441326, NaN, NaN, NaN, 0.0445584, "- N/A -   "
5.02, 184.706, 0.008474647, NaN, NaN, NaN, 0.0433376, "- N/A -   "
5.04, 185.295, 0.008510744, NaN, NaN, NaN, 0.0433376, "- N/A -   "
5.06, 186.239, 0.008546842, NaN, NaN, NaN, 0.04089605, "- N/A -   "
5.08, 187.065, 0.00858572, NaN, NaN, NaN, 0.0384545, "- N/A -   "
5.1, 187.89, 0.008624592, NaN, NaN, NaN, 0.03601294, "- N/A -   "
5.12, 188.48, 0.008660689, NaN, NaN, NaN, 0.0347922, "- N/A -   "
5.14, 189.3057, 0.008696787, NaN, NaN, NaN, 0.0335714, "- N/A -   "
5.16, 190.013, 0.008735661, NaN, NaN, NaN, 0.0323506, "- N/A -   "
5.18, 190.721, 0.008771759, NaN, NaN, NaN, 0.03112983, "- N/A -   "
5.2, 191.547, 0.00880508, NaN, NaN, NaN, 0.0299091, "- N/A -   "
5.22, 192.018, 0.008835625, NaN, NaN, NaN, 0.03112983, "- N/A -   "
5.24, 192.608, 0.008868946, NaN, NaN, NaN, 0.03112983, "- N/A -   "
5.26, 193.198, 0.008899489, NaN, NaN, NaN, 0.0323506, "- N/A -   "
5.28, 193.906, 0.008930034, NaN, NaN, NaN, 0.0335714, "- N/A -   "
5.3, 194.613, 0.008960579, NaN, NaN, NaN, 0.0347922, "- N/A -   "
5.32, 195.321, 0.008993899, NaN, NaN, NaN, 0.0347922, "- N/A -   "
5.34, 195.911, 0.00903, NaN, NaN, NaN, 0.0347922, "- N/A -   "
5.36, 196.618, 0.009063318, NaN, NaN, NaN, 0.0335714, "- N/A -   "
5.38, 197.326, 0.009096639, NaN, NaN, NaN, 0.0335714, "- N/A -   "
5.4, 198.152, 0.009132737, NaN, NaN, NaN, 0.0323506, "- N/A -   "
5.42, 198.859, 0.009168834, NaN, NaN, NaN, 0.03112983, "- N/A -   "
5.44, 199.567, 0.009202156, NaN, NaN, NaN, 0.03112983, "- N/A -   "
5.46, 200.039, 0.0092327, NaN, NaN, NaN, 0.0323506, "- N/A -   "
5.48, 200.629, 0.009263244, NaN, NaN, NaN, 0.0335714, "- N/A -   "
5.5, 201.2184, 0.009293789, NaN, NaN, NaN, 0.03601294, "- N/A -   "
5.52, 201.808, 0.009324333, NaN, NaN, NaN, 0.0372337, "- N/A -   "
5.54, 202.516, 0.009352101, NaN, NaN, NaN, 0.0384545, "- N/A -   "
5.56, 202.87, 0.009379867, NaN, NaN, NaN, 0.04089605, "- N/A -   "
5.58, 203.577, 0.009410412, NaN, NaN, NaN, 0.04211683, "- N/A -   "
5.6, 204.167, 0.009440957, NaN, NaN, NaN, 0.0433376, "- N/A -   "
5.62, 204.875, 0.00947428, NaN, NaN, NaN, 0.0445584, "- N/A -   "
5.64, 205.465, 0.009507598, NaN, NaN, NaN, 0.0433376, "- N/A -   "
5.66, 206.172, 0.00954092, NaN, NaN, NaN, 0.0433376, "- N/A -   "
5.68, 206.88, 0.009577017, NaN, NaN, NaN, 0.04211683, "- N/A -   "
5.7, 207.588, 0.009610338, NaN, NaN, NaN, 0.04211683, "- N/A -   "
5.72, 208.295, 0.009646436, NaN, NaN, NaN, 0.04211683, "- N/A -   "
5.74, 208.885, 0.00967698, NaN, NaN, NaN, 0.04211683, "- N/A -   "
5.76, 209.593, 0.009715854, NaN, NaN, NaN, 0.04089605, "- N/A -   "
5.78, 210.418, 0.009754729, NaN, NaN, NaN, 0.0384545, "- N/A -   "
5.8, 211.126, 0.00979083, NaN, NaN, NaN, 0.0372337, "- N/A -   "
5.82, 211.9516, 0.009824148, NaN, NaN, NaN, 0.03601294, "- N/A -   "
5.84, 212.6593, 0.009860246, NaN, NaN, NaN, 0.0347922, "- N/A -   "
5.86, 213.249, 0.009893566, NaN, NaN, NaN, 0.03601294, "- N/A -   "
5.88, 213.839, 0.009924112, NaN, NaN, NaN, 0.0372337, "- N/A -   "
5.9, 214.311, 0.009954656, NaN, NaN, NaN, 0.0372337, "- N/A -   "
5.92, 215.018, 0.009987976, NaN, NaN, NaN, 0.0384545, "- N/A -   "
5.94, 215.726, 0.0100213, NaN, NaN, NaN, 0.0372337, "- N/A -   "
5.96, 216.434, 0.0100546, NaN, NaN, NaN, 0.0372337, "- N/A -   "
5.98, 217.259, 0.0100935, NaN, NaN, NaN, 0.0347922, "- N/A -   "
6, 218.085, 0.0101324, NaN, NaN, NaN, 0.0335714, "- N/A -   "
6.02, 218.793, 0.0101657, NaN, NaN, NaN, 0.0323506, "- N/A -   "
6.04, 219.264, 0.01019901, NaN, NaN, NaN, 0.0323506, "- N/A -   "
6.06, 219.8541, 0.01023233, NaN, NaN, NaN, 0.0323506, "- N/A -   "
6.08, 220.562, 0.0102629, NaN, NaN, NaN, 0.0335714, "- N/A -   "
6.1, 221.152, 0.0102962, NaN, NaN, NaN, 0.0347922, "- N/A -   "
6.12, 221.741, 0.01032674, NaN, NaN, NaN, 0.03601294, "- N/A -   "
6.14, 222.331, 0.0103601, NaN, NaN, NaN, 0.03601294, "- N/A -   "
6.16, 223.039, 0.0103934, NaN, NaN, NaN, 0.03601294, "- N/A -   "
6.18, 223.6284, 0.0104267, NaN, NaN, NaN, 0.0347922, "- N/A -   "
6.2, 224.454, 0.0104656, NaN, NaN, NaN, 0.0335714, "- N/A -   "
6.22, 225.162, 0.0104989, NaN, NaN, NaN, 0.0323506, "- N/A -   "
6.24, 225.6335, 0.0105294, NaN, NaN, NaN, 0.0347922, "- N/A -   "
6.26, 226.223, 0.0105544, NaN, NaN, NaN, 0.0372337, "- N/A -   "
6.28, 226.931, 0.010585, NaN, NaN, NaN, 0.0384545, "- N/A -   "
6.3, 227.521, 0.0106183, NaN, NaN, NaN, 0.0384545, "- N/A -   "
6.32, 228.11, 0.0106488, NaN, NaN, NaN, 0.0396753, "- N/A -   "
6.34, 228.818, 0.0106849, NaN, NaN, NaN, 0.0396753, "- N/A -   "
6.36, 229.526, 0.0107155, NaN, NaN, NaN, 0.0396753, "- N/A -   "
6.38, 229.998, 0.01074603, NaN, NaN, NaN, 0.04211683, "- N/A -   "
6.4, 230.587, 0.0107738, NaN, NaN, NaN, 0.0433376, "- N/A -   "
6.42, 231.295, 0.0108071, NaN, NaN, NaN, 0.0433376, "- N/A -   "
6.44, 232.121, 0.0108404, NaN, NaN, NaN, 0.0433376, "- N/A -   "
6.46, 232.828, 0.0108765, NaN, NaN, NaN, 0.04211683, "- N/A -   "
6.48, 233.536, 0.0109126, NaN, NaN, NaN, 0.04211683, "- N/A -   "
6.5, 234.126, 0.0109487, NaN, NaN, NaN, 0.0396753, "- N/A -   "
6.52, 235.0693, 0.0109904, NaN, NaN, NaN, 0.0372337, "- N/A -   "
6.54, 235.895, 0.0110265, NaN, NaN, NaN, 0.0347922, "- N/A -   "
6.56, 236.721, 0.0110654, NaN, NaN, NaN, 0.0323506, "- N/A -   "
6.58, 237.3103, 0.0111042, NaN, NaN, NaN, 0.03112983, "- N/A -   "
6.6, 238.018, 0.0111348, NaN, NaN, NaN, 0.03112983, "- N/A -   "
6.62, 238.49, 0.0111653, NaN, NaN, NaN, 0.0323506, "- N/A -   "
6.64, 239.315, 0.0111986, NaN, NaN, NaN, 0.0323506, "- N/A -   "
6.66, 239.905, 0.011232, NaN, NaN, NaN, 0.0323506, "- N/A -   "
6.68, 240.613, 0.0112653, NaN, NaN, NaN, 0.0335714, "- N/A -   "
6.7, 241.321, 0.0112986, NaN, NaN, NaN, 0.0323506, "- N/A -   "
6.72, 241.91, 0.0113319, NaN, NaN, NaN, 0.0323506, "- N/A -   "
6.74, 242.736, 0.011368, NaN, NaN, NaN, 0.03112983, "- N/A -   "
6.76, 243.56, 0.0114041, NaN, NaN, NaN, 0.0299091, "- N/A -   "
6.78, 244.15, 0.011443, NaN, NaN, NaN, 0.0274675, "- N/A -   "
6.8, 244.974, 0.0114763, NaN, NaN, NaN, 0.0274675, "- N/A -   "
6.82, 245.6813, 0.0115096, NaN, NaN, NaN, 0.0274675, "- N/A -   "
6.84, 246.27, 0.0115402, NaN, NaN, NaN, 0.0286883, "- N/A -   "
6.86, 246.742, 0.0115707, NaN, NaN, NaN, 0.03112983, "- N/A -   "
6.88, 247.331, 0.0115985, NaN, NaN, NaN, 0.0323506, "- N/A -   "
6.9, 247.92, 0.0116263, NaN, NaN, NaN, 0.0347922, "- N/A -   "
6.92, 248.509, 0.0116568, NaN, NaN, NaN, 0.03601294, "- N/A -   "
6.94, 249.098, 0.0116846, NaN, NaN, NaN, 0.0384545, "- N/A -   "
6.96, 249.452, 0.01171234, NaN, NaN, NaN, 0.04211683, "- N/A -   "
6.98, 250.041, 0.0117401, NaN, NaN, NaN, 0.0433376, "- N/A -   "
7, 250.748, 0.0117707, NaN, NaN, NaN, 0.0445584, "- N/A -   "
7.02, 251.455, 0.011804, NaN, NaN, NaN, 0.0445584, "- N/A -   "
7.04, 252.044, 0.0118373, NaN, NaN, NaN, 0.04577916, "- N/A -   "
7.06, 252.633, 0.0118678, NaN, NaN, NaN, 0.04577916, "- N/A -   "
7.08, 253.34, 0.0119012, NaN, NaN, NaN, 0.04577916, "- N/A -   "
7.1, 254.047, 0.0119373, NaN, NaN, NaN, 0.0445584, "- N/A -   "
7.12, 254.99, 0.0119734, NaN, NaN, NaN, 0.0433376, "- N/A -   "
7.14, 255.697, 0.0120122, NaN, NaN, NaN, 0.04089605, "- N/A -   "
7.16, 256.5213, 0.0120511, NaN, NaN, NaN, 0.0396753, "- N/A -   "
7.18, 257.11, 0.0120816, NaN, NaN, NaN, 0.0396753, "- N/A -   "
7.2, 257.9352, 0.0121177, NaN, NaN, NaN, 0.0384545, "- N/A -   "
7.22, 258.76, 0.0121594, NaN, NaN, NaN, 0.03601294, "- N/A -   "
7.24, 259.467, 0.0121955, NaN, NaN, NaN, 0.0347922, "- N/A -   "
7.26, 260.174, 0.0122288, NaN, NaN, NaN, 0.0347922, "- N/A -   "
7.28, 260.763, 0.0122594, NaN, NaN, NaN, 0.0347922, "- N/A -   "
7.3, 261.47, 0.0122899, NaN, NaN, NaN, 0.03601294, "- N/A -   "
7.32, 262.177, 0.012326, NaN, NaN, NaN, 0.0347922, "- N/A -   "
7.34, 263.002, 0.0123677, NaN, NaN, NaN, 0.0323506, "- N/A -   "
7.36, 263.8265, 0.01240375, NaN, NaN, NaN, 0.0299091, "- N/A -   "
7.38, 264.533, 0.0124398, NaN, NaN, NaN, 0.0299091, "- N/A -   "
7.4, 265.123, 0.01247317, NaN, NaN, NaN, 0.0286883, "- N/A -   "
7.42, 266.065, 0.0125093, NaN, NaN, NaN, 0.0274675, "- N/A -   "
7.44, 266.654, 0.0125426, NaN, NaN, NaN, 0.0274675, "- N/A -   "
7.46, 267.3613, 0.0125731, NaN, NaN, NaN, 0.0286883, "- N/A -   "
7.48, 268.068, 0.0126065, NaN, NaN, NaN, 0.0286883, "- N/A -   "
7.5, 268.54, 0.012637, NaN, NaN, NaN, 0.03112983, "- N/A -   "
7.52, 269.1287, 0.0126648, NaN, NaN, NaN, 0.0323506, "- N/A -   "
7.54, 269.836, 0.0126925, NaN, NaN, NaN, 0.0347922, "- N/A -   "
7.56, 270.425, 0.0127231, NaN, NaN, NaN, 0.03601294, "- N/A -   "
7.58, 270.8961, 0.0127536, NaN, NaN, NaN, 0.0384545, "- N/A -   "
7.6, 271.485, 0.0127786, NaN, NaN, NaN, 0.04089605, "- N/A -   "
7.62, 272.074, 0.0128092, NaN, NaN, NaN, 0.04211683, "- N/A -   "
7.64, 272.7813, 0.0128425, NaN, NaN, NaN, 0.04211683, "- N/A -   "
7.66, 273.606, 0.0128758, NaN, NaN, NaN, 0.04211683, "- N/A -   "
7.68, 274.195, 0.01290912, NaN, NaN, NaN, 0.04211683, "- N/A -   "
7.7, 275.02, 0.0129452, NaN, NaN, NaN, 0.04211683, "- N/A -   "
7.72, 275.609, 0.0129785, NaN, NaN, NaN, 0.04089605, "- N/A -   "
7.74, 276.3161, 0.0130091, NaN, NaN, NaN, 0.04211683, "- N/A -   "
7.76, 277.023, 0.0130424, NaN, NaN, NaN, 0.0433376, "- N/A -   "
7.78, 277.73, 0.0130729, NaN, NaN, NaN, 0.0433376, "- N/A -   "
7.8, 278.319, 0.0131118, NaN, NaN, NaN, 0.04211683, "- N/A -   "
7.82, 279.144, 0.01314792, NaN, NaN, NaN, 0.0396753, "- N/A -   "
7.84, 280.087, 0.013184, NaN, NaN, NaN, 0.0396753, "- N/A -   "
7.86, 280.7935, 0.0132201, NaN, NaN, NaN, 0.0372337, "- N/A -   "
7.88, 281.736, 0.01325899, NaN, NaN, NaN, 0.0347922, "- N/A -   "
7.9, 282.443, 0.0132979, NaN, NaN, NaN, 0.0323506, "- N/A -   "
7.92, 283.268, 0.0133367, NaN, NaN, NaN, 0.03112983, "- N/A -   "
7.94, 284.093, 0.0133728, NaN, NaN, NaN, 0.0299091, "- N/A -   "
7.96, 284.8, 0.0134089, NaN, NaN, NaN, 0.0286883, "- N/A -   "
7.98, 285.5065, 0.0134423, NaN, NaN, NaN, 0.0274675, "- N/A -   "
8, 286.096, 0.0134756, NaN, NaN, NaN, 0.0274675, "- N/A -   "
8.02, 286.8026, 0.0135061, NaN, NaN, NaN, 0.0299091, "- N/A -   "
8.04, 287.51, 0.0135367, NaN, NaN, NaN, 0.0299091, "- N/A -   "
8.06, 288.217, 0.01357, NaN, NaN, NaN, 0.0299091, "- N/A -   "
8.08, 288.806, 0.0136005, NaN, NaN, NaN, 0.03112983, "- N/A -   "
8.1, 289.395, 0.0136283, NaN, NaN, NaN, 0.0335714, "- N/A -   "
8.12, 289.984, 0.0136616, NaN, NaN, NaN, 0.0335714, "- N/A -   "
8.14, 290.6909, 0.0136922, NaN, NaN, NaN, 0.03601294, "- N/A -   "
8.16, 291.398, 0.0137227, NaN, NaN, NaN, 0.0372337, "- N/A -   "
8.18, 292.105, 0.013756, NaN, NaN, NaN, 0.0372337, "- N/A -   "
8.2, 292.812, 0.01378935, NaN, NaN, NaN, 0.0372337, "- N/A -   "
8.22, 293.519, 0.0138227, NaN, NaN, NaN, 0.0384545, "- N/A -   "
8.24, 294.226, 0.013856, NaN, NaN, NaN, 0.0372337, "- N/A -   "
8.26, 295.05, 0.01389209, NaN, NaN, NaN, 0.0372337, "- N/A -   "
8.28, 295.6396, 0.0139226, NaN, NaN, NaN, 0.0372337, "- N/A -   "
8.3, 296.2287, 0.0139532, NaN, NaN, NaN, 0.0384545, "- N/A -   "
8.32, 296.8178, 0.0139809, NaN, NaN, NaN, 0.04089605, "- N/A -   "
8.34, 297.407, 0.01401149, NaN, NaN, NaN, 0.04211683, "- N/A -   "
8.36, 298.114, 0.014042, NaN, NaN, NaN, 0.0433376, "- N/A -   "
8.38, 298.821, 0.0140726, NaN, NaN, NaN, 0.0445584, "- N/A -   "
8.4, 299.41, 0.0141059, NaN, NaN, NaN, 0.0445584, "- N/A -   "
8.42, 300.235, 0.0141364, NaN, NaN, NaN, 0.04577916, "- N/A -   "
8.44, 300.7061, 0.0141725, NaN, NaN, NaN, 0.04577916, "- N/A -   "
8.46, 301.6487, 0.0142059, NaN, NaN, NaN, 0.0445584, "- N/A -   "
8.48, 302.473, 0.0142447, NaN, NaN, NaN, 0.04211683, "- N/A -   "
8.5, 303.416, 0.0142864, NaN, NaN, NaN, 0.0384545, "- N/A -   "
8.52, 304.241, 0.0143253, NaN, NaN, NaN, 0.03601294, "- N/A -   "
8.54, 305.066, 0.0143614, NaN, NaN, NaN, 0.03601294, "- N/A -   "
8.56, 305.8904, 0.0143975, NaN, NaN, NaN, 0.0335714, "- N/A -   "
8.58, 306.597, 0.0144336, NaN, NaN, NaN, 0.0323506, "- N/A -   "
8.6, 307.304, 0.0144697, NaN, NaN, NaN, 0.03112983, "- N/A -   "
8.62, 308.129, 0.0145085, NaN, NaN, NaN, 0.0299091, "- N/A -   "
8.64, 308.718, 0.0145391, NaN, NaN, NaN, 0.03112983, "- N/A -   "
8.66, 309.3074, 0.0145668, NaN, NaN, NaN, 0.0323506, "- N/A -   "
8.68, 309.8965, 0.0145974, NaN, NaN, NaN, 0.0335714, "- N/A -   "
8.7, 310.486, 0.0146279, NaN, NaN, NaN, 0.03601294, "- N/A -   "
8.72, 311.0748, 0.0146557, NaN, NaN, NaN, 0.0372337, "- N/A -   "
8.74, 311.782, 0.014689, NaN, NaN, NaN, 0.0372337, "- N/A -   "
8.76, 312.489, 0.0147223, NaN, NaN, NaN, 0.0372337, "- N/A -   "
8.78, 313.313, 0.0147584, NaN, NaN, NaN, 0.03601294, "- N/A -   "
8.8, 314.256, 0.0147973, NaN, NaN, NaN, 0.0347922, "- N/A -   "
8.82, 314.963, 0.0148306, NaN, NaN, NaN, 0.0335714, "- N/A -   "
8.84, 315.788, 0.0148695, NaN, NaN, NaN, 0.0323506, "- N/A -   "
8.86, 316.495, 0.0149028, NaN, NaN, NaN, 0.03112983, "- N/A -   "
8.88, 317.202, 0.0149334, NaN, NaN, NaN, 0.0323506, "- N/A -   "
8.9, 317.673, 0.0149639, NaN, NaN, NaN, 0.0335714, "- N/A -   "
8.92, 318.38, 0.0149917, NaN, NaN, NaN, 0.03601294, "- N/A -   "
8.94, 318.969, 0.0150222, NaN, NaN, NaN, 0.0384545, "- N/A -   "
8.96, 319.558, 0.0150528, NaN, NaN, NaN, 0.0396753, "- N/A -   "
8.98, 320.2652, 0.0150833, NaN, NaN, NaN, 0.0396753, "- N/A -   "
9, 321.09, 0.0151166, NaN, NaN, NaN, 0.04089605, "- N/A -   "
9.02, 321.5613, 0.0151472, NaN, NaN, NaN, 0.04089605, "- N/A -   "
9.04, 322.3861, 0.0151833, NaN, NaN, NaN, 0.0396753, "- N/A -   "
9.06, 323.211, 0.0152194, NaN, NaN, NaN, 0.0384545, "- N/A -   "
9.08, 323.918, 0.0152527, NaN, NaN, NaN, 0.0384545, "- N/A -   "
9.1, 324.625, 0.015286, NaN, NaN, NaN, 0.0384545, "- N/A -   "
9.12, 325.332, 0.01531934, NaN, NaN, NaN, 0.0384545, "- N/A -   "
9.14, 326.0387, 0.0153527, NaN, NaN, NaN, 0.0384545, "- N/A -   "
9.16, 326.746, 0.01538876, NaN, NaN, NaN, 0.0384545, "- N/A -   "
9.18, 327.4526, 0.01542208, NaN, NaN, NaN, 0.0384545, "- N/A -   "
9.2, 328.16, 0.0154554, NaN, NaN, NaN, 0.0372337, "- N/A -   "
9.22, 328.867, 0.0154915, NaN, NaN, NaN, 0.03601294, "- N/A -   "
9.24, 329.6913, 0.0155248, NaN, NaN, NaN, 0.03601294, "- N/A -   "
9.26, 330.398, 0.0155609, NaN, NaN, NaN, 0.03601294, "- N/A -   "
9.28, 331.105, 0.0155942, NaN, NaN, NaN, 0.03601294, "- N/A -   "
9.3, 332.048, 0.0156303, NaN, NaN, NaN, 0.0335714, "- N/A -   "
9.32, 332.7548, 0.0156664, NaN, NaN, NaN, 0.0335714, "- N/A -   "
9.34, 333.462, 0.015697, NaN, NaN, NaN, 0.0335714, "- N/A -   "
9.36, 334.051, 0.0157303, NaN, NaN, NaN, 0.0335714, "- N/A -   "
9.38, 334.64, 0.0157608, NaN, NaN, NaN, 0.0347922, "- N/A -   "
9.4, 335.347, 0.0157942, NaN, NaN, NaN, 0.0347922, "- N/A -   "
9.42, 336.054, 0.0158275, NaN, NaN, NaN, 0.0347922, "- N/A -   "
9.44, 336.8787, 0.0158636, NaN, NaN, NaN, 0.0335714, "- N/A -   "
9.46, 337.468, 0.0158941, NaN, NaN, NaN, 0.0347922, "- N/A -   "
9.48, 338.2926, 0.0159274, NaN, NaN, NaN, 0.03601294, "- N/A -   "
9.49, 338.6461, 0.01594411, NaN, NaN, NaN, 0.0347922, "- N/A -   "
9.5, 339, 0.01596077, NaN, NaN, NaN, 0.0347922, "- N/A -   "
9.51, 339.353, 0.0159774, NaN, NaN, NaN, 0.0347922, "- N/A -   "
9.52, 339.707, 0.01599409, NaN, NaN, NaN, 0.0347922, "- N/A -   "
9.53, 340.06, 0.0160108, NaN, NaN, NaN, 0.0347922, "- N/A -   "
9.54, 340.413, 0.0160246, NaN, NaN, NaN, 0.03601294, "- N/A -   "
9.55, 340.767, 0.0160413, NaN, NaN, NaN, 0.03601294, "- N/A -   "
9.56, 341.0026, 0.016058, NaN, NaN, NaN, 0.0372337, "- N/A -   "
9.57, 341.3561, 0.0160746, NaN, NaN, NaN, 0.0372337, "- N/A -   "
9.58, 341.71, 0.0160913, NaN, NaN, NaN, 0.0372337, "- N/A -   "
9.59, 342.063, 0.0161079, NaN, NaN, NaN, 0.0372337, "- N/A -   "
9.6, 342.417, 0.0161246, NaN, NaN, NaN, 0.03601294, "- N/A -   "
9.61, 342.77, 0.0161413, NaN, NaN, NaN, 0.03601294, "- N/A -   "
9.62, 343.123, 0.01615792, NaN, NaN, NaN, 0.03601294, "- N/A -   "
9.63, 343.5948, 0.01617458, NaN, NaN, NaN, 0.03601294, "- N/A -   "
9.64, 343.83, 0.01619124, NaN, NaN, NaN, 0.03601294, "- N/A -   "
9.65, 344.302, 0.0162051, NaN, NaN, NaN, 0.0372337, "- N/A -   "
9.66, 344.4196, 0.0162218, NaN, NaN, NaN, 0.0372337, "- N/A -   "
9.67, 344.773, 0.0162357, NaN, NaN, NaN, 0.0384545, "- N/A -   "
9.68, 345.127, 0.0162496, NaN, NaN, NaN, 0.0396753, "- N/A -   "
9.69, 345.362, 0.0162662, NaN, NaN, NaN, 0.04089605, "- N/A -   "
9.7, 345.716, 0.0162801, NaN, NaN, NaN, 0.04089605, "- N/A -   "
9.71, 346.069, 0.0162995, NaN, NaN, NaN, 0.04089605, "- N/A -   "
9.72, 346.4226, 0.0163162, NaN, NaN, NaN, 0.04089605, "- N/A -   "
9.73, 346.7761, 0.0163329, NaN, NaN, NaN, 0.04089605, "- N/A -   "
9.74, 347.13, 0.0163495, NaN, NaN, NaN, 0.0396753, "- N/A -   "
9.75, 347.483, 0.0163662, NaN, NaN, NaN, 0.0396753, "- N/A -   "
9.76, 347.837, 0.01638006, NaN, NaN, NaN, 0.04089605, "- N/A -   "
9.77, 348.3078, 0.01639672, NaN, NaN, NaN, 0.04089605, "- N/A -   "
9.78, 348.5435, 0.01641338, NaN, NaN, NaN, 0.04089605, "- N/A -   "
9.79, 348.897, 0.01643004, NaN, NaN, NaN, 0.04211683, "- N/A -   "
9.8, 349.25, 0.0164439, NaN, NaN, NaN, 0.04211683, "- N/A -   "
9.81, 349.6039, 0.0164606, NaN, NaN, NaN, 0.0433376, "- N/A -   "
9.82, 349.9574, 0.0164772, NaN, NaN, NaN, 0.0433376, "- N/A -   "
9.83, 350.311, 0.01649113, NaN, NaN, NaN, 0.0433376, "- N/A -   "
9.84, 350.664, 0.01650779, NaN, NaN, NaN, 0.0433376, "- N/A -   "
9.85, 351.136, 0.01652445, NaN, NaN, NaN, 0.0433376, "- N/A -   "
9.86, 351.371, 0.01654111, NaN, NaN, NaN, 0.0433376, "- N/A -   "
9.87, 351.7248, 0.0165578, NaN, NaN, NaN, 0.0433376, "- N/A -   "
9.88, 352.078, 0.0165744, NaN, NaN, NaN, 0.0433376, "- N/A -   "
9.89, 352.432, 0.0165911, NaN, NaN, NaN, 0.0433376, "- N/A -   "
9.9, 352.903, 0.01661053, NaN, NaN, NaN, 0.0433376, "- N/A -   "
9.91, 353.257, 0.01663, NaN, NaN, NaN, 0.04089605, "- N/A -   "
9.92, 353.846, 0.0166494, NaN, NaN, NaN, 0.0396753, "- N/A -   "
9.93, 354.199, 0.0166716, NaN, NaN, NaN, 0.0384545, "- N/A -   "
9.94, 354.6704, 0.0166883, NaN, NaN, NaN, 0.0372337, "- N/A -   "
9.95, 355.0239, 0.0167077, NaN, NaN, NaN, 0.03601294, "- N/A -   "
9.96, 355.4952, 0.01672993, NaN, NaN, NaN, 0.0335714, "- N/A -   "
9.97, 355.8487, 0.01674659, NaN, NaN, NaN, 0.0335714, "- N/A -   "
9.98, 356.32, 0.0167633, NaN, NaN, NaN, 0.0335714, "- N/A -   "
9.99, 356.673, 0.0167827, NaN, NaN, NaN, 0.0335714, "- N/A -   "
10, 357.145, 0.01679935, NaN, NaN, NaN, 0.0323506, "- N/A -   "
10.01, 357.38, 0.016816, NaN, NaN, NaN, 0.0323506, "- N/A -   "
10.02, 357.852, 0.01683267, NaN, NaN, NaN, 0.0323506, "- N/A -   "
10.03, 358.0874, 0.0168521, NaN, NaN, NaN, 0.0323506, "- N/A -   "
10.04, 358.4409, 0.016866, NaN, NaN, NaN, 0.0323506, "- N/A -   "
10.05, 358.912, 0.01688265, NaN, NaN, NaN, 0.0323506, "- N/A -   "
10.06, 359.148, 0.0168965, NaN, NaN, NaN, 0.0335714, "- N/A -   "
10.07, 359.5013, 0.0169132, NaN, NaN, NaN, 0.0347922, "- N/A -   "
10.08, 359.737, 0.0169271, NaN, NaN, NaN, 0.03601294, "- N/A -   "
10.09, 360.09, 0.016941, NaN, NaN, NaN, 0.03601294, "- N/A -   "
10.1, 360.4439, 0.0169576, NaN, NaN, NaN, 0.03601294, "- N/A -   "
10.11, 360.7974, 0.0169715, NaN, NaN, NaN, 0.0372337, "- N/A -   "
10.12, 361.151, 0.0169882, NaN, NaN, NaN, 0.0372337, "- N/A -   "
10.13, 361.387, 0.0170048, NaN, NaN, NaN, 0.0372337, "- N/A -   "
10.14, 361.858, 0.0170243, NaN, NaN, NaN, 0.03601294, "- N/A -   "
10.15, 362.329, 0.0170437, NaN, NaN, NaN, 0.0347922, "- N/A -   "
10.16, 362.6826, 0.01706314, NaN, NaN, NaN, 0.0335714, "- N/A -   "
10.17, 363.272, 0.0170826, NaN, NaN, NaN, 0.0323506, "- N/A -   "
10.18, 363.6252, 0.017102, NaN, NaN, NaN, 0.03112983, "- N/A -   "
10.19, 364.214, 0.0171215, NaN, NaN, NaN, 0.0299091, "- N/A -   "
10.2, 364.45, 0.01714089, NaN, NaN, NaN, 0.0286883, "- N/A -   "
10.21, 364.9213, 0.0171603, NaN, NaN, NaN, 0.0286883, "- N/A -   "
10.22, 365.157, 0.017177, NaN, NaN, NaN, 0.0274675, "- N/A -   "
10.23, 365.628, 0.0171909, NaN, NaN, NaN, 0.0286883, "- N/A -   "
10.24, 365.7461, 0.0172075, NaN, NaN, NaN, 0.0299091, "- N/A -   "
10.25, 366.217, 0.0172214, NaN, NaN, NaN, 0.03112983, "- N/A -   "
10.26, 366.571, 0.0172381, NaN, NaN, NaN, 0.03112983, "- N/A -   "
10.27, 366.924, 0.01725196, NaN, NaN, NaN, 0.03112983, "- N/A -   "
10.28, 367.16, 0.0172658, NaN, NaN, NaN, 0.0323506, "- N/A -   "
10.29, 367.5135, 0.0172825, NaN, NaN, NaN, 0.0335714, "- N/A -   "
10.3, 367.749, 0.0172964, NaN, NaN, NaN, 0.0335714, "- N/A -   "
10.31, 368.103, 0.0173103, NaN, NaN, NaN, 0.0347922, "- N/A -   "
10.32, 368.4561, 0.0173242, NaN, NaN, NaN, 0.03601294, "- N/A -   "
10.33, 368.81, 0.0173408, NaN, NaN, NaN, 0.0372337, "- N/A -   "
10.34, 369.0452, 0.0173547, NaN, NaN, NaN, 0.0372337, "- N/A -   "
10.35, 369.281, 0.0173686, NaN, NaN, NaN, 0.0384545, "- N/A -   "
10.36, 369.634, 0.0173825, NaN, NaN, NaN, 0.0396753, "- N/A -   "
10.37, 369.87, 0.0173964, NaN, NaN, NaN, 0.04089605, "- N/A -   "
10.38, 370.223, 0.01741301, NaN, NaN, NaN, 0.04211683, "- N/A -   "
10.39, 370.577, 0.0174269, NaN, NaN, NaN, 0.04211683, "- N/A -   "
10.4, 370.93, 0.0174436, NaN, NaN, NaN, 0.0433376, "- N/A -   "
10.41, 371.1661, 0.0174574, NaN, NaN, NaN, 0.0433376, "- N/A -   "
10.42, 371.52, 0.0174713, NaN, NaN, NaN, 0.0445584, "- N/A -   "
10.43, 371.873, 0.017488, NaN, NaN, NaN, 0.04577916, "- N/A -   "
10.44, 372.227, 0.0175046, NaN, NaN, NaN, 0.04577916, "- N/A -   "
10.45, 372.58, 0.0175185, NaN, NaN, NaN, 0.04577916, "- N/A -   "
10.46, 372.933, 0.01753519, NaN, NaN, NaN, 0.04577916, "- N/A -   "
10.47, 373.405, 0.0175546, NaN, NaN, NaN, 0.04577916, "- N/A -   "
10.48, 373.758, 0.0175713, NaN, NaN, NaN, 0.0445584, "- N/A -   "
10.49, 374.112, 0.0175879, NaN, NaN, NaN, 0.0445584, "- N/A -   "
10.5, 374.583, 0.0176046, NaN, NaN, NaN, 0.0445584, "- N/A -   "
10.51, 374.8187, 0.017624, NaN, NaN, NaN, 0.0433376, "- N/A -   "
10.52, 375.4078, 0.0176407, NaN, NaN, NaN, 0.0433376, "- N/A -   "
10.53, 375.879, 0.0176601, NaN, NaN, NaN, 0.04211683, "- N/A -   "
10.54, 376.2326, 0.01767958, NaN, NaN, NaN, 0.04089605, "- N/A -   "
10.55, 376.5861, 0.017699, NaN, NaN, NaN, 0.0396753, "- N/A -   "
[...]
40.83, 1714.68, 0.06818314, NaN, NaN, NaN, 0.0335714, "- N/A -   "
40.86, 1716.35, 0.0682387, NaN, NaN, NaN, 0.03112983, "- N/A -   "
40.89, 1717.78, 0.06829143, NaN, NaN, NaN, 0.0286883, "- N/A -   "
40.92, 1719.21, 0.06834141, NaN, NaN, NaN, 0.0286883, "- N/A -   "
40.95, 1720.52, 0.06838862, NaN, NaN, NaN, 0.0299091, "- N/A -   "
40.98, 1721.6, 0.06843305, NaN, NaN, NaN, 0.0335714, "- N/A -   "
41.01, 1722.907, 0.06848025, NaN, NaN, NaN, 0.0347922, "- N/A -   "
41.04, 1724.22, 0.06852468, NaN, NaN, NaN, 0.03601294, "- N/A -   "
41.07, 1725.17, 0.06856634, NaN, NaN, NaN, 0.0396753, "- N/A -   "
41.1, 1726.48, 0.06861076, NaN, NaN, NaN, 0.04211683, "- N/A -   "
41.13, 1727.68, 0.06865519, NaN, NaN, NaN, 0.04577916, "- N/A -   "
41.16, 1728.99, 0.06870239, NaN, NaN, NaN, 0.04577916, "- N/A -   "
41.19, 1730.3, 0.0687496, NaN, NaN, NaN, 0.04699994, "- N/A -   "
41.22, 1731.73, 0.06880236, NaN, NaN, NaN, 0.04699994, "- N/A -   "
41.25, 1733.28, 0.0688607, NaN, NaN, NaN, 0.0433376, "- N/A -   "
41.28, 1734.83, 0.06891342, NaN, NaN, NaN, 0.04089605, "- N/A -   "
41.31, 1736.38, 0.06896896, NaN, NaN, NaN, 0.0384545, "- N/A -   "
41.34, 1737.81, 0.0690245, NaN, NaN, NaN, 0.03601294, "- N/A -   "
41.37, 1739.24, 0.06907725, NaN, NaN, NaN, 0.0347922, "- N/A -   "
41.4, 1740.68, 0.06912724, NaN, NaN, NaN, 0.0347922, "- N/A -   "
41.43, 1742.11, 0.06918277, NaN, NaN, NaN, 0.0323506, "- N/A -   "
41.46, 1743.9, 0.0692383, NaN, NaN, NaN, 0.0299091, "- N/A -   "
41.49, 1745.45, 0.06929939, NaN, NaN, NaN, 0.0250259, "- N/A -   "
41.52, 1746.88, 0.06934938, NaN, NaN, NaN, 0.0262467, "- N/A -   "
41.55, 1747.95, 0.0693938, NaN, NaN, NaN, 0.0286883, "- N/A -   "
41.58, 1749.02, 0.0694327, NaN, NaN, NaN, 0.0323506, "- N/A -   "
41.61, 1750.22, 0.06947988, NaN, NaN, NaN, 0.0335714, "- N/A -   "
41.64, 1751.53, 0.06952154, NaN, NaN, NaN, 0.0372337, "- N/A -   "
41.67, 1752.6, 0.06956596, NaN, NaN, NaN, 0.0396753, "- N/A -   "
41.7, 1753.79, 0.0696104, NaN, NaN, NaN, 0.04211683, "- N/A -   "
41.73, 1754.99, 0.0696548, NaN, NaN, NaN, 0.0445584, "- N/A -   "
41.76, 1756.18, 0.06969925, NaN, NaN, NaN, 0.04699994, "- N/A -   "
41.79, 1757.49, 0.06974645, NaN, NaN, NaN, 0.0482207, "- N/A -   "
41.82, 1758.8, 0.06979643, NaN, NaN, NaN, 0.0482207, "- N/A -   "
41.85, 1760.23, 0.0698492, NaN, NaN, NaN, 0.04699994, "- N/A -   "
41.88, 1761.78, 0.06990472, NaN, NaN, NaN, 0.0445584, "- N/A -   "
41.91, 1763.33, 0.06996026, NaN, NaN, NaN, 0.0433376, "- N/A -   "
41.94, 1764.88, 0.0700158, NaN, NaN, NaN, 0.0396753, "- N/A -   "
41.97, 1766.434, 0.07007133, NaN, NaN, NaN, 0.0372337, "- N/A -   "
42, 1768.1, 0.07013242, NaN, NaN, NaN, 0.0323506, "- N/A -   "
42.03, 1770.01, 0.0701991, NaN, NaN, NaN, 0.0262467, "- N/A -   "
42.06, 1771.44, 0.07025182, NaN, NaN, NaN, 0.0238052, "- N/A -   "
42.09, 1772.635, 0.07029902, NaN, NaN, NaN, 0.0250259, "- N/A -   "
42.12, 1773.95, 0.07034346, NaN, NaN, NaN, 0.0274675, "- N/A -   "
42.15, 1775.14, 0.07039066, NaN, NaN, NaN, 0.0299091, "- N/A -   "
42.18, 1776.45, 0.07043786, NaN, NaN, NaN, 0.0299091, "- N/A -   "
42.21, 1777.76, 0.07048229, NaN, NaN, NaN, 0.0323506, "- N/A -   "
42.24, 1778.96, 0.0705295, NaN, NaN, NaN, 0.0335714, "- N/A -   "
42.27, 1780.27, 0.07057948, NaN, NaN, NaN, 0.0347922, "- N/A -   "
42.3, 1781.579, 0.07062668, NaN, NaN, NaN, 0.03601294, "- N/A -   "
42.33, 1782.65, 0.07066833, NaN, NaN, NaN, 0.0384545, "- N/A -   "
42.36, 1783.964, 0.07071554, NaN, NaN, NaN, 0.0396753, "- N/A -   "
42.39, 1785.395, 0.07076552, NaN, NaN, NaN, 0.0396753, "- N/A -   "
42.42, 1786.59, 0.0708127, NaN, NaN, NaN, 0.04089605, "- N/A -   "
42.45, 1787.78, 0.07085993, NaN, NaN, NaN, 0.0433376, "- N/A -   "
42.48, 1789.09, 0.07090436, NaN, NaN, NaN, 0.0445584, "- N/A -   "
42.51, 1790.4, 0.07095712, NaN, NaN, NaN, 0.0445584, "- N/A -   "
42.54, 1791.83, 0.0710043, NaN, NaN, NaN, 0.0445584, "- N/A -   "
42.57, 1793.27, 0.0710543, NaN, NaN, NaN, 0.0445584, "- N/A -   "
42.6, 1794.7, 0.07111261, NaN, NaN, NaN, 0.04211683, "- N/A -   "
42.63, 1796.37, 0.0711709, NaN, NaN, NaN, 0.0372337, "- N/A -   "
42.66, 1798.04, 0.07122646, NaN, NaN, NaN, 0.0347922, "- N/A -   "
42.69, 1799.47, 0.07127922, NaN, NaN, NaN, 0.0335714, "- N/A -   "
42.72, 1800.78, 0.0713292, NaN, NaN, NaN, 0.0335714, "- N/A -   "
42.75, 1802.33, 0.0713847, NaN, NaN, NaN, 0.0323506, "- N/A -   "
42.78, 1803.52, 0.07142916, NaN, NaN, NaN, 0.0335714, "- N/A -   "
42.81, 1804.83, 0.07147637, NaN, NaN, NaN, 0.0347922, "- N/A -   "
42.84, 1805.91, 0.0715208, NaN, NaN, NaN, 0.0372337, "- N/A -   "
42.87, 1807.22, 0.07157078, NaN, NaN, NaN, 0.0372337, "- N/A -   "
42.9, 1808.89, 0.07162631, NaN, NaN, NaN, 0.0347922, "- N/A -   "
42.93, 1810.32, 0.07167907, NaN, NaN, NaN, 0.0335714, "- N/A -   "
42.96, 1811.87, 0.07172906, NaN, NaN, NaN, 0.0335714, "- N/A -   "
42.99, 1813.06, 0.071779, NaN, NaN, NaN, 0.0335714, "- N/A -   "
43.02, 1814.49, 0.0718262, NaN, NaN, NaN, 0.0347922, "- N/A -   "
43.05, 1815.685, 0.07187622, NaN, NaN, NaN, 0.0347922, "- N/A -   "
43.08, 1817, 0.07192343, NaN, NaN, NaN, 0.03601294, "- N/A -   "
43.11, 1818.19, 0.0719651, NaN, NaN, NaN, 0.0396753, "- N/A -   "
43.14, 1819.38, 0.07201228, NaN, NaN, NaN, 0.04089605, "- N/A -   "
43.17, 1820.81, 0.07206226, NaN, NaN, NaN, 0.04089605, "- N/A -   "
43.2, 1822.12, 0.07211225, NaN, NaN, NaN, 0.04089605, "- N/A -   "
43.23, 1823.56, 0.0721622, NaN, NaN, NaN, 0.04089605, "- N/A -   "
43.26, 1825.23, 0.07221498, NaN, NaN, NaN, 0.0396753, "- N/A -   "
43.29, 1826.66, 0.07227052, NaN, NaN, NaN, 0.0372337, "- N/A -   "
43.32, 1827.97, 0.07232328, NaN, NaN, NaN, 0.03601294, "- N/A -   "
43.35, 1829.52, 0.072376, NaN, NaN, NaN, 0.0347922, "- N/A -   "
43.38, 1830.95, 0.07242879, NaN, NaN, NaN, 0.0335714, "- N/A -   "
43.41, 1832.38, 0.07248155, NaN, NaN, NaN, 0.0323506, "- N/A -   "
43.44, 1833.69, 0.07253153, NaN, NaN, NaN, 0.0323506, "- N/A -   "
43.47, 1835.12, 0.0725815, NaN, NaN, NaN, 0.0323506, "- N/A -   "
43.5, 1836.43, 0.0726315, NaN, NaN, NaN, 0.0323506, "- N/A -   "
43.53, 1837.75, 0.07268148, NaN, NaN, NaN, 0.0323506, "- N/A -   "
43.56, 1839.18, 0.07272868, NaN, NaN, NaN, 0.0347922, "- N/A -   "
43.59, 1840.37, 0.0727759, NaN, NaN, NaN, 0.0347922, "- N/A -   "
43.62, 1841.8, 0.07282865, NaN, NaN, NaN, 0.0335714, "- N/A -   "
43.65, 1843.35, 0.07288141, NaN, NaN, NaN, 0.0323506, "- N/A -   "
43.68, 1844.66, 0.07293139, NaN, NaN, NaN, 0.0323506, "- N/A -   "
43.71, 1846.09, 0.0729814, NaN, NaN, NaN, 0.0323506, "- N/A -   "
43.74, 1847.29, 0.07303134, NaN, NaN, NaN, 0.0335714, "- N/A -   "
43.77, 1848.6, 0.07307856, NaN, NaN, NaN, 0.0335714, "- N/A -   "
43.8, 1849.791, 0.07312298, NaN, NaN, NaN, 0.0372337, "- N/A -   "
43.83, 1851.1, 0.07316741, NaN, NaN, NaN, 0.0384545, "- N/A -   "
43.86, 1852.18, 0.07321461, NaN, NaN, NaN, 0.0396753, "- N/A -   "
43.89, 1853.49, 0.07325905, NaN, NaN, NaN, 0.04211683, "- N/A -   "
43.92, 1854.68, 0.07330625, NaN, NaN, NaN, 0.0445584, "- N/A -   "
43.95, 1855.99, 0.0733535, NaN, NaN, NaN, 0.0445584, "- N/A -   "
43.98, 1857.42, 0.07340343, NaN, NaN, NaN, 0.0445584, "- N/A -   "
44.01, 1858.62, 0.07345342, NaN, NaN, NaN, 0.0445584, "- N/A -   "
44.04, 1860.29, 0.07350618, NaN, NaN, NaN, 0.0433376, "- N/A -   "
44.07, 1861.84, 0.0735645, NaN, NaN, NaN, 0.0396753, "- N/A -   "
44.1, 1863.39, 0.07362279, NaN, NaN, NaN, 0.0372337, "- N/A -   "
44.13, 1864.82, 0.07367556, NaN, NaN, NaN, 0.0347922, "- N/A -   "
44.16, 1866.49, 0.0737283, NaN, NaN, NaN, 0.0335714, "- N/A -   "
44.19, 1867.68, 0.0737783, NaN, NaN, NaN, 0.0347922, "- N/A -   "
44.22, 1869.23, 0.07383105, NaN, NaN, NaN, 0.0323506, "- N/A -   "
44.25, 1870.66, 0.07388381, NaN, NaN, NaN, 0.03112983, "- N/A -   "
44.28, 1872.21, 0.07393657, NaN, NaN, NaN, 0.0299091, "- N/A -   "
44.31, 1873.52, 0.0739893, NaN, NaN, NaN, 0.0286883, "- N/A -   "
44.34, 1874.83, 0.07403931, NaN, NaN, NaN, 0.0286883, "- N/A -   "
44.37, 1876.26, 0.07408652, NaN, NaN, NaN, 0.03112983, "- N/A -   "
44.4, 1877.34, 0.07413372, NaN, NaN, NaN, 0.0323506, "- N/A -   "
44.43, 1878.65, 0.07417815, NaN, NaN, NaN, 0.0347922, "- N/A -   "
44.46, 1879.84, 0.07422257, NaN, NaN, NaN, 0.0372337, "- N/A -   "
44.49, 1880.92, 0.07426423, NaN, NaN, NaN, 0.04211683, "- N/A -   "
44.52, 1881.99, 0.07430588, NaN, NaN, NaN, 0.0445584, "- N/A -   "
44.55, 1883.06, 0.0743503, NaN, NaN, NaN, 0.04699994, "- N/A -   "
44.58, 1884.37, 0.07439473, NaN, NaN, NaN, 0.0494415, "- N/A -   "
44.61, 1885.69, 0.07444749, NaN, NaN, NaN, 0.0494415, "- N/A -   "
44.64, 1887.24, 0.0745003, NaN, NaN, NaN, 0.04699994, "- N/A -   "
44.67, 1889.02, 0.0745613, NaN, NaN, NaN, 0.0433376, "- N/A -   "
44.7, 1890.69, 0.07462243, NaN, NaN, NaN, 0.0384545, "- N/A -   "
44.73, 1892.364, 0.07468074, NaN, NaN, NaN, 0.0335714, "- N/A -   "
44.76, 1893.91, 0.0747363, NaN, NaN, NaN, 0.03112983, "- N/A -   "
44.79, 1895.35, 0.07478626, NaN, NaN, NaN, 0.03112983, "- N/A -   "
44.82, 1896.54, 0.07483624, NaN, NaN, NaN, 0.03112983, "- N/A -   "
44.85, 1897.97, 0.07488622, NaN, NaN, NaN, 0.03112983, "- N/A -   "
44.88, 1899.28, 0.074939, NaN, NaN, NaN, 0.0299091, "- N/A -   "
44.91, 1900.71, 0.07499173, NaN, NaN, NaN, 0.0299091, "- N/A -   "
44.94, 1902.02, 0.07503894, NaN, NaN, NaN, 0.0299091, "- N/A -   "
44.97, 1903.57, 0.0750917, NaN, NaN, NaN, 0.0286883, "- N/A -   "
45, 1904.89, 0.0751445, NaN, NaN, NaN, 0.0274675, "- N/A -   "
45.03, 1906.078, 0.07519166, NaN, NaN, NaN, 0.0299091, "- N/A -   "
45.06, 1907.15, 0.07523054, NaN, NaN, NaN, 0.0335714, "- N/A -   "
45.09, 1908.22, 0.07526941, NaN, NaN, NaN, 0.0384545, "- N/A -   "
45.12, 1909.3, 0.07531384, NaN, NaN, NaN, 0.04089605, "- N/A -   "
45.15, 1910.37, 0.0753583, NaN, NaN, NaN, 0.0445584, "- N/A -   "
45.18, 1911.68, 0.07540269, NaN, NaN, NaN, 0.04577916, "- N/A -   "
45.21, 1912.99, 0.07545268, NaN, NaN, NaN, 0.04699994, "- N/A -   "
45.24, 1914.43, 0.07550266, NaN, NaN, NaN, 0.04577916, "- N/A -   "
45.27, 1915.98, 0.0755554, NaN, NaN, NaN, 0.04577916, "- N/A -   "
45.3, 1917.29, 0.0756054, NaN, NaN, NaN, 0.0445584, "- N/A -   "
45.33, 1918.72, 0.07565816, NaN, NaN, NaN, 0.0433376, "- N/A -   "
45.36, 1920.03, 0.0757081, NaN, NaN, NaN, 0.0433376, "- N/A -   "
45.39, 1921.7, 0.07576367, NaN, NaN, NaN, 0.04089605, "- N/A -   "
45.42, 1923.13, 0.07582198, NaN, NaN, NaN, 0.0372337, "- N/A -   "
45.45, 1924.92, 0.0758831, NaN, NaN, NaN, 0.0323506, "- N/A -   "
45.48, 1926.47, 0.0759414, NaN, NaN, NaN, 0.0299091, "- N/A -   "
45.51, 1927.78, 0.07598859, NaN, NaN, NaN, 0.03112983, "- N/A -   "
45.54, 1928.97, 0.07603579, NaN, NaN, NaN, 0.03112983, "- N/A -   "
45.57, 1930.41, 0.0760858, NaN, NaN, NaN, 0.03112983, "- N/A -   "
45.6, 1931.598, 0.07613298, NaN, NaN, NaN, 0.0323506, "- N/A -   "
45.63, 1932.79, 0.07617741, NaN, NaN, NaN, 0.03601294, "- N/A -   "
45.66, 1934.1, 0.07622184, NaN, NaN, NaN, 0.0372337, "- N/A -   "
45.69, 1935.414, 0.07627182, NaN, NaN, NaN, 0.0372337, "- N/A -   "
45.72, 1936.845, 0.0763218, NaN, NaN, NaN, 0.0372337, "- N/A -   "
45.75, 1938.4, 0.07637456, NaN, NaN, NaN, 0.03601294, "- N/A -   "
45.78, 1939.83, 0.07642732, NaN, NaN, NaN, 0.0347922, "- N/A -   "
45.81, 1941.02, 0.0764745, NaN, NaN, NaN, 0.03601294, "- N/A -   "
45.84, 1942.09, 0.0765134, NaN, NaN, NaN, 0.04089605, "- N/A -   "
45.87, 1943.4, 0.0765606, NaN, NaN, NaN, 0.04211683, "- N/A -   "
45.9, 1944.477, 0.0766078, NaN, NaN, NaN, 0.0433376, "- N/A -   "
45.93, 1945.91, 0.07665501, NaN, NaN, NaN, 0.0445584, "- N/A -   "
45.96, 1947.1, 0.0767022, NaN, NaN, NaN, 0.04699994, "- N/A -   "
45.99, 1948.53, 0.07675219, NaN, NaN, NaN, 0.04577916, "- N/A -   "
46.02, 1950.2, 0.07681051, NaN, NaN, NaN, 0.0433376, "- N/A -   "
46.05, 1951.87, 0.0768744, NaN, NaN, NaN, 0.03601294, "- N/A -   "
46.08, 1953.54, 0.07693547, NaN, NaN, NaN, 0.03112983, "- N/A -   "
46.11, 1955.21, 0.076991, NaN, NaN, NaN, 0.0286883, "- N/A -   "
46.14, 1956.52, 0.077041, NaN, NaN, NaN, 0.0286883, "- N/A -   "
46.17, 1957.83, 0.07709096, NaN, NaN, NaN, 0.0286883, "- N/A -   "
46.2, 1959.15, 0.07713817, NaN, NaN, NaN, 0.0299091, "- N/A -   "
46.23, 1960.22, 0.0771826, NaN, NaN, NaN, 0.0323506, "- N/A -   "
46.26, 1961.53, 0.077227, NaN, NaN, NaN, 0.0347922, "- N/A -   "
46.29, 1962.72, 0.0772742, NaN, NaN, NaN, 0.03601294, "- N/A -   "
46.32, 1964.15, 0.07732699, NaN, NaN, NaN, 0.0347922, "- N/A -   "
46.35, 1965.704, 0.07738252, NaN, NaN, NaN, 0.0323506, "- N/A -   "
46.38, 1967.25, 0.0774381, NaN, NaN, NaN, 0.0299091, "- N/A -   "
46.41, 1968.69, 0.0774908, NaN, NaN, NaN, 0.0286883, "- N/A -   "
46.44, 1969.88, 0.07753247, NaN, NaN, NaN, 0.0323506, "- N/A -   "
46.47, 1970.83, 0.07757412, NaN, NaN, NaN, 0.03601294, "- N/A -   "
46.5, 1971.91, 0.077613, NaN, NaN, NaN, 0.04089605, "- N/A -   "
46.53, 1972.86, 0.07765465, NaN, NaN, NaN, 0.04577916, "- N/A -   "
46.56, 1974.05, 0.07769907, NaN, NaN, NaN, 0.04699994, "- N/A -   "
46.59, 1975.72, 0.07775461, NaN, NaN, NaN, 0.0445584, "- N/A -   "
46.62, 1977.15, 0.07781014, NaN, NaN, NaN, 0.0433376, "- N/A -   "
46.65, 1978.464, 0.0778601, NaN, NaN, NaN, 0.04211683, "- N/A -   "
46.68, 1980.01, 0.07791288, NaN, NaN, NaN, 0.04089605, "- N/A -   "
46.71, 1981.45, 0.07796842, NaN, NaN, NaN, 0.0396753, "- N/A -   "
46.74, 1982.757, 0.0780184, NaN, NaN, NaN, 0.0384545, "- N/A -   "
46.77, 1984.188, 0.07807116, NaN, NaN, NaN, 0.0372337, "- N/A -   "
46.8, 1985.619, 0.07812669, NaN, NaN, NaN, 0.03601294, "- N/A -   "
46.83, 1987.05, 0.07817946, NaN, NaN, NaN, 0.0347922, "- N/A -   "
46.86, 1988.36, 0.07822666, NaN, NaN, NaN, 0.0347922, "- N/A -   "
46.89, 1989.67, 0.0782766, NaN, NaN, NaN, 0.03601294, "- N/A -   "
46.92, 1991.34, 0.0783294, NaN, NaN, NaN, 0.0335714, "- N/A -   "
46.95, 1992.65, 0.07838215, NaN, NaN, NaN, 0.0323506, "- N/A -   "
46.98, 1993.97, 0.0784349, NaN, NaN, NaN, 0.0323506, "- N/A -   "
47.01, 1995.28, 0.07848489, NaN, NaN, NaN, 0.0323506, "- N/A -   "
47.04, 1996.83, 0.07853766, NaN, NaN, NaN, 0.0299091, "- N/A -   "
47.07, 1998.02, 0.07858485, NaN, NaN, NaN, 0.03112983, "- N/A -   "
47.1, 1999.21, 0.0786321, NaN, NaN, NaN, 0.0323506, "- N/A -   "
47.13, 2000.53, 0.07868204, NaN, NaN, NaN, 0.0323506, "- N/A -   "
47.16, 2001.84, 0.07873202, NaN, NaN, NaN, 0.0335714, "- N/A -   "
47.19, 2003.03, 0.07877368, NaN, NaN, NaN, 0.0372337, "- N/A -   "
47.22, 2003.98, 0.0788181, NaN, NaN, NaN, 0.0396753, "- N/A -   "
47.25, 2005.3, 0.07886253, NaN, NaN, NaN, 0.04089605, "- N/A -   "
47.28, 2006.37, 0.07890695, NaN, NaN, NaN, 0.0433376, "- N/A -   "
47.31, 2007.56, 0.07895417, NaN, NaN, NaN, 0.0445584, "- N/A -   "
47.34, 2008.87, 0.0790014, NaN, NaN, NaN, 0.04577916, "- N/A -   "
47.37, 2010.42, 0.0790513, NaN, NaN, NaN, 0.04577916, "- N/A -   "
47.4, 2011.97, 0.07910689, NaN, NaN, NaN, 0.0445584, "- N/A -   "
47.43, 2013.29, 0.07915964, NaN, NaN, NaN, 0.04211683, "- N/A -   "
47.46, 2015.07, 0.0792207, NaN, NaN, NaN, 0.0372337, "- N/A -   "
47.49, 2016.51, 0.07927627, NaN, NaN, NaN, 0.0347922, "- N/A -   "
47.52, 2017.94, 0.0793318, NaN, NaN, NaN, 0.0323506, "- N/A -   "
47.55, 2019.25, 0.0793846, NaN, NaN, NaN, 0.0323506, "- N/A -   "
47.58, 2020.68, 0.0794345, NaN, NaN, NaN, 0.0323506, "- N/A -   "
47.61, 2022.11, 0.0794873, NaN, NaN, NaN, 0.0299091, "- N/A -   "
47.64, 2023.54, 0.07953729, NaN, NaN, NaN, 0.03112983, "- N/A -   "
47.67, 2024.73, 0.0795873, NaN, NaN, NaN, 0.0299091, "- N/A -   "
47.7, 2026.16, 0.0796372, NaN, NaN, NaN, 0.0299091, "- N/A -   "
47.73, 2027.715, 0.07969278, NaN, NaN, NaN, 0.0274675, "- N/A -   "
47.76, 2029.03, 0.07974277, NaN, NaN, NaN, 0.0274675, "- N/A -   "
47.79, 2030.1, 0.0797872, NaN, NaN, NaN, 0.0299091, "- N/A -   "
47.82, 2031.29, 0.0798344, NaN, NaN, NaN, 0.03112983, "- N/A -   "
47.85, 2032.37, 0.07987604, NaN, NaN, NaN, 0.0347922, "- N/A -   "
47.88, 2033.44, 0.0799177, NaN, NaN, NaN, 0.0384545, "- N/A -   "
47.91, 2034.27, 0.0799566, NaN, NaN, NaN, 0.0445584, "- N/A -   "
47.94, 2035.347, 0.0799982, NaN, NaN, NaN, 0.04699994, "- N/A -   "
47.97, 2036.78, 0.0800482, NaN, NaN, NaN, 0.04699994, "- N/A -   "
48, 2038.09, 0.08009819, NaN, NaN, NaN, 0.0482207, "- N/A -   "
48.03, 2039.521, 0.08015094, NaN, NaN, NaN, 0.04699994, "- N/A -   "
48.06, 2040.95, 0.08020648, NaN, NaN, NaN, 0.0433376, "- N/A -   "
48.09, 2042.62, 0.08026757, NaN, NaN, NaN, 0.0384545, "- N/A -   "
48.12, 2044.17, 0.08032588, NaN, NaN, NaN, 0.03601294, "- N/A -   "
48.15, 2045.6, 0.0803759, NaN, NaN, NaN, 0.0347922, "- N/A -   "
48.18, 2046.8, 0.08042862, NaN, NaN, NaN, 0.0347922, "- N/A -   "
48.21, 2048.11, 0.0804786, NaN, NaN, NaN, 0.0335714, "- N/A -   "
48.24, 2049.538, 0.0805314, NaN, NaN, NaN, 0.0335714, "- N/A -   "
48.27, 2050.85, 0.08058412, NaN, NaN, NaN, 0.0323506, "- N/A -   "
48.3, 2052.52, 0.08063966, NaN, NaN, NaN, 0.0286883, "- N/A -   "
48.33, 2053.95, 0.08069519, NaN, NaN, NaN, 0.0274675, "- N/A -   "
48.36, 2055.143, 0.08073962, NaN, NaN, NaN, 0.0286883, "- N/A -   "
48.39, 2056.34, 0.08078682, NaN, NaN, NaN, 0.0299091, "- N/A -   "
48.42, 2057.65, 0.08083958, NaN, NaN, NaN, 0.0286883, "- N/A -   "
48.45, 2058.959, 0.08088679, NaN, NaN, NaN, 0.0299091, "- N/A -   "
48.48, 2059.913, 0.08092844, NaN, NaN, NaN, 0.0335714, "- N/A -   "
48.51, 2060.867, 0.08096731, NaN, NaN, NaN, 0.0384545, "- N/A -   "
48.54, 2061.94, 0.081009, NaN, NaN, NaN, 0.04211683, "- N/A -   "
48.57, 2063.13, 0.08105617, NaN, NaN, NaN, 0.0433376, "- N/A -   "
48.6, 2064.44, 0.08110615, NaN, NaN, NaN, 0.0433376, "- N/A -   "
48.63, 2065.76, 0.0811589, NaN, NaN, NaN, 0.04211683, "- N/A -   "
48.66, 2067.19, 0.08120889, NaN, NaN, NaN, 0.04211683, "- N/A -   "
48.69, 2068.38, 0.08125887, NaN, NaN, NaN, 0.04211683, "- N/A -   "
48.72, 2069.69, 0.08130885, NaN, NaN, NaN, 0.04211683, "- N/A -   "
48.75, 2070.88, 0.08135883, NaN, NaN, NaN, 0.04211683, "- N/A -   "
48.78, 2072.32, 0.08141159, NaN, NaN, NaN, 0.04089605, "- N/A -   "
48.81, 2073.746, 0.08146712, NaN, NaN, NaN, 0.0396753, "- N/A -   "
48.84, 2075.3, 0.08152544, NaN, NaN, NaN, 0.0347922, "- N/A -   "
48.87, 2076.966, 0.0815865, NaN, NaN, NaN, 0.03112983, "- N/A -   "
48.9, 2078.4, 0.0816421, NaN, NaN, NaN, 0.0286883, "- N/A -   "
48.93, 2079.71, 0.08169204, NaN, NaN, NaN, 0.0299091, "- N/A -   "
48.96, 2081.02, 0.08173925, NaN, NaN, NaN, 0.0299091, "- N/A -   "
48.99, 2082.21, 0.081792, NaN, NaN, NaN, 0.0286883, "- N/A -   "
49.02, 2083.41, 0.08183921, NaN, NaN, NaN, 0.0299091, "- N/A -   "
49.05, 2084.479, 0.08187809, NaN, NaN, NaN, 0.0347922, "- N/A -   "
49.08, 2085.79, 0.08192806, NaN, NaN, NaN, 0.0347922, "- N/A -   "
49.11, 2086.864, 0.0819753, NaN, NaN, NaN, 0.0372337, "- N/A -   "
49.14, 2088.18, 0.08202525, NaN, NaN, NaN, 0.0372337, "- N/A -   "
49.17, 2089.49, 0.08207801, NaN, NaN, NaN, 0.03601294, "- N/A -   "
49.2, 2090.8, 0.082128, NaN, NaN, NaN, 0.0347922, "- N/A -   "
49.23, 2091.87, 0.0821752, NaN, NaN, NaN, 0.03601294, "- N/A -   "
49.26, 2092.95, 0.0822168, NaN, NaN, NaN, 0.04089605, "- N/A -   "
49.29, 2093.9, 0.0822585, NaN, NaN, NaN, 0.0433376, "- N/A -   "
49.32, 2095.21, 0.08230571, NaN, NaN, NaN, 0.0445584, "- N/A -   "
49.35, 2096.404, 0.0823557, NaN, NaN, NaN, 0.0445584, "- N/A -   "
49.38, 2097.716, 0.08240567, NaN, NaN, NaN, 0.0445584, "- N/A -   "
49.41, 2099.147, 0.0824612, NaN, NaN, NaN, 0.04211683, "- N/A -   "
49.44, 2100.578, 0.08251952, NaN, NaN, NaN, 0.0384545, "- N/A -   "
49.47, 2102.13, 0.0825778, NaN, NaN, NaN, 0.0347922, "- N/A -   "
49.5, 2103.68, 0.08263613, NaN, NaN, NaN, 0.0323506, "- N/A -   "
49.53, 2104.871, 0.08268334, NaN, NaN, NaN, 0.0323506, "- N/A -   "
49.56, 2106.06, 0.0827333, NaN, NaN, NaN, 0.0335714, "- N/A -   "
49.59, 2107.02, 0.0827777, NaN, NaN, NaN, 0.0347922, "- N/A -   "
49.62, 2108.21, 0.08282495, NaN, NaN, NaN, 0.03601294, "- N/A -   "
49.65, 2109.28, 0.08287217, NaN, NaN, NaN, 0.0372337, "- N/A -   "
49.68, 2110.595, 0.08291936, NaN, NaN, NaN, 0.0384545, "- N/A -   "
49.71, 2111.79, 0.0829721, NaN, NaN, NaN, 0.0372337, "- N/A -   "
49.74, 2113.22, 0.08302765, NaN, NaN, NaN, 0.0347922, "- N/A -   "
49.769, 2114.53, 0.08308042, NaN, NaN, NaN, 0.0323506, "- N/A -   "