File: 2_Tensile_Data/Hamel_ForceTest_Bolt3_Test7.csv
Time, Load (lb), Position (in), AxialStrain (in), TransverseStrain (in), Auxiliary (), Control Out (V), Stress (psi)
0.0, 11.6768, 0.0, NaN, NaN, NaN, -0.006714277, "- N/A -   "
0.01, 11.7947, 2.776752E-6, NaN, NaN, NaN, -6.103888E-4, "- N/A -   "
0.02, 11.6768, 2.776752E-6, NaN, NaN, NaN, 0.006714277, "- N/A -   "
0.03, 11.7947, 5.553504E-6, NaN, NaN, NaN, 0.0164805, "- N/A -   "
0.04, 11.7947, 8.330256E-6, NaN, NaN, NaN, 0.0347922, "- N/A -   "
0.05, 11.7947, 1.38838e-05, NaN, NaN, NaN, 0.05188305, "- N/A -   "
0.06, 12.0306, 2.77675e-05, NaN, NaN, NaN, 0.0653116, "- N/A -   "
0.07, 12.3845, 4.442803E-5, NaN, NaN, NaN, 0.07751938, "- N/A -   "
0.08, 12.6204, 6.6642e-05, NaN, NaN, NaN, 0.08850638, "- N/A -   "
0.09, 12.9742, 9.16328e-05, NaN, NaN, NaN, 0.095831, "- N/A -   "
0.1, 13.446, 0.000122177, NaN, NaN, NaN, 0.101935, "- N/A -   "
0.11, 13.7999, 0.000152721, NaN, NaN, NaN, 0.09949338, "- N/A -   "
0.12, 14.2716, 0.000183266, NaN, NaN, NaN, 0.09461027, "- N/A -   "
0.13, 14.6255, 0.000211033, NaN, NaN, NaN, 0.0897272, "- N/A -   "
0.14, 14.9793, 2.360239E-4, NaN, NaN, NaN, 0.08606482, "- N/A -   "
0.15, 15.3332, 2.582379E-4, NaN, NaN, NaN, 0.08240249, "- N/A -   "
0.16, 15.5691, 2.832287E-4, NaN, NaN, NaN, 0.07874016, "- N/A -   "
0.17, 15.9229, 3.054427E-4, NaN, NaN, NaN, 0.0762986, "- N/A -   "
0.18, 16.3947, 0.000327657, NaN, NaN, NaN, 0.07385705, "- N/A -   "
0.19, 16.5126, 0.000349871, NaN, NaN, NaN, 0.07141549, "- N/A -   "
0.2, 16.86649, 3.69308E-4, NaN, NaN, NaN, 0.0701947, "- N/A -   "
0.21, 17.1024, 0.000388745, NaN, NaN, NaN, 0.0689739, "- N/A -   "
0.22, 17.3383, 0.000410959, NaN, NaN, NaN, 0.06775316, "- N/A -   "
0.23, 17.6921, 0.000430397, NaN, NaN, NaN, 0.06653238, "- N/A -   "
0.24, 18.046, 0.000452611, NaN, NaN, NaN, 0.0640908, "- N/A -   "
0.25, 18.2819, 0.000469271, NaN, NaN, NaN, 0.06287005, "- N/A -   "
0.26, 18.5178, 4.887083E-4, NaN, NaN, NaN, 0.06164927, "- N/A -   "
0.27, 18.8716, 0.000510922, NaN, NaN, NaN, 0.0604285, "- N/A -   "
0.28, 19.1075, 0.00053036, NaN, NaN, NaN, 0.0579869, "- N/A -   "
0.29, 19.3434, 0.000549797, NaN, NaN, NaN, 0.05676616, "- N/A -   "
0.3, 19.8152, 5.720109E-4, NaN, NaN, NaN, 0.0543246, "- N/A -   "
0.31, 20.05107, 5.942249E-4, NaN, NaN, NaN, 0.05188305, "- N/A -   "
0.32, 20.4049, 0.000619216, NaN, NaN, NaN, 0.0494415, "- N/A -   "
0.33, 20.6408, 0.000638653, NaN, NaN, NaN, 0.0482207, "- N/A -   "
0.34, 20.99465, 6.608669E-4, NaN, NaN, NaN, 0.04577916, "- N/A -   "
0.35, 21.2305, 6.803042E-4, NaN, NaN, NaN, 0.0433376, "- N/A -   "
0.36, 21.5844, 7.025182E-4, NaN, NaN, NaN, 0.04211683, "- N/A -   "
0.37, 21.8203, 7.191787E-4, NaN, NaN, NaN, 0.04089605, "- N/A -   "
0.38, 22.0562, 7.38616E-4, NaN, NaN, NaN, 0.0396753, "- N/A -   "
0.39, 22.41, 0.000758053, NaN, NaN, NaN, 0.0396753, "- N/A -   "
0.4, 22.6459, 0.000774714, NaN, NaN, NaN, 0.0384545, "- N/A -   "
0.41, 22.88181, 0.000794151, NaN, NaN, NaN, 0.0384545, "- N/A -   "
0.42, 23.1177, 8.108115E-4, NaN, NaN, NaN, 0.0384545, "- N/A -   "
0.43, 23.4715, 8.302488E-4, NaN, NaN, NaN, 0.0372337, "- N/A -   "
0.44, 23.7074, 8.469093E-4, NaN, NaN, NaN, 0.03601294, "- N/A -   "
0.45, 23.9433, 8.663466E-4, NaN, NaN, NaN, 0.03601294, "- N/A -   "
0.46, 24.1792, 0.00088023, NaN, NaN, NaN, 0.03601294, "- N/A -   "
0.47, 24.4151, 8.968908E-4, NaN, NaN, NaN, 0.03601294, "- N/A -   "
0.48, 24.65102, 0.000913551, NaN, NaN, NaN, 0.03601294, "- N/A -   "
0.49, 25.0049, 0.000930212, NaN, NaN, NaN, 0.03601294, "- N/A -   "
0.5, 25.2408, 0.000949649, NaN, NaN, NaN, 0.03601294, "- N/A -   "
0.51, 25.4767, 9.663096E-4, NaN, NaN, NaN, 0.0347922, "- N/A -   "
0.52, 25.7125, 9.857469E-4, NaN, NaN, NaN, 0.0347922, "- N/A -   "
0.53, 26.0664, 0.00100518, NaN, NaN, NaN, 0.0335714, "- N/A -   "
0.54, 26.3023, 0.00102462, NaN, NaN, NaN, 0.0323506, "- N/A -   "
0.55, 26.5382, 0.00104406, NaN, NaN, NaN, 0.03112983, "- N/A -   "
0.56, 26.892, 0.00106072, NaN, NaN, NaN, 0.0299091, "- N/A -   "
0.57, 27.1279, 0.00107738, NaN, NaN, NaN, 0.0299091, "- N/A -   "
0.58, 27.3638, 0.00109404, NaN, NaN, NaN, 0.0299091, "- N/A -   "
0.59, 27.5997, 0.00111348, NaN, NaN, NaN, 0.0299091, "- N/A -   "
0.6, 27.8356, 0.00112736, NaN, NaN, NaN, 0.0299091, "- N/A -   "
0.61, 28.0715, 0.0011468, NaN, NaN, NaN, 0.0299091, "- N/A -   "
0.62, 28.3074, 0.001163459, NaN, NaN, NaN, 0.0299091, "- N/A -   "
0.63, 28.54329, 0.00118012, NaN, NaN, NaN, 0.0299091, "- N/A -   "
0.64, 28.7792, 0.001194, NaN, NaN, NaN, 0.0299091, "- N/A -   "
0.65, 29.0151, 0.00121066, NaN, NaN, NaN, 0.03112983, "- N/A -   "
0.66, 29.251, 0.00122177, NaN, NaN, NaN, 0.0323506, "- N/A -   "
0.67, 29.3689, 0.00123843, NaN, NaN, NaN, 0.0323506, "- N/A -   "
0.68, 29.6048, 0.00125232, NaN, NaN, NaN, 0.0347922, "- N/A -   "
0.69, 29.84071, 0.00126342, NaN, NaN, NaN, 0.03601294, "- N/A -   "
0.7, 30.0766, 0.00127731, NaN, NaN, NaN, 0.0372337, "- N/A -   "
0.71, 30.1946, 0.00129119, NaN, NaN, NaN, 0.0384545, "- N/A -   "
0.72, 30.4304, 0.00130785, NaN, NaN, NaN, 0.0396753, "- N/A -   "
0.73, 30.6663, 0.00131896, NaN, NaN, NaN, 0.04089605, "- N/A -   "
0.74, 30.9022, 0.00133284, NaN, NaN, NaN, 0.04211683, "- N/A -   "
0.75, 31.1381, 0.00134672, NaN, NaN, NaN, 0.0433376, "- N/A -   "
0.76, 31.374, 0.00136339, NaN, NaN, NaN, 0.0433376, "- N/A -   "
0.77, 31.492, 0.00137727, NaN, NaN, NaN, 0.0445584, "- N/A -   "
0.78, 31.72787, 0.00139115, NaN, NaN, NaN, 0.04577916, "- N/A -   "
0.79, 31.9638, 0.00140781, NaN, NaN, NaN, 0.04577916, "- N/A -   "
0.8, 32.08171, 0.00142447, NaN, NaN, NaN, 0.04577916, "- N/A -   "
0.81, 32.4356, 0.00144113, NaN, NaN, NaN, 0.04577916, "- N/A -   "
0.82, 32.67145, 0.00145779, NaN, NaN, NaN, 0.04577916, "- N/A -   "
0.83, 32.9073, 0.00147168, NaN, NaN, NaN, 0.04699994, "- N/A -   "
0.84, 33.1432, 0.00148834, NaN, NaN, NaN, 0.04699994, "- N/A -   "
0.85, 33.3791, 0.001505, NaN, NaN, NaN, 0.04699994, "- N/A -   "
0.86, 33.61503, 0.00152166, NaN, NaN, NaN, 0.04699994, "- N/A -   "
0.87, 33.8509, 0.00153832, NaN, NaN, NaN, 0.04699994, "- N/A -   "
0.88, 34.2048, 0.00155776, NaN, NaN, NaN, 0.04577916, "- N/A -   "
0.89, 34.4407, 0.001577195, NaN, NaN, NaN, 0.0445584, "- N/A -   "
0.9, 34.7945, 0.00159663, NaN, NaN, NaN, 0.0433376, "- N/A -   "
0.91, 35.0304, 0.00161607, NaN, NaN, NaN, 0.04211683, "- N/A -   "
0.92, 35.3842, 0.00163828, NaN, NaN, NaN, 0.04089605, "- N/A -   "
0.93, 35.6201, 0.00165772, NaN, NaN, NaN, 0.0396753, "- N/A -   "
0.94, 35.85603, 0.001677158, NaN, NaN, NaN, 0.0384545, "- N/A -   "
0.95, 36.0919, 0.00169382, NaN, NaN, NaN, 0.0384545, "- N/A -   "
0.96, 36.32782, 0.00171048, NaN, NaN, NaN, 0.0372337, "- N/A -   "
0.97, 36.6817, 0.00172992, NaN, NaN, NaN, 0.0372337, "- N/A -   "
0.98, 36.9176, 0.00174658, NaN, NaN, NaN, 0.03601294, "- N/A -   "
0.99, 37.2714, 0.00176601, NaN, NaN, NaN, 0.03601294, "- N/A -   "
1, 37.5073, 0.00178267, NaN, NaN, NaN, 0.0347922, "- N/A -   "
1.01, 37.6252, 0.00179934, NaN, NaN, NaN, 0.0347922, "- N/A -   "
1.02, 37.9791, 0.001816, NaN, NaN, NaN, 0.03601294, "- N/A -   "
1.03, 38.215, 0.00183266, NaN, NaN, NaN, 0.03601294, "- N/A -   "
1.04, 38.4509, 0.00184932, NaN, NaN, NaN, 0.03601294, "- N/A -   "
1.05, 38.68677, 0.0018632, NaN, NaN, NaN, 0.03601294, "- N/A -   "
1.06, 38.9227, 0.001879861, NaN, NaN, NaN, 0.03601294, "- N/A -   "
1.07, 39.15856, 0.0018993, NaN, NaN, NaN, 0.03601294, "- N/A -   "
1.08, 39.3945, 0.00191596, NaN, NaN, NaN, 0.0347922, "- N/A -   "
1.09, 39.6304, 0.001935396, NaN, NaN, NaN, 0.0347922, "- N/A -   "
1.1, 39.98419, 0.00195206, NaN, NaN, NaN, 0.0335714, "- N/A -   "
1.11, 40.22009, 0.00197427, NaN, NaN, NaN, 0.03112983, "- N/A -   "
1.12, 40.57393, 0.00199371, NaN, NaN, NaN, 0.0299091, "- N/A -   "
1.13, 40.8098, 0.002013145, NaN, NaN, NaN, 0.0286883, "- N/A -   "
1.14, 41.04572, 0.00203258, NaN, NaN, NaN, 0.0274675, "- N/A -   "
1.15, 41.39956, 0.00205202, NaN, NaN, NaN, 0.0262467, "- N/A -   "
1.16, 41.6355, 0.00206868, NaN, NaN, NaN, 0.0262467, "- N/A -   "
1.17, 41.8714, 0.00208534, NaN, NaN, NaN, 0.0262467, "- N/A -   "
1.18, 42.1072, 0.002102001, NaN, NaN, NaN, 0.0262467, "- N/A -   "
1.19, 42.3431, 0.00211866, NaN, NaN, NaN, 0.0274675, "- N/A -   "
1.2, 42.579, 0.00213255, NaN, NaN, NaN, 0.0274675, "- N/A -   "
1.21, 42.8149, 0.002149206, NaN, NaN, NaN, 0.0286883, "- N/A -   "
1.22, 43.0508, 0.00216309, NaN, NaN, NaN, 0.0286883, "- N/A -   "
1.23, 43.2867, 0.00217975, NaN, NaN, NaN, 0.0286883, "- N/A -   "
1.24, 43.5226, 0.002193634, NaN, NaN, NaN, 0.0299091, "- N/A -   "
1.25, 43.87646, 0.00221029, NaN, NaN, NaN, 0.0299091, "- N/A -   "
1.26, 43.9944, 0.00222418, NaN, NaN, NaN, 0.03112983, "- N/A -   "
1.27, 44.2303, 0.00224084, NaN, NaN, NaN, 0.0323506, "- N/A -   "
1.28, 44.58414, 0.00225472, NaN, NaN, NaN, 0.0323506, "- N/A -   "
1.29, 44.70209, 0.002271383, NaN, NaN, NaN, 0.0323506, "- N/A -   "
1.3, 44.93799, 0.00228804, NaN, NaN, NaN, 0.0335714, "- N/A -   "
1.31, 45.17388, 0.00230193, NaN, NaN, NaN, 0.0335714, "- N/A -   "
1.32, 45.40978, 0.002315811, NaN, NaN, NaN, 0.0347922, "- N/A -   "
1.33, 45.5277, 0.00232969, NaN, NaN, NaN, 0.03601294, "- N/A -   "
1.34, 45.76362, 0.00234358, NaN, NaN, NaN, 0.0384545, "- N/A -   "
1.35, 45.8816, 0.00235746, NaN, NaN, NaN, 0.0384545, "- N/A -   "
1.36, 46.23541, 0.00237412, NaN, NaN, NaN, 0.0396753, "- N/A -   "
1.37, 46.4713, 0.00238801, NaN, NaN, NaN, 0.0396753, "- N/A -   "
1.38, 46.5893, 0.002404667, NaN, NaN, NaN, 0.04089605, "- N/A -   "
1.39, 46.9431, 0.00241855, NaN, NaN, NaN, 0.04089605, "- N/A -   "
1.4, 47.2969, 0.00243521, NaN, NaN, NaN, 0.04211683, "- N/A -   "
1.41, 47.4149, 0.002449095, NaN, NaN, NaN, 0.04211683, "- N/A -   "
1.42, 47.5328, 0.00246576, NaN, NaN, NaN, 0.0433376, "- N/A -   "
1.43, 47.8867, 0.00247964, NaN, NaN, NaN, 0.0433376, "- N/A -   "
1.44, 48.12257, 0.0024963, NaN, NaN, NaN, 0.0445584, "- N/A -   "
1.45, 48.47641, 0.00251018, NaN, NaN, NaN, 0.0445584, "- N/A -   "
1.46, 48.59436, 0.00252407, NaN, NaN, NaN, 0.04577916, "- N/A -   "
1.47, 48.83025, 0.0025435, NaN, NaN, NaN, 0.04577916, "- N/A -   "
1.48, 49.0661, 0.00256017, NaN, NaN, NaN, 0.0445584, "- N/A -   "
1.49, 49.41999, 0.0025796, NaN, NaN, NaN, 0.0445584, "- N/A -   "
1.5, 49.7738, 0.00259626, NaN, NaN, NaN, 0.0433376, "- N/A -   "
1.51, 50.0097, 0.00261292, NaN, NaN, NaN, 0.0433376, "- N/A -   "
1.52, 50.2456, 0.002629584, NaN, NaN, NaN, 0.0433376, "- N/A -   "
1.53, 50.4815, 0.00264624, NaN, NaN, NaN, 0.0445584, "- N/A -   "
1.54, 50.7174, 0.00266013, NaN, NaN, NaN, 0.0445584, "- N/A -   "
1.55, 51.0713, 0.00267679, NaN, NaN, NaN, 0.0445584, "- N/A -   "
1.56, 51.30715, 0.00269345, NaN, NaN, NaN, 0.0445584, "- N/A -   "
1.57, 51.66099, 0.00271011, NaN, NaN, NaN, 0.0445584, "- N/A -   "
1.58, 51.7789, 0.00272677, NaN, NaN, NaN, 0.0445584, "- N/A -   "
1.59, 52.1328, 0.00274621, NaN, NaN, NaN, 0.0445584, "- N/A -   "
1.6, 52.48662, 0.00276287, NaN, NaN, NaN, 0.0433376, "- N/A -   "
1.61, 52.6046, 0.00277953, NaN, NaN, NaN, 0.0433376, "- N/A -   "
1.62, 53.0764, 0.002798966, NaN, NaN, NaN, 0.0433376, "- N/A -   "
1.63, 53.19431, 0.00281563, NaN, NaN, NaN, 0.04211683, "- N/A -   "
1.64, 53.6661, 0.00283506, NaN, NaN, NaN, 0.04089605, "- N/A -   "
1.65, 53.784, 0.002854501, NaN, NaN, NaN, 0.0396753, "- N/A -   "
1.66, 54.2558, 0.002873938, NaN, NaN, NaN, 0.0396753, "- N/A -   "
1.67, 54.6097, 0.00289338, NaN, NaN, NaN, 0.0372337, "- N/A -   "
1.68, 54.8456, 0.00291281, NaN, NaN, NaN, 0.03601294, "- N/A -   "
1.69, 55.1994, 0.00293225, NaN, NaN, NaN, 0.03601294, "- N/A -   "
1.7, 55.55326, 0.002951687, NaN, NaN, NaN, 0.0335714, "- N/A -   "
1.71, 55.9071, 0.002973901, NaN, NaN, NaN, 0.0323506, "- N/A -   "
1.72, 56.143, 0.00299056, NaN, NaN, NaN, 0.03112983, "- N/A -   "
1.73, 56.4968, 0.003007222, NaN, NaN, NaN, 0.03112983, "- N/A -   "
1.74, 56.73273, 0.00302388, NaN, NaN, NaN, 0.03112983, "- N/A -   "
1.75, 56.9686, 0.003040543, NaN, NaN, NaN, 0.03112983, "- N/A -   "
1.76, 57.32247, 0.003057204, NaN, NaN, NaN, 0.03112983, "- N/A -   "
1.77, 57.5584, 0.00307386, NaN, NaN, NaN, 0.03112983, "- N/A -   "
1.78, 57.91221, 0.0030933, NaN, NaN, NaN, 0.0299091, "- N/A -   "
1.79, 58.1481, 0.003112739, NaN, NaN, NaN, 0.0299091, "- N/A -   "
1.8, 58.5019, 0.0031294, NaN, NaN, NaN, 0.0299091, "- N/A -   "
1.81, 58.7378, 0.00314606, NaN, NaN, NaN, 0.0299091, "- N/A -   "
1.82, 58.9737, 0.00316272, NaN, NaN, NaN, 0.0286883, "- N/A -   "
1.83, 59.2096, 0.003179381, NaN, NaN, NaN, 0.0286883, "- N/A -   "
1.84, 59.5635, 0.003196041, NaN, NaN, NaN, 0.0286883, "- N/A -   "
1.85, 59.79937, 0.003212702, NaN, NaN, NaN, 0.0299091, "- N/A -   "
1.86, 60.15321, 0.003226586, NaN, NaN, NaN, 0.0299091, "- N/A -   "
1.87, 60.5071, 0.003243246, NaN, NaN, NaN, 0.0299091, "- N/A -   "
1.88, 60.7429, 0.003259907, NaN, NaN, NaN, 0.0299091, "- N/A -   "
1.89, 60.97884, 0.00327379, NaN, NaN, NaN, 0.03112983, "- N/A -   "
1.9, 61.2147, 0.00328767, NaN, NaN, NaN, 0.0323506, "- N/A -   "
1.91, 61.45063, 0.003301558, NaN, NaN, NaN, 0.0335714, "- N/A -   "
1.92, 61.6865, 0.00331822, NaN, NaN, NaN, 0.0335714, "- N/A -   "
1.93, 61.9224, 0.0033321, NaN, NaN, NaN, 0.0347922, "- N/A -   "
1.94, 62.2763, 0.00334876, NaN, NaN, NaN, 0.03601294, "- N/A -   "
1.95, 62.5122, 0.00336542, NaN, NaN, NaN, 0.03601294, "- N/A -   "
1.96, 62.7481, 0.003379307, NaN, NaN, NaN, 0.03601294, "- N/A -   "
1.97, 63.1019, 0.00339597, NaN, NaN, NaN, 0.0372337, "- N/A -   "
1.98, 63.45574, 0.003412628, NaN, NaN, NaN, 0.03601294, "- N/A -   "
1.99, 63.6916, 0.00342929, NaN, NaN, NaN, 0.03601294, "- N/A -   "
2, 64.04548, 0.00344595, NaN, NaN, NaN, 0.0372337, "- N/A -   "
2.01, 64.16342, 0.00346261, NaN, NaN, NaN, 0.03601294, "- N/A -   "
2.02, 64.3993, 0.00347927, NaN, NaN, NaN, 0.03601294, "- N/A -   "
2.03, 64.87111, 0.00349593, NaN, NaN, NaN, 0.03601294, "- N/A -   "
2.04, 65.107, 0.00351259, NaN, NaN, NaN, 0.03601294, "- N/A -   "
2.05, 65.4608, 0.00352925, NaN, NaN, NaN, 0.0372337, "- N/A -   "
2.06, 65.5788, 0.00354591, NaN, NaN, NaN, 0.0372337, "- N/A -   "
2.07, 65.93263, 0.0035598, NaN, NaN, NaN, 0.0372337, "- N/A -   "
2.08, 66.2865, 0.00357368, NaN, NaN, NaN, 0.0384545, "- N/A -   "
2.09, 66.40443, 0.00359034, NaN, NaN, NaN, 0.0396753, "- N/A -   "
2.1, 66.64032, 0.00360422, NaN, NaN, NaN, 0.0396753, "- N/A -   "
2.11, 66.99416, 0.00361811, NaN, NaN, NaN, 0.04089605, "- N/A -   "
2.12, 67.23006, 0.00363199, NaN, NaN, NaN, 0.04211683, "- N/A -   "
2.13, 67.46596, 0.00364865, NaN, NaN, NaN, 0.04211683, "- N/A -   "
2.14, 67.70185, 0.00366531, NaN, NaN, NaN, 0.0433376, "- N/A -   "
2.15, 67.9377, 0.0036792, NaN, NaN, NaN, 0.0433376, "- N/A -   "
2.16, 68.29159, 0.00369308, NaN, NaN, NaN, 0.0445584, "- N/A -   "
2.17, 68.52748, 0.00370974, NaN, NaN, NaN, 0.0445584, "- N/A -   "
2.18, 68.7634, 0.0037264, NaN, NaN, NaN, 0.04577916, "- N/A -   "
2.19, 69.11722, 0.00374306, NaN, NaN, NaN, 0.0445584, "- N/A -   "
2.2, 69.35311, 0.00375972, NaN, NaN, NaN, 0.0445584, "- N/A -   "
2.21, 69.8249, 0.00377916, NaN, NaN, NaN, 0.0433376, "- N/A -   "
2.22, 69.94285, 0.00379582, NaN, NaN, NaN, 0.0433376, "- N/A -   "
2.23, 70.29669, 0.00381248, NaN, NaN, NaN, 0.0433376, "- N/A -   "
2.24, 70.6505, 0.00383192, NaN, NaN, NaN, 0.0433376, "- N/A -   "
2.25, 71.00438, 0.00385135, NaN, NaN, NaN, 0.04089605, "- N/A -   "
2.26, 71.3582, 0.00387079, NaN, NaN, NaN, 0.04089605, "- N/A -   "
2.27, 71.71206, 0.00389023, NaN, NaN, NaN, 0.0384545, "- N/A -   "
2.28, 72.06591, 0.00390967, NaN, NaN, NaN, 0.0372337, "- N/A -   "
2.29, 72.3018, 0.0039291, NaN, NaN, NaN, 0.03601294, "- N/A -   "
2.3, 72.77359, 0.00394576, NaN, NaN, NaN, 0.03601294, "- N/A -   "
2.31, 73.00948, 0.003965202, NaN, NaN, NaN, 0.0347922, "- N/A -   "
2.32, 73.36333, 0.00398464, NaN, NaN, NaN, 0.0335714, "- N/A -   "
2.33, 73.71717, 0.00400408, NaN, NaN, NaN, 0.0323506, "- N/A -   "
2.34, 74.189, 0.00402351, NaN, NaN, NaN, 0.03112983, "- N/A -   "
2.35, 74.42485, 0.00404295, NaN, NaN, NaN, 0.03112983, "- N/A -   "
2.36, 74.7787, 0.00406239, NaN, NaN, NaN, 0.0299091, "- N/A -   "
2.37, 75.0146, 0.00407905, NaN, NaN, NaN, 0.0299091, "- N/A -   "
2.38, 75.36844, 0.00409293, NaN, NaN, NaN, 0.0299091, "- N/A -   "
2.39, 75.7223, 0.00411237, NaN, NaN, NaN, 0.0299091, "- N/A -   "
2.4, 75.95817, 0.00412625, NaN, NaN, NaN, 0.0299091, "- N/A -   "
2.41, 76.19407, 0.00414291, NaN, NaN, NaN, 0.0299091, "- N/A -   "
2.42, 76.31202, 0.0041568, NaN, NaN, NaN, 0.03112983, "- N/A -   "
2.43, 76.6659, 0.00417346, NaN, NaN, NaN, 0.03112983, "- N/A -   "
2.44, 77.0197, 0.004187342, NaN, NaN, NaN, 0.0323506, "- N/A -   "
2.45, 77.25559, 0.004204, NaN, NaN, NaN, 0.0323506, "- N/A -   "
2.46, 77.6094, 0.004217886, NaN, NaN, NaN, 0.0335714, "- N/A -   "
2.47, 77.72738, 0.00423177, NaN, NaN, NaN, 0.03601294, "- N/A -   "
2.48, 78.08122, 0.00424565, NaN, NaN, NaN, 0.03601294, "- N/A -   "
2.49, 78.31712, 0.00426231, NaN, NaN, NaN, 0.03601294, "- N/A -   "
2.5, 78.67096, 0.00427897, NaN, NaN, NaN, 0.03601294, "- N/A -   "
2.51, 78.90686, 0.004295635, NaN, NaN, NaN, 0.03601294, "- N/A -   "
2.52, 79.2607, 0.00431507, NaN, NaN, NaN, 0.0347922, "- N/A -   "
2.53, 79.4966, 0.00433173, NaN, NaN, NaN, 0.0347922, "- N/A -   "
2.54, 79.85043, 0.00435117, NaN, NaN, NaN, 0.0347922, "- N/A -   "
2.55, 80.32223, 0.00436783, NaN, NaN, NaN, 0.0335714, "- N/A -   "
2.56, 80.55813, 0.004384491, NaN, NaN, NaN, 0.0335714, "- N/A -   "
2.57, 80.912, 0.00440393, NaN, NaN, NaN, 0.0323506, "- N/A -   "
2.58, 81.14786, 0.00442059, NaN, NaN, NaN, 0.0323506, "- N/A -   "
2.59, 81.61965, 0.00443725, NaN, NaN, NaN, 0.0323506, "- N/A -   "
2.6, 81.8555, 0.004456687, NaN, NaN, NaN, 0.03112983, "- N/A -   "
2.61, 82.20939, 0.004473347, NaN, NaN, NaN, 0.03112983, "- N/A -   "
2.62, 82.44528, 0.00449001, NaN, NaN, NaN, 0.03112983, "- N/A -   "
2.63, 82.68118, 0.004503892, NaN, NaN, NaN, 0.0323506, "- N/A -   "
2.64, 83.03502, 0.004520552, NaN, NaN, NaN, 0.0323506, "- N/A -   "
2.65, 83.27091, 0.00453721, NaN, NaN, NaN, 0.0335714, "- N/A -   "
2.66, 83.50681, 0.004551096, NaN, NaN, NaN, 0.0335714, "- N/A -   "
2.67, 83.86065, 0.00456498, NaN, NaN, NaN, 0.0347922, "- N/A -   "
2.68, 83.9786, 0.004581641, NaN, NaN, NaN, 0.0347922, "- N/A -   "
2.69, 84.45039, 0.004595524, NaN, NaN, NaN, 0.03601294, "- N/A -   "
2.7, 84.68629, 0.004612185, NaN, NaN, NaN, 0.03601294, "- N/A -   "
2.71, 85.04012, 0.004628845, NaN, NaN, NaN, 0.03601294, "- N/A -   "
2.72, 85.276, 0.004642729, NaN, NaN, NaN, 0.0372337, "- N/A -   "
2.73, 85.62987, 0.00465939, NaN, NaN, NaN, 0.0384545, "- N/A -   "
2.74, 85.74781, 0.00467327, NaN, NaN, NaN, 0.0384545, "- N/A -   "
2.75, 86.1017, 0.00468993, NaN, NaN, NaN, 0.0384545, "- N/A -   "
2.76, 86.33755, 0.004703818, NaN, NaN, NaN, 0.04089605, "- N/A -   "
2.77, 86.57345, 0.004717701, NaN, NaN, NaN, 0.04089605, "- N/A -   "
2.78, 86.80934, 0.004734362, NaN, NaN, NaN, 0.04089605, "- N/A -   "
2.79, 87.28113, 0.004751022, NaN, NaN, NaN, 0.04089605, "- N/A -   "
2.8, 87.39908, 0.004767683, NaN, NaN, NaN, 0.04089605, "- N/A -   "
2.81, 87.75292, 0.00478712, NaN, NaN, NaN, 0.04089605, "- N/A -   "
2.82, 88.10676, 0.004803781, NaN, NaN, NaN, 0.0396753, "- N/A -   "
2.83, 88.57855, 0.004823218, NaN, NaN, NaN, 0.0396753, "- N/A -   "
2.84, 88.9324, 0.004839878, NaN, NaN, NaN, 0.0384545, "- N/A -   "
2.85, 89.16828, 0.004859316, NaN, NaN, NaN, 0.0384545, "- N/A -   "
2.86, 89.6401, 0.004875976, NaN, NaN, NaN, 0.0372337, "- N/A -   "
2.87, 89.87598, 0.00489541, NaN, NaN, NaN, 0.03601294, "- N/A -   "
2.88, 90.22981, 0.004912074, NaN, NaN, NaN, 0.03601294, "- N/A -   "
2.89, 90.4657, 0.004925958, NaN, NaN, NaN, 0.0372337, "- N/A -   "
2.9, 90.81956, 0.004939842, NaN, NaN, NaN, 0.0384545, "- N/A -   "
2.91, 90.9375, 0.004956502, NaN, NaN, NaN, 0.0396753, "- N/A -   "
2.92, 91.2913, 0.004970386, NaN, NaN, NaN, 0.0396753, "- N/A -   "
2.93, 91.64519, 0.004987046, NaN, NaN, NaN, 0.0396753, "- N/A -   "
2.94, 91.99903, 0.005003707, NaN, NaN, NaN, 0.0396753, "- N/A -   "
2.95, 92.23492, 0.00502037, NaN, NaN, NaN, 0.04089605, "- N/A -   "
2.96, 92.58876, 0.005037028, NaN, NaN, NaN, 0.0396753, "- N/A -   "
2.97, 92.94261, 0.005056465, NaN, NaN, NaN, 0.0384545, "- N/A -   "
2.98, 93.2965, 0.005073126, NaN, NaN, NaN, 0.0384545, "- N/A -   "
2.99, 93.65029, 0.00508979, NaN, NaN, NaN, 0.0384545, "- N/A -   "
3, 93.8862, 0.00510922, NaN, NaN, NaN, 0.0384545, "- N/A -   "
3.01, 94.24, 0.005125884, NaN, NaN, NaN, 0.0372337, "- N/A -   "
3.02, 94.7118, 0.00514254, NaN, NaN, NaN, 0.0372337, "- N/A -   "
3.03, 94.8298, 0.00515921, NaN, NaN, NaN, 0.0372337, "- N/A -   "
3.04, 95.18361, 0.00517587, NaN, NaN, NaN, 0.0372337, "- N/A -   "
3.05, 95.5374, 0.005195303, NaN, NaN, NaN, 0.0372337, "- N/A -   "
3.06, 95.8913, 0.00520919, NaN, NaN, NaN, 0.0372337, "- N/A -   "
3.07, 96.24514, 0.005228624, NaN, NaN, NaN, 0.03601294, "- N/A -   "
3.08, 96.481, 0.005245284, NaN, NaN, NaN, 0.03601294, "- N/A -   "
3.09, 96.83487, 0.005261945, NaN, NaN, NaN, 0.03601294, "- N/A -   "
3.1, 97.18872, 0.00528138, NaN, NaN, NaN, 0.03601294, "- N/A -   "
3.11, 97.4246, 0.00529804, NaN, NaN, NaN, 0.0347922, "- N/A -   "
3.12, 97.77845, 0.005314703, NaN, NaN, NaN, 0.0347922, "- N/A -   "
3.13, 98.01435, 0.00533136, NaN, NaN, NaN, 0.0347922, "- N/A -   "
3.14, 98.3682, 0.00534802, NaN, NaN, NaN, 0.0347922, "- N/A -   "
3.15, 98.72203, 0.00536468, NaN, NaN, NaN, 0.0347922, "- N/A -   "
3.16, 99.0759, 0.00538135, NaN, NaN, NaN, 0.0347922, "- N/A -   "
3.17, 99.3118, 0.00539801, NaN, NaN, NaN, 0.0347922, "- N/A -   "
3.18, 99.54767, 0.005414666, NaN, NaN, NaN, 0.0347922, "- N/A -   "
3.19, 100.019, 0.0054341, NaN, NaN, NaN, 0.0335714, "- N/A -   "
3.2, 100.3733, 0.005450764, NaN, NaN, NaN, 0.0335714, "- N/A -   "
3.21, 100.6092, 0.00546742, NaN, NaN, NaN, 0.0335714, "- N/A -   "
3.22, 100.845, 0.005484085, NaN, NaN, NaN, 0.0347922, "- N/A -   "
3.23, 101.199, 0.00550075, NaN, NaN, NaN, 0.0335714, "- N/A -   "
3.24, 101.553, 0.00551741, NaN, NaN, NaN, 0.0335714, "- N/A -   "
3.25, 101.789, 0.00553407, NaN, NaN, NaN, 0.0335714, "- N/A -   "
3.26, 102.143, 0.00555073, NaN, NaN, NaN, 0.0335714, "- N/A -   "
3.27, 102.3784, 0.00556739, NaN, NaN, NaN, 0.0335714, "- N/A -   "
3.28, 102.6143, 0.005584048, NaN, NaN, NaN, 0.0335714, "- N/A -   "
3.29, 103.086, 0.00560071, NaN, NaN, NaN, 0.0335714, "- N/A -   "
3.3, 103.204, 0.005614592, NaN, NaN, NaN, 0.0347922, "- N/A -   "
3.31, 103.44, 0.00563125, NaN, NaN, NaN, 0.0347922, "- N/A -   "
3.32, 103.794, 0.00564791, NaN, NaN, NaN, 0.0347922, "- N/A -   "
3.33, 104.03, 0.0056618, NaN, NaN, NaN, 0.03601294, "- N/A -   "
3.34, 104.384, 0.00567846, NaN, NaN, NaN, 0.03601294, "- N/A -   "
3.35, 104.737, 0.00569512, NaN, NaN, NaN, 0.03601294, "- N/A -   "
3.36, 104.973, 0.00571178, NaN, NaN, NaN, 0.03601294, "- N/A -   "
3.37, 105.327, 0.00573122, NaN, NaN, NaN, 0.0347922, "- N/A -   "
3.38, 105.681, 0.00575065, NaN, NaN, NaN, 0.0347922, "- N/A -   "
3.39, 106.035, 0.00576731, NaN, NaN, NaN, 0.0335714, "- N/A -   "
3.4, 106.389, 0.005786751, NaN, NaN, NaN, 0.0335714, "- N/A -   "
3.41, 106.625, 0.00580341, NaN, NaN, NaN, 0.0323506, "- N/A -   "
3.42, 106.978, 0.005820072, NaN, NaN, NaN, 0.0323506, "- N/A -   "
3.43, 107.214, 0.00583673, NaN, NaN, NaN, 0.0323506, "- N/A -   "
3.44, 107.568, 0.00585339, NaN, NaN, NaN, 0.0323506, "- N/A -   "
3.45, 107.804, 0.005867277, NaN, NaN, NaN, 0.0335714, "- N/A -   "
3.46, 107.922, 0.00588116, NaN, NaN, NaN, 0.0347922, "- N/A -   "
3.47, 108.276, 0.00589504, NaN, NaN, NaN, 0.03601294, "- N/A -   "
3.48, 108.512, 0.0059117, NaN, NaN, NaN, 0.0372337, "- N/A -   "
3.49, 108.748, 0.005925589, NaN, NaN, NaN, 0.0372337, "- N/A -   "
3.5, 109.101, 0.00594225, NaN, NaN, NaN, 0.0384545, "- N/A -   "
3.51, 109.3373, 0.005956133, NaN, NaN, NaN, 0.0384545, "- N/A -   "
3.52, 109.691, 0.005972794, NaN, NaN, NaN, 0.0384545, "- N/A -   "
3.53, 109.8091, 0.00598945, NaN, NaN, NaN, 0.0396753, "- N/A -   "
3.54, 110.163, 0.006003338, NaN, NaN, NaN, 0.0396753, "- N/A -   "
3.55, 110.517, 0.006019998, NaN, NaN, NaN, 0.0396753, "- N/A -   "
3.56, 110.753, 0.006036659, NaN, NaN, NaN, 0.0396753, "- N/A -   "
3.57, 111.107, 0.00605054, NaN, NaN, NaN, 0.04089605, "- N/A -   "
3.58, 111.224, 0.006067203, NaN, NaN, NaN, 0.04089605, "- N/A -   "
3.59, 111.578, 0.00608109, NaN, NaN, NaN, 0.04211683, "- N/A -   "
3.6, 111.8142, 0.006097747, NaN, NaN, NaN, 0.04211683, "- N/A -   "
3.61, 112.0501, 0.00611163, NaN, NaN, NaN, 0.0433376, "- N/A -   "
3.62, 112.404, 0.006131068, NaN, NaN, NaN, 0.0445584, "- N/A -   "
3.63, 112.522, 0.006144952, NaN, NaN, NaN, 0.0445584, "- N/A -   "
3.64, 112.876, 0.006161613, NaN, NaN, NaN, 0.0445584, "- N/A -   "
3.65, 113.23, 0.006178273, NaN, NaN, NaN, 0.0445584, "- N/A -   "
3.66, 113.583, 0.00619771, NaN, NaN, NaN, 0.0433376, "- N/A -   "
3.67, 113.819, 0.006214371, NaN, NaN, NaN, 0.0433376, "- N/A -   "
3.68, 114.055, 0.006233808, NaN, NaN, NaN, 0.0433376, "- N/A -   "
3.69, 114.2911, 0.00625047, NaN, NaN, NaN, 0.04211683, "- N/A -   "
3.7, 114.645, 0.006267129, NaN, NaN, NaN, 0.04211683, "- N/A -   "
3.71, 114.999, 0.006286566, NaN, NaN, NaN, 0.04089605, "- N/A -   "
3.72, 115.235, 0.006306004, NaN, NaN, NaN, 0.0396753, "- N/A -   "
3.73, 115.589, 0.006325441, NaN, NaN, NaN, 0.0384545, "- N/A -   "
3.74, 115.824, 0.006344878, NaN, NaN, NaN, 0.0372337, "- N/A -   "
3.75, 116.296, 0.006367092, NaN, NaN, NaN, 0.0347922, "- N/A -   "
3.76, 116.5321, 0.006386529, NaN, NaN, NaN, 0.0335714, "- N/A -   "
3.77, 116.768, 0.006405967, NaN, NaN, NaN, 0.0335714, "- N/A -   "
3.78, 117.122, 0.00642263, NaN, NaN, NaN, 0.0323506, "- N/A -   "
3.79, 117.476, 0.00643929, NaN, NaN, NaN, 0.0323506, "- N/A -   "
3.8, 117.712, 0.006455948, NaN, NaN, NaN, 0.0335714, "- N/A -   "
3.81, 117.83, 0.006469832, NaN, NaN, NaN, 0.0335714, "- N/A -   "
3.82, 118.183, 0.006486492, NaN, NaN, NaN, 0.0347922, "- N/A -   "
3.83, 118.301, 0.006500376, NaN, NaN, NaN, 0.0347922, "- N/A -   "
3.84, 118.537, 0.006517037, NaN, NaN, NaN, 0.0347922, "- N/A -   "
3.85, 118.891, 0.0065337, NaN, NaN, NaN, 0.0347922, "- N/A -   "
3.86, 119.127, 0.006550358, NaN, NaN, NaN, 0.0347922, "- N/A -   "
3.87, 119.363, 0.006567018, NaN, NaN, NaN, 0.03601294, "- N/A -   "
3.88, 119.599, 0.006583679, NaN, NaN, NaN, 0.03601294, "- N/A -   "
3.89, 119.953, 0.006600339, NaN, NaN, NaN, 0.03601294, "- N/A -   "
3.9, 120.188, 0.006617, NaN, NaN, NaN, 0.0347922, "- N/A -   "
3.91, 120.424, 0.006636437, NaN, NaN, NaN, 0.0347922, "- N/A -   "
3.92, 120.778, 0.006653098, NaN, NaN, NaN, 0.0335714, "- N/A -   "
3.93, 121.132, 0.006672535, NaN, NaN, NaN, 0.0323506, "- N/A -   "
3.94, 121.25, 0.006689195, NaN, NaN, NaN, 0.0323506, "- N/A -   "
3.95, 121.604, 0.006705856, NaN, NaN, NaN, 0.0323506, "- N/A -   "
3.96, 121.958, 0.006725293, NaN, NaN, NaN, 0.03112983, "- N/A -   "
3.97, 122.194, 0.00674473, NaN, NaN, NaN, 0.03112983, "- N/A -   "
3.98, 122.547, 0.006761391, NaN, NaN, NaN, 0.0299091, "- N/A -   "
3.99, 122.783, 0.006778051, NaN, NaN, NaN, 0.0299091, "- N/A -   "
4, 123.019, 0.006794712, NaN, NaN, NaN, 0.0299091, "- N/A -   "
4.01, 123.373, 0.00681137, NaN, NaN, NaN, 0.0299091, "- N/A -   "
4.02, 123.609, 0.006828033, NaN, NaN, NaN, 0.0299091, "- N/A -   "
4.03, 123.7269, 0.006841917, NaN, NaN, NaN, 0.03112983, "- N/A -   "
4.04, 124.081, 0.00685858, NaN, NaN, NaN, 0.03112983, "- N/A -   "
4.05, 124.317, 0.006872461, NaN, NaN, NaN, 0.0323506, "- N/A -   "
4.06, 124.553, 0.00688912, NaN, NaN, NaN, 0.0323506, "- N/A -   "
4.07, 124.788, 0.00690856, NaN, NaN, NaN, 0.0323506, "- N/A -   "
4.08, 125.024, 0.006925219, NaN, NaN, NaN, 0.0323506, "- N/A -   "
4.09, 125.378, 0.0069391, NaN, NaN, NaN, 0.0323506, "- N/A -   "
4.1, 125.496, 0.00695576, NaN, NaN, NaN, 0.0335714, "- N/A -   "
4.11, 125.732, 0.00696687, NaN, NaN, NaN, 0.0347922, "- N/A -   "
4.12, 125.9679, 0.006983531, NaN, NaN, NaN, 0.0347922, "- N/A -   "
4.13, 126.086, 0.006994638, NaN, NaN, NaN, 0.0372337, "- N/A -   "
4.14, 126.322, 0.00700852, NaN, NaN, NaN, 0.0384545, "- N/A -   "
4.15, 126.558, 0.00702241, NaN, NaN, NaN, 0.0396753, "- N/A -   "
4.16, 126.911, 0.00703907, NaN, NaN, NaN, 0.04089605, "- N/A -   "
4.17, 127.147, 0.00705295, NaN, NaN, NaN, 0.04089605, "- N/A -   "
4.18, 127.265, 0.00706683, NaN, NaN, NaN, 0.04211683, "- N/A -   "
4.19, 127.501, 0.00708072, NaN, NaN, NaN, 0.0433376, "- N/A -   "
4.2, 127.737, 0.00709738, NaN, NaN, NaN, 0.0445584, "- N/A -   "
4.21, 127.973, 0.00711126, NaN, NaN, NaN, 0.0445584, "- N/A -   "
4.22, 128.209, 0.00712515, NaN, NaN, NaN, 0.04577916, "- N/A -   "
4.23, 128.563, 0.007141806, NaN, NaN, NaN, 0.04577916, "- N/A -   "
4.24, 128.6807, 0.00715847, NaN, NaN, NaN, 0.04577916, "- N/A -   "
4.25, 129.035, 0.007175127, NaN, NaN, NaN, 0.04699994, "- N/A -   "
4.26, 129.27, 0.00719179, NaN, NaN, NaN, 0.04577916, "- N/A -   "
4.27, 129.624, 0.00720845, NaN, NaN, NaN, 0.04577916, "- N/A -   "
4.28, 129.86, 0.00722789, NaN, NaN, NaN, 0.0445584, "- N/A -   "
4.29, 130.096, 0.00724732, NaN, NaN, NaN, 0.0445584, "- N/A -   "
4.3, 130.568, 0.00726121, NaN, NaN, NaN, 0.0445584, "- N/A -   "
4.31, 130.804, 0.00728064, NaN, NaN, NaN, 0.0433376, "- N/A -   "
4.32, 131.04, 0.0072973, NaN, NaN, NaN, 0.0433376, "- N/A -   "
4.33, 131.393, 0.00731674, NaN, NaN, NaN, 0.04211683, "- N/A -   "
4.34, 131.747, 0.007336179, NaN, NaN, NaN, 0.04089605, "- N/A -   "
4.35, 131.983, 0.00735562, NaN, NaN, NaN, 0.04089605, "- N/A -   "
4.36, 132.219, 0.00737228, NaN, NaN, NaN, 0.0396753, "- N/A -   "
4.37, 132.573, 0.00739171, NaN, NaN, NaN, 0.0396753, "- N/A -   "
4.38, 132.809, 0.00740837, NaN, NaN, NaN, 0.0396753, "- N/A -   "
4.39, 133.045, 0.00742226, NaN, NaN, NaN, 0.0396753, "- N/A -   "
4.4, 133.281, 0.0074417, NaN, NaN, NaN, 0.0384545, "- N/A -   "
4.41, 133.634, 0.00746113, NaN, NaN, NaN, 0.0372337, "- N/A -   "
4.42, 133.988, 0.007477793, NaN, NaN, NaN, 0.0372337, "- N/A -   "
4.43, 134.342, 0.00749723, NaN, NaN, NaN, 0.03601294, "- N/A -   "
4.44, 134.578, 0.00751667, NaN, NaN, NaN, 0.03601294, "- N/A -   "
4.45, 134.932, 0.00753333, NaN, NaN, NaN, 0.03601294, "- N/A -   "
4.46, 135.05, 0.00754999, NaN, NaN, NaN, 0.03601294, "- N/A -   "
4.47, 135.4037, 0.007566649, NaN, NaN, NaN, 0.0347922, "- N/A -   "
4.48, 135.64, 0.00758331, NaN, NaN, NaN, 0.0347922, "- N/A -   "
4.49, 135.875, 0.00759997, NaN, NaN, NaN, 0.0347922, "- N/A -   "
4.5, 136.229, 0.00761941, NaN, NaN, NaN, 0.0335714, "- N/A -   "
4.51, 136.583, 0.00763884, NaN, NaN, NaN, 0.0323506, "- N/A -   "
4.52, 136.937, 0.007655505, NaN, NaN, NaN, 0.0323506, "- N/A -   "
4.53, 137.055, 0.00767494, NaN, NaN, NaN, 0.03112983, "- N/A -   "
4.54, 137.4088, 0.0076916, NaN, NaN, NaN, 0.03112983, "- N/A -   "
4.55, 137.763, 0.00771104, NaN, NaN, NaN, 0.03112983, "- N/A -   "
4.56, 138.116, 0.0077277, NaN, NaN, NaN, 0.0299091, "- N/A -   "
4.57, 138.234, 0.00774436, NaN, NaN, NaN, 0.0299091, "- N/A -   "
4.58, 138.588, 0.00776102, NaN, NaN, NaN, 0.0299091, "- N/A -   "
4.59, 138.824, 0.007777682, NaN, NaN, NaN, 0.0299091, "- N/A -   "
4.6, 139.178, 0.007794343, NaN, NaN, NaN, 0.0299091, "- N/A -   "
4.61, 139.414, 0.007811003, NaN, NaN, NaN, 0.0299091, "- N/A -   "
4.62, 139.532, 0.007827664, NaN, NaN, NaN, 0.0299091, "- N/A -   "
4.63, 139.8857, 0.007844324, NaN, NaN, NaN, 0.0299091, "- N/A -   "
4.64, 140.24, 0.007860985, NaN, NaN, NaN, 0.03112983, "- N/A -   "
4.65, 140.475, 0.007877645, NaN, NaN, NaN, 0.0299091, "- N/A -   "
4.66, 140.711, 0.00789431, NaN, NaN, NaN, 0.03112983, "- N/A -   "
4.67, 141.065, 0.00790819, NaN, NaN, NaN, 0.03112983, "- N/A -   "
4.68, 141.183, 0.00792485, NaN, NaN, NaN, 0.03112983, "- N/A -   "
4.69, 141.419, 0.007938734, NaN, NaN, NaN, 0.0323506, "- N/A -   "
4.7, 141.773, 0.00795262, NaN, NaN, NaN, 0.0335714, "- N/A -   "
4.71, 142.009, 0.007969278, NaN, NaN, NaN, 0.0335714, "- N/A -   "
4.72, 142.245, 0.007983162, NaN, NaN, NaN, 0.0347922, "- N/A -   "
4.73, 142.481, 0.00799982, NaN, NaN, NaN, 0.03601294, "- N/A -   "
4.74, 142.716, 0.008013706, NaN, NaN, NaN, 0.03601294, "- N/A -   "
4.75, 142.952, 0.00802759, NaN, NaN, NaN, 0.0372337, "- N/A -   "
4.76, 143.07, 0.00804425, NaN, NaN, NaN, 0.0372337, "- N/A -   "
4.77, 143.424, 0.008060911, NaN, NaN, NaN, 0.0372337, "- N/A -   "
4.78, 143.66, 0.008074795, NaN, NaN, NaN, 0.0384545, "- N/A -   "
4.79, 143.896, 0.008088678, NaN, NaN, NaN, 0.0396753, "- N/A -   "
4.8, 144.25, 0.008102562, NaN, NaN, NaN, 0.04089605, "- N/A -   "
4.81, 144.368, 0.008119223, NaN, NaN, NaN, 0.04211683, "- N/A -   "
4.82, 144.604, 0.008133106, NaN, NaN, NaN, 0.04211683, "- N/A -   "
4.83, 144.8395, 0.00814699, NaN, NaN, NaN, 0.0433376, "- N/A -   "
4.84, 145.193, 0.00816365, NaN, NaN, NaN, 0.0433376, "- N/A -   "
4.85, 145.429, 0.008180311, NaN, NaN, NaN, 0.0433376, "- N/A -   "
4.86, 145.783, 0.008196972, NaN, NaN, NaN, 0.0433376, "- N/A -   "
4.87, 146.019, 0.008213632, NaN, NaN, NaN, 0.0445584, "- N/A -   "
4.88, 146.255, 0.008230293, NaN, NaN, NaN, 0.0445584, "- N/A -   "
4.89, 146.491, 0.008244176, NaN, NaN, NaN, 0.0445584, "- N/A -   "
4.9, 146.727, 0.008260837, NaN, NaN, NaN, 0.0445584, "- N/A -   "
4.91, 146.963, 0.008277497, NaN, NaN, NaN, 0.0445584, "- N/A -   "
4.92, 147.316, 0.008296935, NaN, NaN, NaN, 0.0433376, "- N/A -   "
4.93, 147.67, 0.008313595, NaN, NaN, NaN, 0.0433376, "- N/A -   "
4.94, 148.024, 0.008330256, NaN, NaN, NaN, 0.0433376, "- N/A -   "
4.95, 148.26, 0.008346916, NaN, NaN, NaN, 0.0433376, "- N/A -   "
4.96, 148.496, 0.008363577, NaN, NaN, NaN, 0.0433376, "- N/A -   "
4.97, 148.8497, 0.008380237, NaN, NaN, NaN, 0.0433376, "- N/A -   "
4.98, 149.0856, 0.008399675, NaN, NaN, NaN, 0.0433376, "- N/A -   "
4.99, 149.439, 0.008413558, NaN, NaN, NaN, 0.0433376, "- N/A -   "
5, 149.675, 0.008433, NaN, NaN, NaN, 0.0433376, "- N/A -   "
5.01, 150.029, 0.008449656, NaN, NaN, NaN, 0.04211683, "- N/A -   "
5.02, 150.383, 0.00847187, NaN, NaN, NaN, 0.04089605, "- N/A -   "
5.03, 150.619, 0.00848853, NaN, NaN, NaN, 0.0396753, "- N/A -   "
5.04, 150.973, 0.008510744, NaN, NaN, NaN, 0.0372337, "- N/A -   "
5.05, 151.327, 0.008530182, NaN, NaN, NaN, 0.0372337, "- N/A -   "
5.06, 151.68, 0.008546842, NaN, NaN, NaN, 0.03601294, "- N/A -   "
5.07, 152.034, 0.00856628, NaN, NaN, NaN, 0.0347922, "- N/A -   "
5.08, 152.27, 0.00858572, NaN, NaN, NaN, 0.0335714, "- N/A -   "
5.09, 152.742, 0.008605154, NaN, NaN, NaN, 0.0323506, "- N/A -   "
5.1, 153.096, 0.008624592, NaN, NaN, NaN, 0.03112983, "- N/A -   "
5.11, 153.45, 0.008644029, NaN, NaN, NaN, 0.0299091, "- N/A -   "
5.12, 153.686, 0.00866624, NaN, NaN, NaN, 0.0286883, "- N/A -   "
5.13, 154.0394, 0.008682903, NaN, NaN, NaN, 0.0286883, "- N/A -   "
5.14, 154.393, 0.008699563, NaN, NaN, NaN, 0.0274675, "- N/A -   "
5.15, 154.629, 0.008716225, NaN, NaN, NaN, 0.0274675, "- N/A -   "
5.16, 154.865, 0.008732884, NaN, NaN, NaN, 0.0274675, "- N/A -   "
5.17, 155.219, 0.008749546, NaN, NaN, NaN, 0.0274675, "- N/A -   "
5.18, 155.455, 0.008766206, NaN, NaN, NaN, 0.0274675, "- N/A -   "
5.19, 155.691, 0.008782866, NaN, NaN, NaN, 0.0274675, "- N/A -   "
5.2, 155.927, 0.008796751, NaN, NaN, NaN, 0.0286883, "- N/A -   "
5.21, 156.162, 0.008813411, NaN, NaN, NaN, 0.0286883, "- N/A -   "
5.22, 156.398, 0.008827294, NaN, NaN, NaN, 0.0299091, "- N/A -   "
5.23, 156.634, 0.008843955, NaN, NaN, NaN, 0.03112983, "- N/A -   "
5.24, 156.988, 0.008857839, NaN, NaN, NaN, 0.03112983, "- N/A -   "
5.25, 157.106, 0.008874499, NaN, NaN, NaN, 0.0323506, "- N/A -   "
5.26, 157.46, 0.008888382, NaN, NaN, NaN, 0.0323506, "- N/A -   "
5.27, 157.696, 0.008902267, NaN, NaN, NaN, 0.0335714, "- N/A -   "
5.28, 158.0496, 0.008918927, NaN, NaN, NaN, 0.0335714, "- N/A -   "
5.29, 158.168, 0.00893559, NaN, NaN, NaN, 0.0335714, "- N/A -   "
5.3, 158.521, 0.008949472, NaN, NaN, NaN, 0.0347922, "- N/A -   "
5.31, 158.7573, 0.008966132, NaN, NaN, NaN, 0.0347922, "- N/A -   "
5.32, 159.111, 0.00898279, NaN, NaN, NaN, 0.0347922, "- N/A -   "
5.33, 159.347, 0.008999453, NaN, NaN, NaN, 0.03601294, "- N/A -   "
5.34, 159.701, 0.009016113, NaN, NaN, NaN, 0.03601294, "- N/A -   "
5.35, 159.937, 0.009032774, NaN, NaN, NaN, 0.03601294, "- N/A -   "
5.36, 160.173, 0.009049434, NaN, NaN, NaN, 0.03601294, "- N/A -   "
5.37, 160.409, 0.009063318, NaN, NaN, NaN, 0.03601294, "- N/A -   "
5.38, 160.7624, 0.009079979, NaN, NaN, NaN, 0.03601294, "- N/A -   "
5.39, 160.998, 0.009096639, NaN, NaN, NaN, 0.03601294, "- N/A -   "
5.4, 161.352, 0.0091133, NaN, NaN, NaN, 0.03601294, "- N/A -   "
5.41, 161.588, 0.00912996, NaN, NaN, NaN, 0.03601294, "- N/A -   "
5.42, 161.942, 0.00914662, NaN, NaN, NaN, 0.03601294, "- N/A -   "
5.43, 162.06, 0.009163282, NaN, NaN, NaN, 0.03601294, "- N/A -   "
5.44, 162.414, 0.009177165, NaN, NaN, NaN, 0.0372337, "- N/A -   "
5.45, 162.768, 0.009196603, NaN, NaN, NaN, 0.0372337, "- N/A -   "
5.46, 163.0034, 0.009210486, NaN, NaN, NaN, 0.0372337, "- N/A -   "
5.47, 163.2393, 0.009227146, NaN, NaN, NaN, 0.0372337, "- N/A -   "
5.48, 163.593, 0.009243807, NaN, NaN, NaN, 0.0372337, "- N/A -   "
5.49, 163.829, 0.009260467, NaN, NaN, NaN, 0.0372337, "- N/A -   "
5.5, 164.183, 0.009274351, NaN, NaN, NaN, 0.0384545, "- N/A -   "
5.51, 164.419, 0.009291012, NaN, NaN, NaN, 0.0384545, "- N/A -   "
5.52, 164.537, 0.009304896, NaN, NaN, NaN, 0.0396753, "- N/A -   "
5.53, 164.891, 0.009318779, NaN, NaN, NaN, 0.04089605, "- N/A -   "
5.54, 165.126, 0.009332663, NaN, NaN, NaN, 0.04211683, "- N/A -   "
5.55, 165.362, 0.009346547, NaN, NaN, NaN, 0.0433376, "- N/A -   "
5.56, 165.598, 0.009363208, NaN, NaN, NaN, 0.0433376, "- N/A -   "
5.57, 165.834, 0.009379867, NaN, NaN, NaN, 0.0433376, "- N/A -   "
5.58, 166.188, 0.009399305, NaN, NaN, NaN, 0.04211683, "- N/A -   "
5.59, 166.542, 0.00941597, NaN, NaN, NaN, 0.0433376, "- N/A -   "
5.6, 166.778, 0.009432626, NaN, NaN, NaN, 0.0433376, "- N/A -   "
5.61, 167.014, 0.00944651, NaN, NaN, NaN, 0.0433376, "- N/A -   "
5.62, 167.367, 0.009463171, NaN, NaN, NaN, 0.0433376, "- N/A -   "
5.63, 167.603, 0.009479831, NaN, NaN, NaN, 0.0433376, "- N/A -   "
5.64, 167.9572, 0.009496491, NaN, NaN, NaN, 0.0433376, "- N/A -   "
5.65, 168.311, 0.009515929, NaN, NaN, NaN, 0.0433376, "- N/A -   "
5.66, 168.665, 0.009535366, NaN, NaN, NaN, 0.04211683, "- N/A -   "
5.67, 169.019, 0.009552027, NaN, NaN, NaN, 0.04089605, "- N/A -   "
5.68, 169.255, 0.009571464, NaN, NaN, NaN, 0.0396753, "- N/A -   "
5.69, 169.726, 0.009590901, NaN, NaN, NaN, 0.0384545, "- N/A -   "
5.7, 170.08, 0.009610338, NaN, NaN, NaN, 0.0372337, "- N/A -   "
5.71, 170.4341, 0.009626999, NaN, NaN, NaN, 0.0372337, "- N/A -   "
5.72, 170.788, 0.00964921, NaN, NaN, NaN, 0.03601294, "- N/A -   "
5.73, 171.024, 0.00966865, NaN, NaN, NaN, 0.0347922, "- N/A -   "
5.74, 171.378, 0.009685311, NaN, NaN, NaN, 0.0335714, "- N/A -   "
5.75, 171.732, 0.009701971, NaN, NaN, NaN, 0.0335714, "- N/A -   "
5.76, 171.9674, 0.00971863, NaN, NaN, NaN, 0.0335714, "- N/A -   "
5.77, 172.4392, 0.009738068, NaN, NaN, NaN, 0.0323506, "- N/A -   "
5.78, 172.6751, 0.00975473, NaN, NaN, NaN, 0.0323506, "- N/A -   "
5.79, 172.911, 0.009774166, NaN, NaN, NaN, 0.0323506, "- N/A -   "
5.8, 173.1469, 0.009790827, NaN, NaN, NaN, 0.0323506, "- N/A -   "
5.81, 173.619, 0.009807487, NaN, NaN, NaN, 0.03112983, "- N/A -   "
5.82, 173.855, 0.009826925, NaN, NaN, NaN, 0.0299091, "- N/A -   "
5.83, 174.09, 0.009843585, NaN, NaN, NaN, 0.03112983, "- N/A -   "
5.84, 174.4443, 0.009857468, NaN, NaN, NaN, 0.03112983, "- N/A -   "
5.85, 174.6802, 0.009874129, NaN, NaN, NaN, 0.03112983, "- N/A -   "
5.86, 174.9161, 0.00989079, NaN, NaN, NaN, 0.0323506, "- N/A -   "
5.87, 175.152, 0.009904673, NaN, NaN, NaN, 0.0323506, "- N/A -   "
5.88, 175.388, 0.009918557, NaN, NaN, NaN, 0.0335714, "- N/A -   "
5.89, 175.742, 0.009935218, NaN, NaN, NaN, 0.0347922, "- N/A -   "
5.9, 176.096, 0.009949101, NaN, NaN, NaN, 0.0347922, "- N/A -   "
5.91, 176.214, 0.009962985, NaN, NaN, NaN, 0.03601294, "- N/A -   "
5.92, 176.567, 0.009979647, NaN, NaN, NaN, 0.03601294, "- N/A -   "
5.93, 176.803, 0.009996306, NaN, NaN, NaN, 0.03601294, "- N/A -   "
5.94, 177.039, 0.01001019, NaN, NaN, NaN, 0.0372337, "- N/A -   "
5.95, 177.275, 0.0100269, NaN, NaN, NaN, 0.0372337, "- N/A -   "
[...]
26.45, 948.3004, 0.04419756, NaN, NaN, NaN, 0.03601294, "- N/A -   "
26.49, 950.3111, 0.04427253, NaN, NaN, NaN, 0.0323506, "- N/A -   "
26.53, 952.0853, 0.0443447, NaN, NaN, NaN, 0.0299091, "- N/A -   "
26.57, 953.623, 0.044403, NaN, NaN, NaN, 0.0335714, "- N/A -   "
26.61, 954.9241, 0.04446135, NaN, NaN, NaN, 0.0372337, "- N/A -   "
26.65, 956.4618, 0.0445197, NaN, NaN, NaN, 0.04089605, "- N/A -   "
26.69, 957.9994, 0.0445808, NaN, NaN, NaN, 0.0433376, "- N/A -   "
26.73, 959.7736, 0.0446529, NaN, NaN, NaN, 0.04089605, "- N/A -   "
26.77, 961.43, 0.0447196, NaN, NaN, NaN, 0.04089605, "- N/A -   "
26.81, 963.204, 0.04478623, NaN, NaN, NaN, 0.04089605, "- N/A -   "
26.85, 964.978, 0.0448584, NaN, NaN, NaN, 0.0396753, "- N/A -   "
26.89, 966.7522, 0.0449278, NaN, NaN, NaN, 0.0372337, "- N/A -   "
26.93, 968.526, 0.0449973, NaN, NaN, NaN, 0.03601294, "- N/A -   "
26.97, 970.1823, 0.0450639, NaN, NaN, NaN, 0.03601294, "- N/A -   "
27.01, 972.0748, 0.0451361, NaN, NaN, NaN, 0.0347922, "- N/A -   "
27.05, 973.7307, 0.04520552, NaN, NaN, NaN, 0.0323506, "- N/A -   "
27.09, 975.505, 0.0452749, NaN, NaN, NaN, 0.0323506, "- N/A -   "
27.13, 977.043, 0.045336, NaN, NaN, NaN, 0.0335714, "- N/A -   "
27.17, 978.699, 0.04540267, NaN, NaN, NaN, 0.0335714, "- N/A -   "
27.21, 980.4728, 0.0454693, NaN, NaN, NaN, 0.0335714, "- N/A -   "
27.25, 982.1287, 0.04553873, NaN, NaN, NaN, 0.0335714, "- N/A -   "
27.29, 984.0212, 0.04560815, NaN, NaN, NaN, 0.0323506, "- N/A -   "
27.33, 985.322, 0.0456637, NaN, NaN, NaN, 0.03601294, "- N/A -   "
27.37, 986.742, 0.0457248, NaN, NaN, NaN, 0.0396753, "- N/A -   "
27.41, 988.2793, 0.0457859, NaN, NaN, NaN, 0.04211683, "- N/A -   "
27.45, 989.935, 0.04584695, NaN, NaN, NaN, 0.0433376, "- N/A -   "
27.49, 991.473, 0.0459108, NaN, NaN, NaN, 0.0445584, "- N/A -   "
27.53, 993.129, 0.04597468, NaN, NaN, NaN, 0.04577916, "- N/A -   "
27.57, 995.021, 0.0460441, NaN, NaN, NaN, 0.0445584, "- N/A -   "
27.61, 997.1503, 0.0461274, NaN, NaN, NaN, 0.0372337, "- N/A -   "
27.65, 999.043, 0.0462024, NaN, NaN, NaN, 0.0335714, "- N/A -   "
27.69, 1000.7, 0.04626902, NaN, NaN, NaN, 0.0347922, "- N/A -   "
27.73, 1002.35, 0.04633288, NaN, NaN, NaN, 0.0347922, "- N/A -   "
27.77, 1004.25, 0.0464023, NaN, NaN, NaN, 0.0335714, "- N/A -   "
27.81, 1005.9, 0.04647172, NaN, NaN, NaN, 0.0335714, "- N/A -   "
27.85, 1007.8, 0.04654669, NaN, NaN, NaN, 0.0286883, "- N/A -   "
27.89, 1009.57, 0.04661611, NaN, NaN, NaN, 0.0274675, "- N/A -   "
27.93, 1011.11, 0.04668, NaN, NaN, NaN, 0.0286883, "- N/A -   "
27.97, 1012.53, 0.04673551, NaN, NaN, NaN, 0.0335714, "- N/A -   "
28.01, 1013.83, 0.0467938, NaN, NaN, NaN, 0.0372337, "- N/A -   "
28.05, 1015.27, 0.04684936, NaN, NaN, NaN, 0.04211683, "- N/A -   "
28.09, 1016.82, 0.04690767, NaN, NaN, NaN, 0.04577916, "- N/A -   "
28.13, 1018.37, 0.0469715, NaN, NaN, NaN, 0.0482207, "- N/A -   "
28.17, 1020.27, 0.04704373, NaN, NaN, NaN, 0.04577916, "- N/A -   "
28.21, 1022.18, 0.0471159, NaN, NaN, NaN, 0.04211683, "- N/A -   "
28.25, 1024.09, 0.0471909, NaN, NaN, NaN, 0.0384545, "- N/A -   "
28.29, 1026.12, 0.0472686, NaN, NaN, NaN, 0.0347922, "- N/A -   "
28.33, 1027.91, 0.0473381, NaN, NaN, NaN, 0.0323506, "- N/A -   "
28.37, 1029.81, 0.04740748, NaN, NaN, NaN, 0.03112983, "- N/A -   "
28.41, 1031.484, 0.0474769, NaN, NaN, NaN, 0.0299091, "- N/A -   "
28.45, 1033.39, 0.0475491, NaN, NaN, NaN, 0.0286883, "- N/A -   "
28.49, 1035.06, 0.04761574, NaN, NaN, NaN, 0.0286883, "- N/A -   "
28.53, 1036.73, 0.0476796, NaN, NaN, NaN, 0.0286883, "- N/A -   "
28.57, 1038.28, 0.0477435, NaN, NaN, NaN, 0.03112983, "- N/A -   "
28.61, 1039.71, 0.04780178, NaN, NaN, NaN, 0.0347922, "- N/A -   "
28.65, 1041.14, 0.0478573, NaN, NaN, NaN, 0.0384545, "- N/A -   "
28.69, 1042.57, 0.0479129, NaN, NaN, NaN, 0.0433376, "- N/A -   "
28.73, 1044.12, 0.0479767, NaN, NaN, NaN, 0.04577916, "- N/A -   "
28.77, 1045.91, 0.0480406, NaN, NaN, NaN, 0.04577916, "- N/A -   "
28.81, 1047.7, 0.04811, NaN, NaN, NaN, 0.0445584, "- N/A -   "
28.85, 1049.49, 0.04817942, NaN, NaN, NaN, 0.0433376, "- N/A -   "
28.89, 1051.16, 0.04824884, NaN, NaN, NaN, 0.04211683, "- N/A -   "
28.93, 1052.95, 0.04831826, NaN, NaN, NaN, 0.04089605, "- N/A -   "
28.97, 1054.98, 0.04839323, NaN, NaN, NaN, 0.0384545, "- N/A -   "
29.01, 1057.12, 0.0484738, NaN, NaN, NaN, 0.03112983, "- N/A -   "
29.05, 1058.912, 0.04854595, NaN, NaN, NaN, 0.0286883, "- N/A -   "
29.09, 1060.58, 0.04860982, NaN, NaN, NaN, 0.0299091, "- N/A -   "
29.13, 1062.13, 0.0486737, NaN, NaN, NaN, 0.0323506, "- N/A -   "
29.17, 1063.682, 0.0487348, NaN, NaN, NaN, 0.0347922, "- N/A -   "
29.21, 1065.471, 0.0487986, NaN, NaN, NaN, 0.03601294, "- N/A -   "
29.25, 1067.14, 0.0488653, NaN, NaN, NaN, 0.0347922, "- N/A -   "
29.29, 1068.69, 0.04892637, NaN, NaN, NaN, 0.0372337, "- N/A -   "
29.33, 1070.36, 0.04899301, NaN, NaN, NaN, 0.0384545, "- N/A -   "
29.37, 1072.03, 0.0490569, NaN, NaN, NaN, 0.0384545, "- N/A -   "
29.41, 1073.46, 0.049118, NaN, NaN, NaN, 0.04211683, "- N/A -   "
29.45, 1075.25, 0.04917905, NaN, NaN, NaN, 0.0433376, "- N/A -   "
29.49, 1076.8, 0.0492457, NaN, NaN, NaN, 0.0433376, "- N/A -   "
29.53, 1078.71, 0.0493151, NaN, NaN, NaN, 0.04211683, "- N/A -   "
29.57, 1080.85, 0.0493984, NaN, NaN, NaN, 0.0347922, "- N/A -   "
29.61, 1082.88, 0.0494734, NaN, NaN, NaN, 0.03112983, "- N/A -   "
29.65, 1084.55, 0.0495428, NaN, NaN, NaN, 0.0299091, "- N/A -   "
29.69, 1086.46, 0.0496122, NaN, NaN, NaN, 0.0299091, "- N/A -   "
29.73, 1087.89, 0.0496705, NaN, NaN, NaN, 0.0323506, "- N/A -   "
29.77, 1089.32, 0.0497316, NaN, NaN, NaN, 0.03601294, "- N/A -   "
29.81, 1091.23, 0.0497927, NaN, NaN, NaN, 0.0372337, "- N/A -   "
29.85, 1092.78, 0.04986213, NaN, NaN, NaN, 0.0372337, "- N/A -   "
29.89, 1094.57, 0.04993155, NaN, NaN, NaN, 0.0347922, "- N/A -   "
29.93, 1096.36, 0.0499982, NaN, NaN, NaN, 0.0347922, "- N/A -   "
29.97, 1098.03, 0.0500648, NaN, NaN, NaN, 0.03601294, "- N/A -   "
30.01, 1099.82, 0.0501343, NaN, NaN, NaN, 0.0335714, "- N/A -   "
30.05, 1101.25, 0.0501953, NaN, NaN, NaN, 0.0372337, "- N/A -   "
30.09, 1102.8, 0.0502537, NaN, NaN, NaN, 0.0396753, "- N/A -   "
30.13, 1104.47, 0.0503175, NaN, NaN, NaN, 0.04089605, "- N/A -   "
30.17, 1106.37, 0.05038972, NaN, NaN, NaN, 0.0384545, "- N/A -   "
30.21, 1108.04, 0.05045636, NaN, NaN, NaN, 0.0384545, "- N/A -   "
30.25, 1109.83, 0.0505258, NaN, NaN, NaN, 0.0372337, "- N/A -   "
30.29, 1111.5, 0.05058964, NaN, NaN, NaN, 0.0384545, "- N/A -   "
30.33, 1113.17, 0.05065351, NaN, NaN, NaN, 0.0396753, "- N/A -   "
30.37, 1114.84, 0.0507229, NaN, NaN, NaN, 0.0396753, "- N/A -   "
30.41, 1116.75, 0.0507923, NaN, NaN, NaN, 0.0384545, "- N/A -   "
30.45, 1118.78, 0.0508701, NaN, NaN, NaN, 0.0335714, "- N/A -   "
30.49, 1120.446, 0.050934, NaN, NaN, NaN, 0.0335714, "- N/A -   "
30.53, 1122.23, 0.0510006, NaN, NaN, NaN, 0.0335714, "- N/A -   "
30.57, 1123.9, 0.05107002, NaN, NaN, NaN, 0.0323506, "- N/A -   "
30.61, 1125.69, 0.0511367, NaN, NaN, NaN, 0.0335714, "- N/A -   "
30.65, 1127.36, 0.0512033, NaN, NaN, NaN, 0.0323506, "- N/A -   "
30.69, 1129.03, 0.0512727, NaN, NaN, NaN, 0.0323506, "- N/A -   "
30.73, 1130.7, 0.0513366, NaN, NaN, NaN, 0.0335714, "- N/A -   "
30.77, 1132.25, 0.0513949, NaN, NaN, NaN, 0.0372337, "- N/A -   "
30.81, 1133.92, 0.05145877, NaN, NaN, NaN, 0.0384545, "- N/A -   "
30.85, 1135.35, 0.0515199, NaN, NaN, NaN, 0.04211683, "- N/A -   "
30.89, 1137.022, 0.0515809, NaN, NaN, NaN, 0.0445584, "- N/A -   "
30.93, 1138.81, 0.0516504, NaN, NaN, NaN, 0.0433376, "- N/A -   "
30.97, 1140.48, 0.0517142, NaN, NaN, NaN, 0.0433376, "- N/A -   "
31.01, 1142.39, 0.0517864, NaN, NaN, NaN, 0.04211683, "- N/A -   "
31.05, 1144.42, 0.05186695, NaN, NaN, NaN, 0.03601294, "- N/A -   "
31.09, 1146.32, 0.05193914, NaN, NaN, NaN, 0.0323506, "- N/A -   "
31.13, 1147.99, 0.0520058, NaN, NaN, NaN, 0.0323506, "- N/A -   "
31.17, 1149.782, 0.05207243, NaN, NaN, NaN, 0.0323506, "- N/A -   "
31.21, 1151.57, 0.05213907, NaN, NaN, NaN, 0.0323506, "- N/A -   "
31.25, 1153.48, 0.05221404, NaN, NaN, NaN, 0.0286883, "- N/A -   "
31.29, 1155.27, 0.0522807, NaN, NaN, NaN, 0.0286883, "- N/A -   "
31.33, 1156.7, 0.0523418, NaN, NaN, NaN, 0.03112983, "- N/A -   "
31.37, 1158.13, 0.0524001, NaN, NaN, NaN, 0.0347922, "- N/A -   "
31.41, 1159.68, 0.0524612, NaN, NaN, NaN, 0.0372337, "- N/A -   "
31.45, 1161.35, 0.0525223, NaN, NaN, NaN, 0.0396753, "- N/A -   "
31.49, 1162.78, 0.0525806, NaN, NaN, NaN, 0.0433376, "- N/A -   "
31.53, 1164.21, 0.0526389, NaN, NaN, NaN, 0.04699994, "- N/A -   "
31.57, 1165.881, 0.05270275, NaN, NaN, NaN, 0.0482207, "- N/A -   "
31.61, 1167.79, 0.0527805, NaN, NaN, NaN, 0.0445584, "- N/A -   "
31.65, 1169.94, 0.0528555, NaN, NaN, NaN, 0.0396753, "- N/A -   "
31.69, 1171.72, 0.05292489, NaN, NaN, NaN, 0.0384545, "- N/A -   "
31.73, 1173.39, 0.0529943, NaN, NaN, NaN, 0.0384545, "- N/A -   "
31.77, 1175.18, 0.0530665, NaN, NaN, NaN, 0.03601294, "- N/A -   "
31.81, 1177.09, 0.0531387, NaN, NaN, NaN, 0.0335714, "- N/A -   "
31.85, 1179, 0.0532109, NaN, NaN, NaN, 0.0299091, "- N/A -   "
31.89, 1180.91, 0.0532803, NaN, NaN, NaN, 0.0299091, "- N/A -   "
31.93, 1182.58, 0.053347, NaN, NaN, NaN, 0.0286883, "- N/A -   "
31.97, 1184.13, 0.0534108, NaN, NaN, NaN, 0.0299091, "- N/A -   "
32.01, 1185.68, 0.0534719, NaN, NaN, NaN, 0.0335714, "- N/A -   "
32.05, 1187.35, 0.0535302, NaN, NaN, NaN, 0.03601294, "- N/A -   "
32.09, 1188.78, 0.05359131, NaN, NaN, NaN, 0.0384545, "- N/A -   "
32.13, 1190.21, 0.0536524, NaN, NaN, NaN, 0.04211683, "- N/A -   "
32.17, 1191.88, 0.05371627, NaN, NaN, NaN, 0.0433376, "- N/A -   "
32.21, 1193.67, 0.0537857, NaN, NaN, NaN, 0.04089605, "- N/A -   "
32.25, 1195.217, 0.0538468, NaN, NaN, NaN, 0.0433376, "- N/A -   "
32.29, 1196.89, 0.05391341, NaN, NaN, NaN, 0.0433376, "- N/A -   "
32.33, 1198.79, 0.0539856, NaN, NaN, NaN, 0.04089605, "- N/A -   "
32.37, 1200.7, 0.0540578, NaN, NaN, NaN, 0.0384545, "- N/A -   "
32.41, 1202.73, 0.0541383, NaN, NaN, NaN, 0.0335714, "- N/A -   "
32.45, 1204.88, 0.05421608, NaN, NaN, NaN, 0.0274675, "- N/A -   "
32.49, 1206.67, 0.0542827, NaN, NaN, NaN, 0.0274675, "- N/A -   "
32.53, 1208.33, 0.0543521, NaN, NaN, NaN, 0.0274675, "- N/A -   "
32.57, 1209.885, 0.05441045, NaN, NaN, NaN, 0.0299091, "- N/A -   "
32.61, 1211.44, 0.0544688, NaN, NaN, NaN, 0.0335714, "- N/A -   "
32.65, 1212.87, 0.0545299, NaN, NaN, NaN, 0.0372337, "- N/A -   "
32.69, 1214.655, 0.0545993, NaN, NaN, NaN, 0.03601294, "- N/A -   "
32.73, 1216.44, 0.0546631, NaN, NaN, NaN, 0.03601294, "- N/A -   "
32.77, 1217.99, 0.054727, NaN, NaN, NaN, 0.0372337, "- N/A -   "
32.81, 1219.43, 0.05478531, NaN, NaN, NaN, 0.04211683, "- N/A -   "
32.85, 1220.98, 0.0548464, NaN, NaN, NaN, 0.0433376, "- N/A -   "
32.89, 1222.64, 0.0549103, NaN, NaN, NaN, 0.0445584, "- N/A -   "
32.93, 1224.31, 0.0549741, NaN, NaN, NaN, 0.04577916, "- N/A -   "
32.97, 1226.34, 0.0550491, NaN, NaN, NaN, 0.04211683, "- N/A -   "
33.01, 1228.49, 0.0551296, NaN, NaN, NaN, 0.03601294, "- N/A -   "
33.05, 1230.4, 0.05520183, NaN, NaN, NaN, 0.0335714, "- N/A -   "
33.09, 1232.07, 0.0552685, NaN, NaN, NaN, 0.0335714, "- N/A -   "
33.13, 1233.74, 0.0553379, NaN, NaN, NaN, 0.0323506, "- N/A -   "
33.17, 1235.4, 0.05539898, NaN, NaN, NaN, 0.0347922, "- N/A -   "
33.21, 1236.96, 0.05546284, NaN, NaN, NaN, 0.03601294, "- N/A -   "
33.25, 1238.62, 0.0555295, NaN, NaN, NaN, 0.0372337, "- N/A -   "
33.29, 1240.53, 0.0555989, NaN, NaN, NaN, 0.0347922, "- N/A -   "
33.33, 1242.56, 0.05567387, NaN, NaN, NaN, 0.0323506, "- N/A -   "
33.37, 1244.23, 0.05573774, NaN, NaN, NaN, 0.0323506, "- N/A -   "
33.41, 1245.78, 0.0558016, NaN, NaN, NaN, 0.0347922, "- N/A -   "
33.45, 1247.45, 0.0558599, NaN, NaN, NaN, 0.0372337, "- N/A -   "
33.49, 1248.642, 0.05591823, NaN, NaN, NaN, 0.04089605, "- N/A -   "
33.53, 1250.67, 0.05598765, NaN, NaN, NaN, 0.0396753, "- N/A -   "
33.57, 1252.34, 0.0560571, NaN, NaN, NaN, 0.0384545, "- N/A -   "
33.61, 1254.01, 0.0561237, NaN, NaN, NaN, 0.0396753, "- N/A -   "
33.65, 1255.92, 0.05619035, NaN, NaN, NaN, 0.0384545, "- N/A -   "
33.69, 1257.71, 0.0562598, NaN, NaN, NaN, 0.0372337, "- N/A -   "
33.73, 1259.49, 0.056332, NaN, NaN, NaN, 0.03601294, "- N/A -   "
33.77, 1261.16, 0.0563958, NaN, NaN, NaN, 0.03601294, "- N/A -   "
33.81, 1263.07, 0.05646525, NaN, NaN, NaN, 0.0347922, "- N/A -   "
33.85, 1264.86, 0.0565402, NaN, NaN, NaN, 0.0323506, "- N/A -   "
33.89, 1266.77, 0.0566069, NaN, NaN, NaN, 0.03112983, "- N/A -   "
33.93, 1268.2, 0.05667073, NaN, NaN, NaN, 0.0323506, "- N/A -   "
33.97, 1269.99, 0.0567346, NaN, NaN, NaN, 0.0335714, "- N/A -   "
34.01, 1271.66, 0.0567985, NaN, NaN, NaN, 0.0347922, "- N/A -   "
34.05, 1273.327, 0.0568651, NaN, NaN, NaN, 0.0347922, "- N/A -   "
34.09, 1275.12, 0.0569345, NaN, NaN, NaN, 0.0335714, "- N/A -   "
34.13, 1276.9, 0.0570012, NaN, NaN, NaN, 0.0335714, "- N/A -   "
34.17, 1278.34, 0.05705947, NaN, NaN, NaN, 0.0372337, "- N/A -   "
34.21, 1280.01, 0.05712334, NaN, NaN, NaN, 0.0384545, "- N/A -   "
34.25, 1281.56, 0.0571844, NaN, NaN, NaN, 0.04089605, "- N/A -   "
34.29, 1282.99, 0.0572455, NaN, NaN, NaN, 0.0433376, "- N/A -   "
34.33, 1284.78, 0.0573122, NaN, NaN, NaN, 0.0433376, "- N/A -   "
34.37, 1286.68, 0.0573788, NaN, NaN, NaN, 0.0433376, "- N/A -   "
34.41, 1288.59, 0.05745655, NaN, NaN, NaN, 0.0396753, "- N/A -   "
34.45, 1290.5, 0.057526, NaN, NaN, NaN, 0.0372337, "- N/A -   "
34.49, 1292.29, 0.0575954, NaN, NaN, NaN, 0.03601294, "- N/A -   "
34.53, 1294.2, 0.0576676, NaN, NaN, NaN, 0.0347922, "- N/A -   "
34.57, 1295.75, 0.05773422, NaN, NaN, NaN, 0.0347922, "- N/A -   "
34.61, 1297.65, 0.0578009, NaN, NaN, NaN, 0.0335714, "- N/A -   "
34.65, 1299.324, 0.0578703, NaN, NaN, NaN, 0.0323506, "- N/A -   "
34.69, 1301.23, 0.0579425, NaN, NaN, NaN, 0.0299091, "- N/A -   "
34.73, 1303.26, 0.05801468, NaN, NaN, NaN, 0.0286883, "- N/A -   "
34.77, 1304.81, 0.0580758, NaN, NaN, NaN, 0.0299091, "- N/A -   "
34.81, 1306.24, 0.0581369, NaN, NaN, NaN, 0.0323506, "- N/A -   "
34.85, 1307.55, 0.0581896, NaN, NaN, NaN, 0.0384545, "- N/A -   "
34.89, 1309.22, 0.0582507, NaN, NaN, NaN, 0.04089605, "- N/A -   "
34.93, 1310.77, 0.05831179, NaN, NaN, NaN, 0.0445584, "- N/A -   "
34.97, 1312.44, 0.0583757, NaN, NaN, NaN, 0.04577916, "- N/A -   "
35.01, 1314.11, 0.0584423, NaN, NaN, NaN, 0.0445584, "- N/A -   "
35.05, 1316.26, 0.0585173, NaN, NaN, NaN, 0.04089605, "- N/A -   "
35.09, 1318.29, 0.058595, NaN, NaN, NaN, 0.0372337, "- N/A -   "
35.13, 1320.193, 0.05866999, NaN, NaN, NaN, 0.0335714, "- N/A -   "
35.17, 1321.98, 0.05873941, NaN, NaN, NaN, 0.03112983, "- N/A -   "
35.21, 1323.89, 0.0588088, NaN, NaN, NaN, 0.03112983, "- N/A -   "
35.25, 1325.68, 0.0588782, NaN, NaN, NaN, 0.0286883, "- N/A -   "
35.29, 1327.47, 0.05894489, NaN, NaN, NaN, 0.0286883, "- N/A -   "
35.33, 1329.02, 0.0590115, NaN, NaN, NaN, 0.03112983, "- N/A -   "
35.37, 1330.81, 0.0590754, NaN, NaN, NaN, 0.03112983, "- N/A -   "
35.41, 1332.36, 0.0591365, NaN, NaN, NaN, 0.0335714, "- N/A -   "
35.45, 1333.67, 0.059192, NaN, NaN, NaN, 0.0384545, "- N/A -   "
35.49, 1335.34, 0.0592531, NaN, NaN, NaN, 0.04089605, "- N/A -   "
35.53, 1336.77, 0.05931142, NaN, NaN, NaN, 0.0445584, "- N/A -   "
35.57, 1338.56, 0.05937806, NaN, NaN, NaN, 0.04577916, "- N/A -   "
35.61, 1340.23, 0.0594419, NaN, NaN, NaN, 0.04577916, "- N/A -   "
35.65, 1342.02, 0.05951412, NaN, NaN, NaN, 0.0445584, "- N/A -   "
35.69, 1343.69, 0.05957799, NaN, NaN, NaN, 0.04577916, "- N/A -   "
35.73, 1345.59, 0.0596474, NaN, NaN, NaN, 0.0433376, "- N/A -   "
35.77, 1347.5, 0.0597252, NaN, NaN, NaN, 0.0384545, "- N/A -   "
35.81, 1349.65, 0.0598029, NaN, NaN, NaN, 0.0335714, "- N/A -   "
35.85, 1351.79, 0.0598834, NaN, NaN, NaN, 0.0286883, "- N/A -   "
35.89, 1353.46, 0.0599501, NaN, NaN, NaN, 0.0286883, "- N/A -   "
35.93, 1355.01, 0.06000838, NaN, NaN, NaN, 0.03112983, "- N/A -   "
35.97, 1356.68, 0.060075, NaN, NaN, NaN, 0.03112983, "- N/A -   "
36.01, 1358.23, 0.0601361, NaN, NaN, NaN, 0.0335714, "- N/A -   "
36.05, 1359.78, 0.0601972, NaN, NaN, NaN, 0.03601294, "- N/A -   "
36.09, 1361.45, 0.06025829, NaN, NaN, NaN, 0.0384545, "- N/A -   "
36.13, 1363.243, 0.0603277, NaN, NaN, NaN, 0.0384545, "- N/A -   "
36.17, 1365.15, 0.06039713, NaN, NaN, NaN, 0.03601294, "- N/A -   "
36.21, 1366.58, 0.06045544, NaN, NaN, NaN, 0.04089605, "- N/A -   "
36.25, 1368.13, 0.06051653, NaN, NaN, NaN, 0.0433376, "- N/A -   "
36.29, 1369.92, 0.0605776, NaN, NaN, NaN, 0.0445584, "- N/A -   "
36.33, 1371.47, 0.06064426, NaN, NaN, NaN, 0.04577916, "- N/A -   "
36.37, 1373.38, 0.0607165, NaN, NaN, NaN, 0.04211683, "- N/A -   "
36.41, 1375.526, 0.06079976, NaN, NaN, NaN, 0.0347922, "- N/A -   "
36.45, 1377.434, 0.060872, NaN, NaN, NaN, 0.0323506, "- N/A -   "
36.49, 1379.46, 0.06094415, NaN, NaN, NaN, 0.0299091, "- N/A -   "
36.53, 1381.13, 0.06101357, NaN, NaN, NaN, 0.0299091, "- N/A -   "
36.57, 1382.56, 0.06107188, NaN, NaN, NaN, 0.0335714, "- N/A -   "
36.61, 1384.35, 0.0611357, NaN, NaN, NaN, 0.0347922, "- N/A -   "
36.65, 1386.02, 0.06119961, NaN, NaN, NaN, 0.0347922, "- N/A -   "
36.69, 1387.81, 0.06126903, NaN, NaN, NaN, 0.0335714, "- N/A -   "
36.73, 1389.72, 0.0613412, NaN, NaN, NaN, 0.03112983, "- N/A -   "
36.77, 1391.39, 0.0614023, NaN, NaN, NaN, 0.0335714, "- N/A -   "
36.81, 1393.056, 0.0614662, NaN, NaN, NaN, 0.0347922, "- N/A -   "
36.85, 1394.487, 0.06152449, NaN, NaN, NaN, 0.0384545, "- N/A -   "
36.89, 1396.04, 0.0615828, NaN, NaN, NaN, 0.04211683, "- N/A -   "
36.93, 1397.47, 0.0616439, NaN, NaN, NaN, 0.0445584, "- N/A -   "
36.97, 1399.38, 0.0617161, NaN, NaN, NaN, 0.04211683, "- N/A -   "
37.01, 1401.28, 0.0617855, NaN, NaN, NaN, 0.04211683, "- N/A -   "
37.05, 1402.954, 0.06185215, NaN, NaN, NaN, 0.04089605, "- N/A -   "
37.09, 1404.862, 0.0619243, NaN, NaN, NaN, 0.0384545, "- N/A -   "
37.13, 1406.89, 0.0620021, NaN, NaN, NaN, 0.0335714, "- N/A -   "
37.17, 1408.56, 0.06207151, NaN, NaN, NaN, 0.0335714, "- N/A -   "
37.21, 1410.23, 0.0621354, NaN, NaN, NaN, 0.0335714, "- N/A -   "
37.25, 1412.02, 0.0621965, NaN, NaN, NaN, 0.03601294, "- N/A -   "
37.29, 1413.69, 0.06226588, NaN, NaN, NaN, 0.03601294, "- N/A -   "
37.33, 1415.59, 0.0623325, NaN, NaN, NaN, 0.0347922, "- N/A -   "
37.37, 1417.26, 0.0624019, NaN, NaN, NaN, 0.0347922, "- N/A -   "
37.41, 1418.93, 0.0624686, NaN, NaN, NaN, 0.0335714, "- N/A -   "
37.45, 1420.484, 0.0625297, NaN, NaN, NaN, 0.03601294, "- N/A -   "
37.49, 1422.27, 0.06260187, NaN, NaN, NaN, 0.0335714, "- N/A -   "
37.53, 1424.06, 0.06267129, NaN, NaN, NaN, 0.0323506, "- N/A -   "
37.57, 1425.61, 0.0627296, NaN, NaN, NaN, 0.03601294, "- N/A -   "
37.61, 1427.162, 0.06279069, NaN, NaN, NaN, 0.0396753, "- N/A -   "
37.65, 1428.83, 0.06285455, NaN, NaN, NaN, 0.0396753, "- N/A -   "
37.69, 1430.62, 0.0629212, NaN, NaN, NaN, 0.0396753, "- N/A -   "
37.73, 1431.93, 0.0629795, NaN, NaN, NaN, 0.0433376, "- N/A -   "
37.77, 1433.84, 0.0630517, NaN, NaN, NaN, 0.04211683, "- N/A -   "
37.81, 1435.75, 0.0631211, NaN, NaN, NaN, 0.0396753, "- N/A -   "
37.85, 1437.78, 0.06319887, NaN, NaN, NaN, 0.03601294, "- N/A -   "
37.89, 1439.68, 0.06327107, NaN, NaN, NaN, 0.0323506, "- N/A -   "
37.93, 1441.353, 0.0633377, NaN, NaN, NaN, 0.0323506, "- N/A -   "
37.97, 1442.9, 0.06340158, NaN, NaN, NaN, 0.0335714, "- N/A -   "
38.01, 1444.81, 0.063471, NaN, NaN, NaN, 0.0323506, "- N/A -   "
38.05, 1446.72, 0.06354319, NaN, NaN, NaN, 0.0299091, "- N/A -   "
38.09, 1448.75, 0.06362094, NaN, NaN, NaN, 0.0250259, "- N/A -   "
38.13, 1450.18, 0.06367925, NaN, NaN, NaN, 0.0286883, "- N/A -   "
38.17, 1451.49, 0.0637403, NaN, NaN, NaN, 0.03112983, "- N/A -   "
38.21, 1453.28, 0.06380143, NaN, NaN, NaN, 0.0335714, "- N/A -   "
38.25, 1454.47, 0.06385974, NaN, NaN, NaN, 0.0384545, "- N/A -   "
38.29, 1455.9, 0.0639153, NaN, NaN, NaN, 0.04211683, "- N/A -   "
38.33, 1457.452, 0.06397358, NaN, NaN, NaN, 0.04699994, "- N/A -   "
38.37, 1459, 0.06403468, NaN, NaN, NaN, 0.0482207, "- N/A -   "
38.39, 1459.84, 0.064068, NaN, NaN, NaN, 0.0494415, "- N/A -   "