File: 2_Tensile_Data/Hamel_ForceTest_Bolt8_Test1.csv
Time, Load (lb), Position (in), AxialStrain (in), TransverseStrain (in), Auxiliary (), Control Out (V), Stress (psi)
0.0,1.06153,0.0, NaN, NaN, NaN,0.09094793," ""- N/A -   """
0.01,1.29742,2.2214e-05, NaN, NaN, NaN,0.0872856," ""- N/A -   """
0.02,1.65126,4.442803e-05, NaN, NaN, NaN,0.084844," ""- N/A -   """
0.03,1.88716,6.6642e-05, NaN, NaN, NaN,0.08240249," ""- N/A -   """
0.04,2.241,9.16328e-05, NaN, NaN, NaN,0.07874016," ""- N/A -   """
0.05,2.59484,0.000116624, NaN, NaN, NaN,0.0762986," ""- N/A -   """
0.07,3.30253,0.0001610516, NaN, NaN, NaN,0.0701947," ""- N/A -   """
0.09,3.774319,0.00020548, NaN, NaN, NaN,0.0653116," ""- N/A -   """
0.11,4.246109,0.000244354, NaN, NaN, NaN,0.06287005," ""- N/A -   """
0.13,4.83585,0.000280452, NaN, NaN, NaN,0.06164927," ""- N/A -   """
0.15,5.307636,0.000319326, NaN, NaN, NaN,0.0592077," ""- N/A -   """
0.17,5.897373,0.000358201, NaN, NaN, NaN,0.05676616," ""- N/A -   """
0.19,6.369163,0.000397076, NaN, NaN, NaN,0.0543246," ""- N/A -   """
0.21,6.9589,0.00043595, NaN, NaN, NaN,0.05188305," ""- N/A -   """
0.23,7.548638,0.0004776013, NaN, NaN, NaN,0.0482207," ""- N/A -   """
0.25,8.138375,0.000522029, NaN, NaN, NaN,0.0433376," ""- N/A -   """
0.27,8.728113,0.0005664574, NaN, NaN, NaN,0.0384545," ""- N/A -   """
0.29,9.31785,0.000608109, NaN, NaN, NaN,0.0347922," ""- N/A -   """
0.31,9.907588,0.000646983, NaN, NaN, NaN,0.0335714," ""- N/A -   """
0.33,10.3794,0.0006830809, NaN, NaN, NaN,0.0323506," ""- N/A -   """
0.35,10.8512,0.000716402, NaN, NaN, NaN,0.0323506," ""- N/A -   """
0.37,11.4409,0.0007525, NaN, NaN, NaN,0.03112983," ""- N/A -   """
0.39,11.7947,0.000785821, NaN, NaN, NaN,0.0299091," ""- N/A -   """
0.41,12.2665,0.000816365, NaN, NaN, NaN,0.03112983," ""- N/A -   """
0.43,12.7383,0.000849686, NaN, NaN, NaN,0.0323506," ""- N/A -   """
0.45,13.09217,0.0008774536, NaN, NaN, NaN,0.0335714," ""- N/A -   """
0.47,13.564,0.0009107746, NaN, NaN, NaN,0.0347922," ""- N/A -   """
0.49,14.0357,0.000941319, NaN, NaN, NaN,0.0347922," ""- N/A -   """
0.51,14.5075,0.000971863, NaN, NaN, NaN,0.03601294," ""- N/A -   """
0.53,14.9793,0.00100518, NaN, NaN, NaN,0.03601294," ""- N/A -   """
0.55,15.4511,0.00103851, NaN, NaN, NaN,0.03601294," ""- N/A -   """
0.57,15.9229,0.00107183, NaN, NaN, NaN,0.0372337," ""- N/A -   """
0.59,16.3947,0.00110515, NaN, NaN, NaN,0.03601294," ""- N/A -   """
0.61,16.86649,0.00113569, NaN, NaN, NaN,0.0372337," ""- N/A -   """
0.63,17.3383,0.00116624, NaN, NaN, NaN,0.0384545," ""- N/A -   """
0.65,17.8101,0.001194, NaN, NaN, NaN,0.04089605," ""- N/A -   """
0.67,18.2819,0.00122455, NaN, NaN, NaN,0.04211683," ""- N/A -   """
0.69,18.5178,0.00125509, NaN, NaN, NaN,0.0433376," ""- N/A -   """
0.71,18.9895,0.00128564, NaN, NaN, NaN,0.0445584," ""- N/A -   """
0.73,19.4613,0.00131618, NaN, NaN, NaN,0.04577916," ""- N/A -   """
0.75,19.9331,0.0013495, NaN, NaN, NaN,0.04577916," ""- N/A -   """
0.77,20.4049,0.00138282, NaN, NaN, NaN,0.04699994," ""- N/A -   """
0.79,20.8767,0.00141337, NaN, NaN, NaN,0.04699994," ""- N/A -   """
0.81,21.3485,0.00144946, NaN, NaN, NaN,0.04577916," ""- N/A -   """
0.83,21.93823,0.00149112, NaN, NaN, NaN,0.04211683," ""- N/A -   """
0.85,22.528,0.001532767, NaN, NaN, NaN,0.0396753," ""- N/A -   """
0.87,23.1177,0.00157442, NaN, NaN, NaN,0.03601294," ""- N/A -   """
0.89,23.7074,0.00161052, NaN, NaN, NaN,0.0335714," ""- N/A -   """
0.91,24.1792,0.00164939, NaN, NaN, NaN,0.03112983," ""- N/A -   """
0.93,24.8869,0.00168549, NaN, NaN, NaN,0.0299091," ""- N/A -   """
0.95,25.3587,0.00171881, NaN, NaN, NaN,0.0299091," ""- N/A -   """
0.97,25.7125,0.00175491, NaN, NaN, NaN,0.0299091," ""- N/A -   """
0.99,26.18434,0.00178545, NaN, NaN, NaN,0.03112983," ""- N/A -   """
1.01,26.5382,0.00181322, NaN, NaN, NaN,0.0323506," ""- N/A -   """
1.03,27.01,0.00184376, NaN, NaN, NaN,0.0335714," ""- N/A -   """
1.05,27.4818,0.00187431, NaN, NaN, NaN,0.0347922," ""- N/A -   """
1.07,27.95355,0.00190485, NaN, NaN, NaN,0.03601294," ""- N/A -   """
1.09,28.42534,0.00193817, NaN, NaN, NaN,0.03601294," ""- N/A -   """
1.11,29.0151,0.00197427, NaN, NaN, NaN,0.03601294," ""- N/A -   """
1.13,29.6048,0.00201037, NaN, NaN, NaN,0.0347922," ""- N/A -   """
1.15,30.0766,0.002046466, NaN, NaN, NaN,0.0323506," ""- N/A -   """
1.17,30.6663,0.00207979, NaN, NaN, NaN,0.0323506," ""- N/A -   """
1.19,31.1381,0.002113108, NaN, NaN, NaN,0.0323506," ""- N/A -   """
1.21,31.6099,0.00214643, NaN, NaN, NaN,0.0335714," ""- N/A -   """
1.23,32.08171,0.00217697, NaN, NaN, NaN,0.0335714," ""- N/A -   """
1.25,32.4356,0.00220752, NaN, NaN, NaN,0.0347922," ""- N/A -   """
1.27,32.9073,0.00223529, NaN, NaN, NaN,0.0372337," ""- N/A -   """
1.29,33.3791,0.00226583, NaN, NaN, NaN,0.0384545," ""- N/A -   """
1.31,33.73298,0.002296374, NaN, NaN, NaN,0.04089605," ""- N/A -   """
1.33,34.3227,0.002326918, NaN, NaN, NaN,0.04089605," ""- N/A -   """
1.35,34.7945,0.002360239, NaN, NaN, NaN,0.04211683," ""- N/A -   """
1.37,35.2663,0.00239356, NaN, NaN, NaN,0.04089605," ""- N/A -   """
1.39,35.85603,0.002429658, NaN, NaN, NaN,0.0396753," ""- N/A -   """
1.41,36.44577,0.00246576, NaN, NaN, NaN,0.0384545," ""- N/A -   """
1.43,36.9176,0.00250185, NaN, NaN, NaN,0.0372337," ""- N/A -   """
1.45,37.5073,0.00252962, NaN, NaN, NaN,0.0396753," ""- N/A -   """
1.47,37.8611,0.002562942, NaN, NaN, NaN,0.0396753," ""- N/A -   """
1.49,38.3329,0.002593486, NaN, NaN, NaN,0.04089605," ""- N/A -   """
1.51,38.8047,0.00262958, NaN, NaN, NaN,0.0396753," ""- N/A -   """
1.53,39.5124,0.002662905, NaN, NaN, NaN,0.0396753," ""- N/A -   """
1.55,40.10214,0.002699, NaN, NaN, NaN,0.0384545," ""- N/A -   """
1.57,40.69188,0.0027351, NaN, NaN, NaN,0.0372337," ""- N/A -   """
1.59,41.16367,0.00276842, NaN, NaN, NaN,0.0372337," ""- N/A -   """
1.61,41.6355,0.00280174, NaN, NaN, NaN,0.0372337," ""- N/A -   """
1.63,42.3431,0.00283784, NaN, NaN, NaN,0.03601294," ""- N/A -   """
1.65,42.8149,0.00287394, NaN, NaN, NaN,0.03601294," ""- N/A -   """
1.67,43.2867,0.00290448, NaN, NaN, NaN,0.03601294," ""- N/A -   """
1.69,43.87646,0.0029378, NaN, NaN, NaN,0.03601294," ""- N/A -   """
1.71,44.4662,0.00297668, NaN, NaN, NaN,0.0347922," ""- N/A -   """
1.73,44.93799,0.003009999, NaN, NaN, NaN,0.0335714," ""- N/A -   """
1.75,45.5277,0.00304332, NaN, NaN, NaN,0.0347922," ""- N/A -   """
1.77,45.9995,0.00307664, NaN, NaN, NaN,0.0335714," ""- N/A -   """
1.79,46.5893,0.003109962, NaN, NaN, NaN,0.0347922," ""- N/A -   """
1.81,47.061,0.003143283, NaN, NaN, NaN,0.0335714," ""- N/A -   """
1.83,47.65078,0.003179381, NaN, NaN, NaN,0.0335714," ""- N/A -   """
1.85,48.2405,0.003209925, NaN, NaN, NaN,0.0335714," ""- N/A -   """
1.87,48.7123,0.00324047, NaN, NaN, NaN,0.0347922," ""- N/A -   """
1.89,49.1841,0.00327379, NaN, NaN, NaN,0.03601294," ""- N/A -   """
1.91,49.6559,0.00330711, NaN, NaN, NaN,0.0347922," ""- N/A -   """
1.93,50.3636,0.00334321, NaN, NaN, NaN,0.0347922," ""- N/A -   """
1.95,50.9533,0.00338208, NaN, NaN, NaN,0.0323506," ""- N/A -   """
1.97,51.543,0.0034154, NaN, NaN, NaN,0.03112983," ""- N/A -   """
1.99,52.01483,0.00344595, NaN, NaN, NaN,0.0323506," ""- N/A -   """
2.01,52.36868,0.00347372, NaN, NaN, NaN,0.0347922," ""- N/A -   """
2.03,52.84047,0.00350148, NaN, NaN, NaN,0.0372337," ""- N/A -   """
2.05,53.3123,0.00353203, NaN, NaN, NaN,0.0396753," ""- N/A -   """
2.07,54.0199,0.00356257, NaN, NaN, NaN,0.0396753," ""- N/A -   """
2.09,54.3738,0.00359312, NaN, NaN, NaN,0.04089605," ""- N/A -   """
2.11,54.9635,0.00362644, NaN, NaN, NaN,0.04089605," ""- N/A -   """
2.13,55.43531,0.00365698, NaN, NaN, NaN,0.0433376," ""- N/A -   """
2.15,56.02505,0.00368753, NaN, NaN, NaN,0.0433376," ""- N/A -   """
2.17,56.6148,0.003718071, NaN, NaN, NaN,0.0445584," ""- N/A -   """
2.19,57.20452,0.00375139, NaN, NaN, NaN,0.0445584," ""- N/A -   """
2.21,57.79426,0.00378749, NaN, NaN, NaN,0.0445584," ""- N/A -   """
2.23,58.384,0.00382081, NaN, NaN, NaN,0.0433376," ""- N/A -   """
2.25,58.8558,0.00385691, NaN, NaN, NaN,0.04211683," ""- N/A -   """
2.27,59.5635,0.00389578, NaN, NaN, NaN,0.0396753," ""- N/A -   """
2.29,60.27116,0.00393466, NaN, NaN, NaN,0.0372337," ""- N/A -   """
2.31,60.97884,0.00397631, NaN, NaN, NaN,0.0347922," ""- N/A -   """
2.33,61.6865,0.004015183, NaN, NaN, NaN,0.03112983," ""- N/A -   """
2.35,62.1583,0.00404573, NaN, NaN, NaN,0.0323506," ""- N/A -   """
2.37,62.7481,0.004076272, NaN, NaN, NaN,0.0335714," ""- N/A -   """
2.39,63.2198,0.00410959, NaN, NaN, NaN,0.0347922," ""- N/A -   """
2.41,63.92753,0.00414291, NaN, NaN, NaN,0.0335714," ""- N/A -   """
2.43,64.3993,0.004176235, NaN, NaN, NaN,0.0335714," ""- N/A -   """
2.45,64.98906,0.00420956, NaN, NaN, NaN,0.0347922," ""- N/A -   """
2.47,65.4608,0.00424288, NaN, NaN, NaN,0.0347922," ""- N/A -   """
2.49,66.05058,0.004276198, NaN, NaN, NaN,0.0335714," ""- N/A -   """
2.51,66.87622,0.004315072, NaN, NaN, NaN,0.03112983," ""- N/A -   """
2.53,67.46596,0.004353947, NaN, NaN, NaN,0.0299091," ""- N/A -   """
2.55,68.17364,0.004387268, NaN, NaN, NaN,0.0286883," ""- N/A -   """
2.57,68.6454,0.00441781, NaN, NaN, NaN,0.0299091," ""- N/A -   """
2.59,69.23517,0.00444836, NaN, NaN, NaN,0.03112983," ""- N/A -   """
2.61,69.707,0.0044789, NaN, NaN, NaN,0.0323506," ""- N/A -   """
2.63,70.41464,0.004512222, NaN, NaN, NaN,0.0323506," ""- N/A -   """
2.65,70.88643,0.004545543, NaN, NaN, NaN,0.0323506," ""- N/A -   """
2.67,71.4762,0.004576087, NaN, NaN, NaN,0.0335714," ""- N/A -   """
2.69,71.94796,0.00460663, NaN, NaN, NaN,0.0347922," ""- N/A -   """
2.71,72.5377,0.004634399, NaN, NaN, NaN,0.0372337," ""- N/A -   """
2.73,72.89154,0.00465939, NaN, NaN, NaN,0.04089605," ""- N/A -   """
2.75,73.48127,0.00468993, NaN, NaN, NaN,0.0433376," ""- N/A -   """
2.77,73.9531,0.00472048, NaN, NaN, NaN,0.0433376," ""- N/A -   """
2.79,74.42485,0.004753799, NaN, NaN, NaN,0.0445584," ""- N/A -   """
2.81,75.13254,0.00478434, NaN, NaN, NaN,0.04577916," ""- N/A -   """
2.83,75.6043,0.00481489, NaN, NaN, NaN,0.04577916," ""- N/A -   """
2.85,76.31202,0.00485099, NaN, NaN, NaN,0.0445584," ""- N/A -   """
2.87,77.0197,0.004887083, NaN, NaN, NaN,0.0433376," ""- N/A -   """
2.89,77.72738,0.00492596, NaN, NaN, NaN,0.04089605," ""- N/A -   """
2.91,78.4351,0.00496206, NaN, NaN, NaN,0.0396753," ""- N/A -   """
2.93,79.0248,0.004998153, NaN, NaN, NaN,0.0384545," ""- N/A -   """
2.95,79.61454,0.005031475, NaN, NaN, NaN,0.0384545," ""- N/A -   """
2.97,80.20428,0.00506757, NaN, NaN, NaN,0.0372337," ""- N/A -   """
2.99,81.0299,0.005106447, NaN, NaN, NaN,0.03601294," ""- N/A -   """
3.01,81.61965,0.005142545, NaN, NaN, NaN,0.0347922," ""- N/A -   """
3.03,82.20939,0.00517587, NaN, NaN, NaN,0.0335714," ""- N/A -   """
3.05,82.79912,0.005209187, NaN, NaN, NaN,0.0335714," ""- N/A -   """
3.07,83.38886,0.00524251, NaN, NaN, NaN,0.0335714," ""- N/A -   """
3.09,83.9786,0.00527861, NaN, NaN, NaN,0.0323506," ""- N/A -   """
3.11,84.68629,0.005314703, NaN, NaN, NaN,0.03112983," ""- N/A -   """
3.13,85.39397,0.005350801, NaN, NaN, NaN,0.0299091," ""- N/A -   """
3.15,85.9837,0.00538412, NaN, NaN, NaN,0.0299091," ""- N/A -   """
3.17,86.4555,0.00541744, NaN, NaN, NaN,0.0299091," ""- N/A -   """
3.19,87.16318,0.005453541, NaN, NaN, NaN,0.0286883," ""- N/A -   """
3.21,87.63497,0.005484085, NaN, NaN, NaN,0.0299091," ""- N/A -   """
3.23,88.22471,0.005520183, NaN, NaN, NaN,0.0299091," ""- N/A -   """
3.25,88.8144,0.00554795, NaN, NaN, NaN,0.03112983," ""- N/A -   """
3.27,89.28623,0.005578494, NaN, NaN, NaN,0.0323506," ""- N/A -   """
3.29,89.6401,0.005609039, NaN, NaN, NaN,0.0335714," ""- N/A -   """
3.31,90.22981,0.00563958, NaN, NaN, NaN,0.0347922," ""- N/A -   """
3.33,90.81956,0.00567013, NaN, NaN, NaN,0.03601294," ""- N/A -   """
3.35,91.2913,0.00570067, NaN, NaN, NaN,0.0384545," ""- N/A -   """
3.37,91.76313,0.00573122, NaN, NaN, NaN,0.0396753," ""- N/A -   """
3.39,92.23492,0.00575898, NaN, NaN, NaN,0.04089605," ""- N/A -   """
3.41,92.70671,0.00578953, NaN, NaN, NaN,0.04211683," ""- N/A -   """
3.43,93.41439,0.005820072, NaN, NaN, NaN,0.0445584," ""- N/A -   """
3.45,93.8862,0.005850616, NaN, NaN, NaN,0.04577916," ""- N/A -   """
3.47,94.47592,0.00588394, NaN, NaN, NaN,0.0445584," ""- N/A -   """
3.49,95.06567,0.00592004, NaN, NaN, NaN,0.0445584," ""- N/A -   """
3.51,95.6554,0.00595058, NaN, NaN, NaN,0.04577916," ""- N/A -   """
3.53,96.12719,0.0059839, NaN, NaN, NaN,0.04577916," ""- N/A -   """
3.55,96.71693,0.006019998, NaN, NaN, NaN,0.0445584," ""- N/A -   """
3.57,97.4246,0.006058872, NaN, NaN, NaN,0.0433376," ""- N/A -   """
3.59,98.13229,0.00609497, NaN, NaN, NaN,0.04089605," ""- N/A -   """
3.61,98.72203,0.006133844, NaN, NaN, NaN,0.0384545," ""- N/A -   """
3.63,99.42972,0.00617272, NaN, NaN, NaN,0.03601294," ""- N/A -   """
3.65,100.137,0.00621437, NaN, NaN, NaN,0.0323506," ""- N/A -   """
3.67,100.963,0.00625325, NaN, NaN, NaN,0.0299091," ""- N/A -   """
3.69,101.553,0.00628934, NaN, NaN, NaN,0.0286883," ""- N/A -   """
3.71,102.025,0.006322664, NaN, NaN, NaN,0.0286883," ""- N/A -   """
3.73,102.6143,0.00635598, NaN, NaN, NaN,0.0299091," ""- N/A -   """
3.75,103.204,0.00638653, NaN, NaN, NaN,0.0299091," ""- N/A -   """
3.77,103.794,0.00641985, NaN, NaN, NaN,0.0299091," ""- N/A -   """
3.79,104.266,0.006450394, NaN, NaN, NaN,0.03112983," ""- N/A -   """
3.81,104.973,0.00648094, NaN, NaN, NaN,0.0323506," ""- N/A -   """
3.83,105.445,0.006511484, NaN, NaN, NaN,0.0335714," ""- N/A -   """
3.85,106.035,0.006542028, NaN, NaN, NaN,0.0347922," ""- N/A -   """
3.87,106.625,0.00657535, NaN, NaN, NaN,0.0347922," ""- N/A -   """
3.89,107.3322,0.00660867, NaN, NaN, NaN,0.0347922," ""- N/A -   """
3.91,107.922,0.00664199, NaN, NaN, NaN,0.0347922," ""- N/A -   """
3.93,108.63,0.006675312, NaN, NaN, NaN,0.0347922," ""- N/A -   """
3.95,109.3373,0.006708632, NaN, NaN, NaN,0.0347922," ""- N/A -   """
3.97,109.8091,0.00673918, NaN, NaN, NaN,0.03601294," ""- N/A -   """
3.99,110.399,0.00676972, NaN, NaN, NaN,0.0372337," ""- N/A -   """
4.01,111.107,0.00679749, NaN, NaN, NaN,0.0396753," ""- N/A -   """
4.03,111.696,0.00683081, NaN, NaN, NaN,0.0396753," ""- N/A -   """
4.05,112.404,0.00686413, NaN, NaN, NaN,0.0396753," ""- N/A -   """
4.07,112.994,0.00689745, NaN, NaN, NaN,0.0396753," ""- N/A -   """
4.09,113.583,0.00692522, NaN, NaN, NaN,0.04211683," ""- N/A -   """
4.11,114.173,0.00695854, NaN, NaN, NaN,0.0433376," ""- N/A -   """
4.13,114.881,0.00698908, NaN, NaN, NaN,0.0433376," ""- N/A -   """
4.15,115.471,0.007019629, NaN, NaN, NaN,0.0445584," ""- N/A -   """
4.17,116.178,0.00705295, NaN, NaN, NaN,0.0445584," ""- N/A -   """
4.19,116.768,0.007089048, NaN, NaN, NaN,0.0445584," ""- N/A -   """
4.21,117.594,0.00712237, NaN, NaN, NaN,0.0445584," ""- N/A -   """
4.23,118.301,0.00715847, NaN, NaN, NaN,0.04211683," ""- N/A -   """
4.25,119.127,0.007194564, NaN, NaN, NaN,0.04089605," ""- N/A -   """
4.27,119.953,0.00723344, NaN, NaN, NaN,0.0384545," ""- N/A -   """
4.29,120.66,0.00727509, NaN, NaN, NaN,0.03601294," ""- N/A -   """
4.31,121.486,0.007308411, NaN, NaN, NaN,0.0347922," ""- N/A -   """
4.33,122.312,0.007347285, NaN, NaN, NaN,0.0335714," ""- N/A -   """
4.35,123.019,0.007383383, NaN, NaN, NaN,0.0323506," ""- N/A -   """
4.37,123.609,0.0074167, NaN, NaN, NaN,0.03112983," ""- N/A -   """
4.39,124.199,0.007450025, NaN, NaN, NaN,0.0323506," ""- N/A -   """
4.41,124.67,0.007480569, NaN, NaN, NaN,0.0323506," ""- N/A -   """
4.43,125.496,0.00751111, NaN, NaN, NaN,0.0335714," ""- N/A -   """
4.45,126.086,0.00754166, NaN, NaN, NaN,0.0347922," ""- N/A -   """
4.47,126.558,0.0075722, NaN, NaN, NaN,0.03601294," ""- N/A -   """
4.49,127.265,0.007605523, NaN, NaN, NaN,0.0372337," ""- N/A -   """
4.51,127.855,0.007636067, NaN, NaN, NaN,0.0372337," ""- N/A -   """
4.53,128.563,0.007672165, NaN, NaN, NaN,0.03601294," ""- N/A -   """
4.55,129.506,0.007708263, NaN, NaN, NaN,0.0347922," ""- N/A -   """
4.57,130.096,0.00774436, NaN, NaN, NaN,0.0335714," ""- N/A -   """
4.59,130.804,0.00777768, NaN, NaN, NaN,0.0335714," ""- N/A -   """
4.61,131.276,0.007811003, NaN, NaN, NaN,0.0347922," ""- N/A -   """
4.63,132.101,0.007841547, NaN, NaN, NaN,0.0347922," ""- N/A -   """
4.65,132.6909,0.007874869, NaN, NaN, NaN,0.0347922," ""- N/A -   """
4.67,133.163,0.007908189, NaN, NaN, NaN,0.0347922," ""- N/A -   """
4.69,133.752,0.00794151, NaN, NaN, NaN,0.0347922," ""- N/A -   """
4.71,134.224,0.007969277, NaN, NaN, NaN,0.0372337," ""- N/A -   """
4.73,134.578,0.00799982, NaN, NaN, NaN,0.0384545," ""- N/A -   """
4.75,135.286,0.008027589, NaN, NaN, NaN,0.04089605," ""- N/A -   """
4.77,135.758,0.008060911, NaN, NaN, NaN,0.04089605," ""- N/A -   """
4.79,136.347,0.008091455, NaN, NaN, NaN,0.04211683," ""- N/A -   """
4.81,137.055,0.008127553, NaN, NaN, NaN,0.04211683," ""- N/A -   """
4.83,137.6447,0.008160873, NaN, NaN, NaN,0.04089605," ""- N/A -   """
4.85,138.352,0.008194195, NaN, NaN, NaN,0.04089605," ""- N/A -   """
4.87,138.942,0.008230293, NaN, NaN, NaN,0.04089605," ""- N/A -   """
4.89,139.532,0.008260837, NaN, NaN, NaN,0.04089605," ""- N/A -   """
4.91,140.1216,0.008294158, NaN, NaN, NaN,0.04089605," ""- N/A -   """
4.93,140.711,0.008333033, NaN, NaN, NaN,0.0384545," ""- N/A -   """
4.95,141.419,0.008371907, NaN, NaN, NaN,0.0372337," ""- N/A -   """
4.97,142.245,0.008408005, NaN, NaN, NaN,0.03601294," ""- N/A -   """
4.99,142.8344,0.008441325, NaN, NaN, NaN,0.0347922," ""- N/A -   """
5.01,143.424,0.008474647, NaN, NaN, NaN,0.03601294," ""- N/A -   """
5.03,143.896,0.008505192, NaN, NaN, NaN,0.03601294," ""- N/A -   """
5.05,144.486,0.008538512, NaN, NaN, NaN,0.03601294," ""- N/A -   """
5.07,145.0754,0.008571833, NaN, NaN, NaN,0.03601294," ""- N/A -   """
5.09,145.783,0.008602377, NaN, NaN, NaN,0.0372337," ""- N/A -   """
5.11,146.3728,0.008638475, NaN, NaN, NaN,0.03601294," ""- N/A -   """
5.13,147.0805,0.008674573, NaN, NaN, NaN,0.03601294," ""- N/A -   """
5.15,147.67,0.008707894, NaN, NaN, NaN,0.03601294," ""- N/A -   """
5.17,148.26,0.008738438, NaN, NaN, NaN,0.03601294," ""- N/A -   """
5.19,148.8497,0.008768982, NaN, NaN, NaN,0.0372337," ""- N/A -   """
5.21,149.557,0.00880786, NaN, NaN, NaN,0.03601294," ""- N/A -   """
5.23,150.265,0.008843956, NaN, NaN, NaN,0.0335714," ""- N/A -   """
5.25,150.973,0.008880052, NaN, NaN, NaN,0.0323506," ""- N/A -   """
5.27,151.68,0.00891615, NaN, NaN, NaN,0.0323506," ""- N/A -   """
5.29,152.27,0.008949472, NaN, NaN, NaN,0.0323506," ""- N/A -   """
5.31,152.86,0.008980015, NaN, NaN, NaN,0.0323506," ""- N/A -   """
5.33,153.332,0.009013336, NaN, NaN, NaN,0.0323506," ""- N/A -   """
5.35,154.0394,0.009046658, NaN, NaN, NaN,0.0323506," ""- N/A -   """
5.37,154.629,0.009079978, NaN, NaN, NaN,0.0335714," ""- N/A -   """
5.39,155.219,0.009110523, NaN, NaN, NaN,0.0347922," ""- N/A -   """
5.41,155.809,0.009141068, NaN, NaN, NaN,0.0347922," ""- N/A -   """
5.43,156.398,0.009171612, NaN, NaN, NaN,0.03601294," ""- N/A -   """
5.45,156.988,0.009202156, NaN, NaN, NaN,0.0372337," ""- N/A -   """
5.47,157.578,0.0092327, NaN, NaN, NaN,0.0384545," ""- N/A -   """
5.49,158.0496,0.009263244, NaN, NaN, NaN,0.0396753," ""- N/A -   """
5.51,158.7573,0.009296565, NaN, NaN, NaN,0.0396753," ""- N/A -   """
5.53,159.347,0.00932711, NaN, NaN, NaN,0.04089605," ""- N/A -   """
5.55,160.055,0.009363208, NaN, NaN, NaN,0.04089605," ""- N/A -   """
5.57,160.644,0.009393752, NaN, NaN, NaN,0.04211683," ""- N/A -   """
5.59,161.116,0.00942152, NaN, NaN, NaN,0.0433376," ""- N/A -   """
5.61,161.942,0.00945484, NaN, NaN, NaN,0.0433376," ""- N/A -   """
5.63,162.65,0.009488161, NaN, NaN, NaN,0.0433376," ""- N/A -   """
5.65,163.2393,0.009524259, NaN, NaN, NaN,0.0433376," ""- N/A -   """
5.67,163.947,0.00955758, NaN, NaN, NaN,0.04211683," ""- N/A -   """
5.69,164.655,0.009596454, NaN, NaN, NaN,0.0396753," ""- N/A -   """
5.71,165.4803,0.009635328, NaN, NaN, NaN,0.0372337," ""- N/A -   """
5.73,166.306,0.009674203, NaN, NaN, NaN,0.0347922," ""- N/A -   """
5.75,166.896,0.009710301, NaN, NaN, NaN,0.0335714," ""- N/A -   """
5.77,167.603,0.00974362, NaN, NaN, NaN,0.0335714," ""- N/A -   """
5.79,168.311,0.009779721, NaN, NaN, NaN,0.0323506," ""- N/A -   """
5.81,168.783,0.00981304, NaN, NaN, NaN,0.0323506," ""- N/A -   """
5.83,169.608,0.009846362, NaN, NaN, NaN,0.0323506," ""- N/A -   """
5.85,170.08,0.009879682, NaN, NaN, NaN,0.0323506," ""- N/A -   """
5.87,170.906,0.009913004, NaN, NaN, NaN,0.0335714," ""- N/A -   """
5.89,171.26,0.00994077, NaN, NaN, NaN,0.0347922," ""- N/A -   """
5.91,172.085,0.009974092, NaN, NaN, NaN,0.0347922," ""- N/A -   """
5.93,172.793,0.010013, NaN, NaN, NaN,0.0323506," ""- N/A -   """
5.95,173.501,0.0100518, NaN, NaN, NaN,0.0299091," ""- N/A -   """
5.97,174.208,0.0100879, NaN, NaN, NaN,0.0286883," ""- N/A -   """
5.99,174.798,0.0101213, NaN, NaN, NaN,0.0299091," ""- N/A -   """
6.01,175.506,0.0101518, NaN, NaN, NaN,0.0299091," ""- N/A -   """
6.03,176.096,0.0101851, NaN, NaN, NaN,0.03112983," ""- N/A -   """
6.05,176.567,0.0102129, NaN, NaN, NaN,0.0323506," ""- N/A -   """
6.07,177.1571,0.0102434, NaN, NaN, NaN,0.0335714," ""- N/A -   """
6.09,177.747,0.010274, NaN, NaN, NaN,0.0347922," ""- N/A -   """
6.11,178.337,0.0103017, NaN, NaN, NaN,0.0372337," ""- N/A -   """
6.13,178.808,0.0103295, NaN, NaN, NaN,0.0396753," ""- N/A -   """
6.15,179.28,0.0103573, NaN, NaN, NaN,0.0433376," ""- N/A -   """
6.17,179.752,0.0103823, NaN, NaN, NaN,0.04577916," ""- N/A -   """
6.19,180.46,0.0104156, NaN, NaN, NaN,0.04577916," ""- N/A -   """
6.21,181.049,0.0104461, NaN, NaN, NaN,0.04699994," ""- N/A -   """
6.23,181.639,0.0104795, NaN, NaN, NaN,0.04699994," ""- N/A -   """
6.25,182.229,0.01051, NaN, NaN, NaN,0.0482207," ""- N/A -   """
6.27,182.937,0.0105461, NaN, NaN, NaN,0.0482207," ""- N/A -   """
6.29,183.644,0.0105822, NaN, NaN, NaN,0.04577916," ""- N/A -   """
6.31,184.47,0.0106239, NaN, NaN, NaN,0.04211683," ""- N/A -   """
6.33,185.295,0.0106627, NaN, NaN, NaN,0.0396753," ""- N/A -   """
6.35,185.885,0.0106988, NaN, NaN, NaN,0.0384545," ""- N/A -   """
6.37,186.711,0.0107377, NaN, NaN, NaN,0.03601294," ""- N/A -   """
6.39,187.301,0.0107738, NaN, NaN, NaN,0.0347922," ""- N/A -   """
6.41,188.008,0.0108099, NaN, NaN, NaN,0.0347922," ""- N/A -   """
6.43,188.716,0.0108432, NaN, NaN, NaN,0.0335714," ""- N/A -   """
6.45,189.3057,0.0108793, NaN, NaN, NaN,0.0323506," ""- N/A -   """
6.47,190.013,0.0109154, NaN, NaN, NaN,0.03112983," ""- N/A -   """
6.49,190.721,0.0109515, NaN, NaN, NaN,0.0299091," ""- N/A -   """
6.51,191.547,0.0109876, NaN, NaN, NaN,0.0299091," ""- N/A -   """
6.53,192.136,0.0110209, NaN, NaN, NaN,0.0286883," ""- N/A -   """
6.55,192.726,0.0110542, NaN, NaN, NaN,0.0299091," ""- N/A -   """
6.57,193.3159,0.0110848, NaN, NaN, NaN,0.0299091," ""- N/A -   """
6.59,194.024,0.0111209, NaN, NaN, NaN,0.0299091," ""- N/A -   """
6.61,194.613,0.0111542, NaN, NaN, NaN,0.0299091," ""- N/A -   """
6.63,195.203,0.0111903, NaN, NaN, NaN,0.0286883," ""- N/A -   """
6.65,196.0287,0.0112236, NaN, NaN, NaN,0.0274675," ""- N/A -   """
6.67,196.5,0.0112542, NaN, NaN, NaN,0.0286883," ""- N/A -   """
6.69,197.09,0.0112847, NaN, NaN, NaN,0.0299091," ""- N/A -   """
6.71,197.562,0.0113125, NaN, NaN, NaN,0.0323506," ""- N/A -   """
6.73,198.152,0.0113403, NaN, NaN, NaN,0.0347922," ""- N/A -   """
6.75,198.624,0.011368, NaN, NaN, NaN,0.0372337," ""- N/A -   """
6.77,199.095,0.01139579, NaN, NaN, NaN,0.0396753," ""- N/A -   """
6.79,199.685,0.0114236, NaN, NaN, NaN,0.04211683," ""- N/A -   """
6.81,200.275,0.0114541, NaN, NaN, NaN,0.0433376," ""- N/A -   """
6.83,200.865,0.0114874, NaN, NaN, NaN,0.0445584," ""- N/A -   """
6.85,201.572,0.011518, NaN, NaN, NaN,0.0445584," ""- N/A -   """
6.87,202.28,0.0115568, NaN, NaN, NaN,0.0433376," ""- N/A -   """
6.89,202.87,0.0115874, NaN, NaN, NaN,0.0433376," ""- N/A -   """
6.91,203.577,0.0116207, NaN, NaN, NaN,0.0433376," ""- N/A -   """
6.93,204.403,0.011654, NaN, NaN, NaN,0.0433376," ""- N/A -   """
6.95,204.875,0.0116873, NaN, NaN, NaN,0.0433376," ""- N/A -   """
6.97,205.582,0.0117207, NaN, NaN, NaN,0.0445584," ""- N/A -   """
6.99,206.29,0.01175399, NaN, NaN, NaN,0.0433376," ""- N/A -   """
7.01,206.9978,0.0117901, NaN, NaN, NaN,0.04211683," ""- N/A -   """
7.03,207.705,0.011829, NaN, NaN, NaN,0.0396753," ""- N/A -   """
7.05,208.531,0.0118678, NaN, NaN, NaN,0.0372337," ""- N/A -   """
7.07,209.357,0.0119067, NaN, NaN, NaN,0.0347922," ""- N/A -   """
7.09,210.182,0.0119484, NaN, NaN, NaN,0.03112983," ""- N/A -   """
7.11,210.89,0.0119872, NaN, NaN, NaN,0.0286883," ""- N/A -   """
7.13,211.598,0.0120206, NaN, NaN, NaN,0.0286883," ""- N/A -   """
7.15,212.1875,0.01205388, NaN, NaN, NaN,0.0286883," ""- N/A -   """
7.17,213.013,0.0120872, NaN, NaN, NaN,0.0286883," ""- N/A -   """
7.19,213.485,0.0121205, NaN, NaN, NaN,0.0286883," ""- N/A -   """
7.21,214.1926,0.0121538, NaN, NaN, NaN,0.0286883," ""- N/A -   """
7.23,214.9,0.0121844, NaN, NaN, NaN,0.0299091," ""- N/A -   """
7.25,215.372,0.0122149, NaN, NaN, NaN,0.03112983," ""- N/A -   """
7.27,215.844,0.0122455, NaN, NaN, NaN,0.0323506," ""- N/A -   """
7.29,216.552,0.01227602, NaN, NaN, NaN,0.0335714," ""- N/A -   """
7.31,217.141,0.0123093, NaN, NaN, NaN,0.0347922," ""- N/A -   """
7.33,217.849,0.0123427, NaN, NaN, NaN,0.0347922," ""- N/A -   """
7.35,218.557,0.0123732, NaN, NaN, NaN,0.0347922," ""- N/A -   """
7.37,219.1464,0.0124065, NaN, NaN, NaN,0.0347922," ""- N/A -   """
7.39,219.736,0.0124371, NaN, NaN, NaN,0.03601294," ""- N/A -   """
7.41,220.444,0.0124704, NaN, NaN, NaN,0.03601294," ""- N/A -   """
7.43,221.152,0.0125037, NaN, NaN, NaN,0.03601294," ""- N/A -   """
7.45,221.741,0.012537, NaN, NaN, NaN,0.03601294," ""- N/A -   """
7.47,222.449,0.0125676, NaN, NaN, NaN,0.0384545," ""- N/A -   """
7.49,223.039,0.0125953, NaN, NaN, NaN,0.0396753," ""- N/A -   """
7.51,223.51,0.0126259, NaN, NaN, NaN,0.04211683," ""- N/A -   """
7.53,223.982,0.0126537, NaN, NaN, NaN,0.0433376," ""- N/A -   """
7.55,224.69,0.012687, NaN, NaN, NaN,0.0445584," ""- N/A -   """
7.57,225.28,0.0127175, NaN, NaN, NaN,0.04577916," ""- N/A -   """
7.59,225.987,0.0127481, NaN, NaN, NaN,0.04577916," ""- N/A -   """
7.61,226.577,0.0127814, NaN, NaN, NaN,0.04699994," ""- N/A -   """
7.63,227.403,0.01281471, NaN, NaN, NaN,0.04577916," ""- N/A -   """
7.65,228.11,0.0128508, NaN, NaN, NaN,0.0445584," ""- N/A -   """
7.67,228.936,0.0128952, NaN, NaN, NaN,0.04089605," ""- N/A -   """
7.69,229.762,0.01293411, NaN, NaN, NaN,0.0372337," ""- N/A -   """
7.71,230.587,0.0129758, NaN, NaN, NaN,0.0347922," ""- N/A -   """
7.73,231.413,0.0130119, NaN, NaN, NaN,0.0323506," ""- N/A -   """
7.75,232.121,0.0130507, NaN, NaN, NaN,0.03112983," ""- N/A -   """
7.77,232.828,0.0130841, NaN, NaN, NaN,0.0299091," ""- N/A -   """
7.79,233.418,0.0131202, NaN, NaN, NaN,0.0299091," ""- N/A -   """
7.81,234.008,0.0131507, NaN, NaN, NaN,0.0299091," ""- N/A -   """
7.83,234.715,0.013184, NaN, NaN, NaN,0.0299091," ""- N/A -   """
7.85,235.3052,0.0132118, NaN, NaN, NaN,0.0323506," ""- N/A -   """
7.87,235.895,0.0132423, NaN, NaN, NaN,0.0335714," ""- N/A -   """
7.89,236.485,0.0132729, NaN, NaN, NaN,0.0347922," ""- N/A -   """
7.91,237.074,0.0133034, NaN, NaN, NaN,0.03601294," ""- N/A -   """
7.93,237.7821,0.0133367, NaN, NaN, NaN,0.03601294," ""- N/A -   """
7.95,238.49,0.0133756, NaN, NaN, NaN,0.0347922," ""- N/A -   """
7.97,239.315,0.0134117, NaN, NaN, NaN,0.0335714," ""- N/A -   """
7.99,240.141,0.0134506, NaN, NaN, NaN,0.03112983," ""- N/A -   """
8.01,240.967,0.0134895, NaN, NaN, NaN,0.0286883," ""- N/A -   """
8.03,241.674,0.0135256, NaN, NaN, NaN,0.0286883," ""- N/A -   """
8.05,242.2641,0.0135589, NaN, NaN, NaN,0.0286883," ""- N/A -   """
8.07,242.971,0.0135894, NaN, NaN, NaN,0.0286883," ""- N/A -   """
8.08,243.207,0.0136061, NaN, NaN, NaN,0.0299091," ""- N/A -   """
8.09,243.56,0.01362, NaN, NaN, NaN,0.0299091," ""- N/A -   """
8.1,243.678,0.0136339, NaN, NaN, NaN,0.03112983," ""- N/A -   """
8.11,243.914,0.013645, NaN, NaN, NaN,0.0335714," ""- N/A -   """
8.12,244.2674,0.0136588, NaN, NaN, NaN,0.0347922," ""- N/A -   """
8.13,244.503,0.0136727, NaN, NaN, NaN,0.03601294," ""- N/A -   """
8.14,244.857,0.0136866, NaN, NaN, NaN,0.0372337," ""- N/A -   """
8.15,244.974,0.0136977, NaN, NaN, NaN,0.0396753," ""- N/A -   """
8.16,245.21,0.0137116, NaN, NaN, NaN,0.04089605," ""- N/A -   """
8.17,245.446,0.0137255, NaN, NaN, NaN,0.0433376," ""- N/A -   """
8.18,245.6813,0.0137394, NaN, NaN, NaN,0.0433376," ""- N/A -   """
8.19,245.917,0.0137533, NaN, NaN, NaN,0.04577916," ""- N/A -   """
8.2,246.388,0.0137671, NaN, NaN, NaN,0.04577916," ""- N/A -   """
8.21,246.624,0.0137866, NaN, NaN, NaN,0.0445584," ""- N/A -   """
8.22,246.9774,0.0138032, NaN, NaN, NaN,0.0445584," ""- N/A -   """
8.23,247.4487,0.0138254, NaN, NaN, NaN,0.0433376," ""- N/A -   """
8.24,247.92,0.0138421, NaN, NaN, NaN,0.04211683," ""- N/A -   """
8.25,248.156,0.0138615, NaN, NaN, NaN,0.04089605," ""- N/A -   """
8.26,248.627,0.0138782, NaN, NaN, NaN,0.04089605," ""- N/A -   """
8.27,248.98,0.0138949, NaN, NaN, NaN,0.04089605," ""- N/A -   """
8.28,249.334,0.0139115, NaN, NaN, NaN,0.04089605," ""- N/A -   """
8.29,249.6874,0.0139254, NaN, NaN, NaN,0.04211683," ""- N/A -   """
8.3,249.923,0.0139421, NaN, NaN, NaN,0.04211683," ""- N/A -   """
8.31,250.277,0.0139587, NaN, NaN, NaN,0.04211683," ""- N/A -   """
8.32,250.63,0.0139782, NaN, NaN, NaN,0.04089605," ""- N/A -   """
8.33,250.983,0.0139948, NaN, NaN, NaN,0.04089605," ""- N/A -   """
8.34,251.337,0.0140115, NaN, NaN, NaN,0.04089605," ""- N/A -   """
8.35,251.69,0.0140282, NaN, NaN, NaN,0.04089605," ""- N/A -   """
8.36,251.926,0.014042, NaN, NaN, NaN,0.04211683," ""- N/A -   """
8.37,252.28,0.0140615, NaN, NaN, NaN,0.04211683," ""- N/A -   """
8.38,252.633,0.0140781, NaN, NaN, NaN,0.04089605," ""- N/A -   """
8.39,252.987,0.0140948, NaN, NaN, NaN,0.04089605," ""- N/A -   """
8.4,253.34,0.0141142, NaN, NaN, NaN,0.04089605," ""- N/A -   """
8.41,253.811,0.0141281, NaN, NaN, NaN,0.04089605," ""- N/A -   """
8.42,254.047,0.0141448, NaN, NaN, NaN,0.04089605," ""- N/A -   """
8.43,254.4,0.0141614, NaN, NaN, NaN,0.04089605," ""- N/A -   """
8.44,254.7539,0.0141781, NaN, NaN, NaN,0.04089605," ""- N/A -   """
8.45,255.1074,0.0141948, NaN, NaN, NaN,0.04089605," ""- N/A -   """
8.46,255.461,0.0142086, NaN, NaN, NaN,0.04211683," ""- N/A -   """
8.47,255.579,0.0142253, NaN, NaN, NaN,0.0433376," ""- N/A -   """
8.48,256.05,0.01424196, NaN, NaN, NaN,0.0433376," ""- N/A -   """
8.49,256.286,0.0142558, NaN, NaN, NaN,0.0433376," ""- N/A -   """
8.5,256.639,0.0142753, NaN, NaN, NaN,0.0433376," ""- N/A -   """
8.51,256.9926,0.0142919, NaN, NaN, NaN,0.04211683," ""- N/A -   """
8.52,257.346,0.0143086, NaN, NaN, NaN,0.04211683," ""- N/A -   """
8.53,257.817,0.014328, NaN, NaN, NaN,0.04089605," ""- N/A -   """
8.54,258.171,0.0143475, NaN, NaN, NaN,0.0396753," ""- N/A -   """
8.55,258.642,0.0143669, NaN, NaN, NaN,0.0384545," ""- N/A -   """
8.56,259.113,0.0143864, NaN, NaN, NaN,0.0384545," ""- N/A -   """
8.57,259.467,0.0144058, NaN, NaN, NaN,0.03601294," ""- N/A -   """
8.58,259.938,0.014428, NaN, NaN, NaN,0.0347922," ""- N/A -   """
8.59,260.292,0.0144447, NaN, NaN, NaN,0.0335714," ""- N/A -   """
8.6,260.6452,0.0144641, NaN, NaN, NaN,0.0323506," ""- N/A -   """
8.61,260.9987,0.0144835, NaN, NaN, NaN,0.0323506," ""- N/A -   """
8.62,261.47,0.0145002, NaN, NaN, NaN,0.03112983," ""- N/A -   """
8.63,261.706,0.0145169, NaN, NaN, NaN,0.03112983," ""- N/A -   """
8.64,262.059,0.0145335, NaN, NaN, NaN,0.03112983," ""- N/A -   """
8.65,262.4126,0.0145502, NaN, NaN, NaN,0.03112983," ""- N/A -   """
8.66,262.648,0.01456684, NaN, NaN, NaN,0.03112983," ""- N/A -   """
8.67,263.002,0.0145835, NaN, NaN, NaN,0.0323506," ""- N/A -   """
8.68,263.473,0.0146002, NaN, NaN, NaN,0.03112983," ""- N/A -   """
8.69,263.8265,0.014614, NaN, NaN, NaN,0.0323506," ""- N/A -   """
8.7,264.0622,0.0146335, NaN, NaN, NaN,0.0323506," ""- N/A -   """
8.71,264.416,0.0146501, NaN, NaN, NaN,0.0323506," ""- N/A -   """
8.72,264.769,0.014664, NaN, NaN, NaN,0.0323506," ""- N/A -   """
8.73,265.0048,0.0146807, NaN, NaN, NaN,0.0323506," ""- N/A -   """
8.74,265.358,0.0146973, NaN, NaN, NaN,0.0323506," ""- N/A -   """
8.75,265.83,0.014714, NaN, NaN, NaN,0.0323506," ""- N/A -   """
8.76,265.9474,0.0147307, NaN, NaN, NaN,0.0323506," ""- N/A -   """
8.77,266.4187,0.0147473, NaN, NaN, NaN,0.0323506," ""- N/A -   """
8.78,266.7722,0.0147612, NaN, NaN, NaN,0.0335714," ""- N/A -   """
8.79,267.0078,0.0147779, NaN, NaN, NaN,0.0335714," ""- N/A -   """
8.8,267.479,0.0147945, NaN, NaN, NaN,0.0335714," ""- N/A -   """
8.81,267.715,0.0148112, NaN, NaN, NaN,0.0335714," ""- N/A -   """
8.82,268.068,0.0148279, NaN, NaN, NaN,0.0347922," ""- N/A -   """
8.83,268.304,0.0148417, NaN, NaN, NaN,0.0347922," ""- N/A -   """
8.84,268.54,0.0148556, NaN, NaN, NaN,0.03601294," ""- N/A -   """
8.85,268.893,0.0148723, NaN, NaN, NaN,0.0372337," ""- N/A -   """
8.86,269.1287,0.0148862, NaN, NaN, NaN,0.0384545," ""- N/A -   """
8.87,269.482,0.01490005, NaN, NaN, NaN,0.0384545," ""- N/A -   """
8.88,269.7178,0.0149139, NaN, NaN, NaN,0.0396753," ""- N/A -   """
8.89,270.071,0.0149306, NaN, NaN, NaN,0.0396753," ""- N/A -   """
8.9,270.425,0.0149473, NaN, NaN, NaN,0.0396753," ""- N/A -   """
8.91,270.778,0.0149639, NaN, NaN, NaN,0.04089605," ""- N/A -   """
8.92,271.132,0.0149778, NaN, NaN, NaN,0.04089605," ""- N/A -   """
8.93,271.367,0.01499446, NaN, NaN, NaN,0.04089605," ""- N/A -   """
8.94,271.7209,0.01501112, NaN, NaN, NaN,0.04211683," ""- N/A -   """
8.95,272.074,0.015025, NaN, NaN, NaN,0.04211683," ""- N/A -   """
8.96,272.31,0.0150417, NaN, NaN, NaN,0.04211683," ""- N/A -   """
8.97,272.663,0.0150555, NaN, NaN, NaN,0.0433376," ""- N/A -   """
8.98,273.017,0.01507221, NaN, NaN, NaN,0.0433376," ""- N/A -   """
8.99,273.37,0.0150861, NaN, NaN, NaN,0.0445584," ""- N/A -   """
9,273.606,0.0151028, NaN, NaN, NaN,0.04577916," ""- N/A -   """
9.01,274.0774,0.0151166, NaN, NaN, NaN,0.04577916," ""- N/A -   """
9.02,274.431,0.0151361, NaN, NaN, NaN,0.04577916," ""- N/A -   """
9.03,274.667,0.0151527, NaN, NaN, NaN,0.0445584," ""- N/A -   """
9.04,275.138,0.0151694, NaN, NaN, NaN,0.0445584," ""- N/A -   """
9.05,275.4913,0.0151888, NaN, NaN, NaN,0.0433376," ""- N/A -   """
9.06,275.8448,0.0152055, NaN, NaN, NaN,0.0433376," ""- N/A -   """
9.07,276.198,0.01522493, NaN, NaN, NaN,0.04211683," ""- N/A -   """
9.08,276.67,0.01524159, NaN, NaN, NaN,0.04211683," ""- N/A -   """
9.09,277.023,0.015261, NaN, NaN, NaN,0.04089605," ""- N/A -   """
9.1,277.377,0.0152832, NaN, NaN, NaN,0.0396753," ""- N/A -   """
9.11,277.8478,0.0152999, NaN, NaN, NaN,0.0384545," ""- N/A -   """
9.12,278.2013,0.01531934, NaN, NaN, NaN,0.0372337," ""- N/A -   """
9.13,278.6726,0.0153388, NaN, NaN, NaN,0.03601294," ""- N/A -   """
9.14,279.0261,0.0153582, NaN, NaN, NaN,0.0347922," ""- N/A -   """
9.15,279.38,0.0153749, NaN, NaN, NaN,0.0347922," ""- N/A -   """
9.16,279.733,0.0153943, NaN, NaN, NaN,0.0335714," ""- N/A -   """
9.17,280.087,0.015411, NaN, NaN, NaN,0.0335714," ""- N/A -   """
9.18,280.44,0.0154276, NaN, NaN, NaN,0.0335714," ""- N/A -   """
9.19,280.7935,0.0154443, NaN, NaN, NaN,0.0335714," ""- N/A -   """
9.2,281.0291,0.01546373, NaN, NaN, NaN,0.0335714," ""- N/A -   """
9.21,281.5,0.0154804, NaN, NaN, NaN,0.0323506," ""- N/A -   """
9.22,281.736,0.0154971, NaN, NaN, NaN,0.0323506," ""- N/A -   """
9.23,282.207,0.0155137, NaN, NaN, NaN,0.0323506," ""- N/A -   """
9.24,282.325,0.0155304, NaN, NaN, NaN,0.0323506," ""- N/A -   """
9.25,282.7965,0.015547, NaN, NaN, NaN,0.0323506," ""- N/A -   """
9.26,283.15,0.0155637, NaN, NaN, NaN,0.0323506," ""- N/A -   """
9.27,283.6213,0.0155804, NaN, NaN, NaN,0.0323506," ""- N/A -   """
9.28,283.857,0.0155998, NaN, NaN, NaN,0.0323506," ""- N/A -   """
9.29,284.328,0.0156165, NaN, NaN, NaN,0.0323506," ""- N/A -   """
9.3,284.5639,0.0156331, NaN, NaN, NaN,0.0323506," ""- N/A -   """
9.31,284.917,0.015647, NaN, NaN, NaN,0.0323506," ""- N/A -   """
9.32,285.271,0.0156637, NaN, NaN, NaN,0.0323506," ""- N/A -   """
9.33,285.5065,0.0156803, NaN, NaN, NaN,0.0323506," ""- N/A -   """
9.34,285.86,0.015697, NaN, NaN, NaN,0.0323506," ""- N/A -   """
9.35,286.3313,0.0157164, NaN, NaN, NaN,0.03112983," ""- N/A -   """
9.36,286.8026,0.0157359, NaN, NaN, NaN,0.03112983," ""- N/A -   """
9.37,287.038,0.0157525, NaN, NaN, NaN,0.0299091," ""- N/A -   """
9.38,287.51,0.01577195, NaN, NaN, NaN,0.0299091," ""- N/A -   """
9.39,287.863,0.0157886, NaN, NaN, NaN,0.0299091," ""- N/A -   """
9.4,288.217,0.0158053, NaN, NaN, NaN,0.0299091," ""- N/A -   """
9.41,288.57,0.0158219, NaN, NaN, NaN,0.0286883," ""- N/A -   """
9.42,288.9235,0.0158386, NaN, NaN, NaN,0.0286883," ""- N/A -   """
9.43,289.277,0.0158553, NaN, NaN, NaN,0.0286883," ""- N/A -   """
9.44,289.5126,0.0158719, NaN, NaN, NaN,0.0286883," ""- N/A -   """
9.45,289.8661,0.0158886, NaN, NaN, NaN,0.0286883," ""- N/A -   """
9.46,290.22,0.0159025, NaN, NaN, NaN,0.0299091," ""- N/A -   """
9.47,290.4552,0.01591912, NaN, NaN, NaN,0.0299091," ""- N/A -   """
9.48,290.8087,0.015933, NaN, NaN, NaN,0.03112983," ""- N/A -   """
9.49,291.044,0.0159497, NaN, NaN, NaN,0.0323506," ""- N/A -   """
9.5,291.398,0.01596077, NaN, NaN, NaN,0.0335714," ""- N/A -   """
9.51,291.516,0.0159747, NaN, NaN, NaN,0.0347922," ""- N/A -   """
9.52,291.8691,0.0159885, NaN, NaN, NaN,0.03601294," ""- N/A -   """
9.53,292.105,0.0159996, NaN, NaN, NaN,0.0384545," ""- N/A -   """
9.54,292.34,0.0160135, NaN, NaN, NaN,0.0396753," ""- N/A -   """
9.55,292.6939,0.0160246, NaN, NaN, NaN,0.04211683," ""- N/A -   """
9.56,292.812,0.0160385, NaN, NaN, NaN,0.0433376," ""- N/A -   """
9.57,293.283,0.0160552, NaN, NaN, NaN,0.0445584," ""- N/A -   """
9.58,293.401,0.0160691, NaN, NaN, NaN,0.0445584," ""- N/A -   """
9.59,293.872,0.0160857, NaN, NaN, NaN,0.0445584," ""- N/A -   """
9.6,294.226,0.0161024, NaN, NaN, NaN,0.04577916," ""- N/A -   """
9.61,294.4613,0.016119, NaN, NaN, NaN,0.04577916," ""- N/A -   """
9.62,294.9326,0.0161357, NaN, NaN, NaN,0.04577916," ""- N/A -   """
9.63,295.2861,0.0161524, NaN, NaN, NaN,0.0445584," ""- N/A -   """
9.64,295.6396,0.016169, NaN, NaN, NaN,0.0445584," ""- N/A -   """
9.65,296.111,0.0161857, NaN, NaN, NaN,0.0445584," ""- N/A -   """
9.66,296.2287,0.0162023, NaN, NaN, NaN,0.04577916," ""- N/A -   """
9.67,296.7,0.016219, NaN, NaN, NaN,0.0445584," ""- N/A -   """
9.68,297.0535,0.0162384, NaN, NaN, NaN,0.0433376," ""- N/A -   """
9.71,298.35,0.01629398, NaN, NaN, NaN,0.04089605," ""- N/A -   """
9.74,299.528,0.0163495, NaN, NaN, NaN,0.0396753," ""- N/A -   """
9.77,300.588,0.0164023, NaN, NaN, NaN,0.0384545," ""- N/A -   """
9.8,301.7665,0.01645781, NaN, NaN, NaN,0.03601294," ""- N/A -   """
9.83,302.709,0.016505, NaN, NaN, NaN,0.03601294," ""- N/A -   """
9.86,303.77,0.0165522, NaN, NaN, NaN,0.0372337," ""- N/A -   """
9.89,304.83,0.0166078, NaN, NaN, NaN,0.03601294," ""- N/A -   """
9.92,306.008,0.0166633, NaN, NaN, NaN,0.0323506," ""- N/A -   """
9.95,307.187,0.016716, NaN, NaN, NaN,0.03112983," ""- N/A -   """
9.98,308.129,0.016766, NaN, NaN, NaN,0.03112983," ""- N/A -   """
10.01,309.19,0.0168188, NaN, NaN, NaN,0.03112983," ""- N/A -   """
10.04,310.25,0.016866, NaN, NaN, NaN,0.03112983," ""- N/A -   """
10.07,311.1926,0.0169132, NaN, NaN, NaN,0.0323506," ""- N/A -   """
10.1,312.253,0.0169632, NaN, NaN, NaN,0.0323506," ""- N/A -   """
10.13,313.313,0.0170076, NaN, NaN, NaN,0.0347922," ""- N/A -   """
10.16,314.02,0.01705481, NaN, NaN, NaN,0.03601294," ""- N/A -   """
10.19,315.081,0.0170992, NaN, NaN, NaN,0.0384545," ""- N/A -   """
10.22,315.906,0.0171437, NaN, NaN, NaN,0.04211683," ""- N/A -   """
10.25,316.966,0.0171936, NaN, NaN, NaN,0.04211683," ""- N/A -   """
10.28,317.9087,0.0172381, NaN, NaN, NaN,0.0433376," ""- N/A -   """
10.31,318.969,0.01728528, NaN, NaN, NaN,0.0445584," ""- N/A -   """
10.34,320.03,0.0173353, NaN, NaN, NaN,0.0445584," ""- N/A -   """
10.37,321.09,0.0173852, NaN, NaN, NaN,0.0445584," ""- N/A -   """
10.4,322.15,0.017438, NaN, NaN, NaN,0.0433376," ""- N/A -   """
10.43,323.3287,0.01749076, NaN, NaN, NaN,0.04211683," ""- N/A -   """
10.46,324.507,0.0175491, NaN, NaN, NaN,0.0384545," ""- N/A -   """
[...]
18.08,612.5011,0.030261, NaN, NaN, NaN,0.0335714," ""- N/A -   """
18.11,613.566,0.0303082, NaN, NaN, NaN,0.03601294," ""- N/A -   """
18.14,614.985,0.0303582, NaN, NaN, NaN,0.0347922," ""- N/A -   """
18.17,615.9312,0.0304054, NaN, NaN, NaN,0.03601294," ""- N/A -   """
18.2,617.2323,0.0304582, NaN, NaN, NaN,0.03601294," ""- N/A -   """
18.23,618.5334,0.0305082, NaN, NaN, NaN,0.0347922," ""- N/A -   """
18.26,619.8345,0.0305609, NaN, NaN, NaN,0.0335714," ""- N/A -   """
18.29,620.899,0.0306081, NaN, NaN, NaN,0.0347922," ""- N/A -   """
18.32,622.082,0.0306581, NaN, NaN, NaN,0.0347922," ""- N/A -   """
18.35,623.146,0.0307053, NaN, NaN, NaN,0.0372337," ""- N/A -   """
18.38,624.0926,0.030747, NaN, NaN, NaN,0.04089605," ""- N/A -   """
18.41,625.1571,0.0307886, NaN, NaN, NaN,0.0433376," ""- N/A -   """
18.44,626.4582,0.0308414, NaN, NaN, NaN,0.0433376," ""- N/A -   """
18.47,627.878,0.0308969, NaN, NaN, NaN,0.0396753," ""- N/A -   """
18.5,629.179,0.0309497, NaN, NaN, NaN,0.0396753," ""- N/A -   """
18.53,630.2432,0.0309969, NaN, NaN, NaN,0.0396753," ""- N/A -   """
18.56,631.544,0.0310496, NaN, NaN, NaN,0.0384545," ""- N/A -   """
18.59,632.7271,0.0310996, NaN, NaN, NaN,0.0384545," ""- N/A -   """
18.62,633.9099,0.0311496, NaN, NaN, NaN,0.0384545," ""- N/A -   """
18.65,635.3293,0.0312024, NaN, NaN, NaN,0.0372337," ""- N/A -   """
18.68,636.3938,0.0312523, NaN, NaN, NaN,0.0372337," ""- N/A -   """
18.71,637.577,0.0313051, NaN, NaN, NaN,0.03601294," ""- N/A -   """
18.74,638.6411,0.0313523, NaN, NaN, NaN,0.0372337," ""- N/A -   """
18.77,640.061,0.0314051, NaN, NaN, NaN,0.03601294," ""- N/A -   """
18.8,641.48,0.0314606, NaN, NaN, NaN,0.0335714," ""- N/A -   """
18.83,642.781,0.03151336, NaN, NaN, NaN,0.0323506," ""- N/A -   """
18.86,643.964,0.0315633, NaN, NaN, NaN,0.0323506," ""- N/A -   """
18.89,645.3832,0.0316189, NaN, NaN, NaN,0.0299091," ""- N/A -   """
18.92,646.5659,0.0316716, NaN, NaN, NaN,0.0286883," ""- N/A -   """
18.95,647.63,0.03171606, NaN, NaN, NaN,0.03112983," ""- N/A -   """
18.98,648.8133,0.031766, NaN, NaN, NaN,0.03112983," ""- N/A -   """
19.01,649.9961,0.0318188, NaN, NaN, NaN,0.03112983," ""- N/A -   """
19.04,651.2972,0.0318688, NaN, NaN, NaN,0.0299091," ""- N/A -   """
19.07,652.48,0.03191321, NaN, NaN, NaN,0.0335714," ""- N/A -   """
19.1,653.308,0.0319521, NaN, NaN, NaN,0.0372337," ""- N/A -   """
19.13,654.3725,0.0319937, NaN, NaN, NaN,0.04089605," ""- N/A -   """
19.16,655.3187,0.0320382, NaN, NaN, NaN,0.0433376," ""- N/A -   """
19.19,656.6198,0.0320881, NaN, NaN, NaN,0.0433376," ""- N/A -   """
19.22,657.6843,0.0321381, NaN, NaN, NaN,0.0445584," ""- N/A -   """
19.25,658.9855,0.0321826, NaN, NaN, NaN,0.04577916," ""- N/A -   """
19.28,660.1682,0.0322325, NaN, NaN, NaN,0.04577916," ""- N/A -   """
19.31,661.588,0.0322853, NaN, NaN, NaN,0.0445584," ""- N/A -   """
19.34,662.8887,0.03234083, NaN, NaN, NaN,0.04211683," ""- N/A -   """
19.37,664.4264,0.03240192, NaN, NaN, NaN,0.0372337," ""- N/A -   """
19.4,665.8457,0.0324575, NaN, NaN, NaN,0.03601294," ""- N/A -   """
19.43,667.029,0.0325074, NaN, NaN, NaN,0.0347922," ""- N/A -   """
19.46,668.3296,0.0325602, NaN, NaN, NaN,0.0347922," ""- N/A -   """
19.49,669.631,0.03261295, NaN, NaN, NaN,0.0335714," ""- N/A -   """
19.52,671.05,0.0326657, NaN, NaN, NaN,0.0323506," ""- N/A -   """
19.55,672.1146,0.0327157, NaN, NaN, NaN,0.03112983," ""- N/A -   """
19.58,673.534,0.03276845, NaN, NaN, NaN,0.03112983," ""- N/A -   """
19.61,674.8351,0.03281843, NaN, NaN, NaN,0.0299091," ""- N/A -   """
19.64,676.0179,0.0328684, NaN, NaN, NaN,0.0299091," ""- N/A -   """
19.67,677.0824,0.03291562, NaN, NaN, NaN,0.03112983," ""- N/A -   """
19.7,678.3835,0.03296282, NaN, NaN, NaN,0.0323506," ""- N/A -   """
19.73,679.448,0.03300725, NaN, NaN, NaN,0.03601294," ""- N/A -   """
19.76,680.276,0.0330489, NaN, NaN, NaN,0.0384545," ""- N/A -   """
19.79,681.3405,0.03309333, NaN, NaN, NaN,0.04089605," ""- N/A -   """
19.82,682.4051,0.033135, NaN, NaN, NaN,0.0445584," ""- N/A -   """
19.85,683.5878,0.0331822, NaN, NaN, NaN,0.04699994," ""- N/A -   """
19.88,684.7707,0.0332322, NaN, NaN, NaN,0.04577916," ""- N/A -   """
19.91,686.19,0.0332849, NaN, NaN, NaN,0.0445584," ""- N/A -   """
19.94,687.609,0.03334046, NaN, NaN, NaN,0.0433376," ""- N/A -   """
19.97,689.029,0.033396, NaN, NaN, NaN,0.04089605," ""- N/A -   """
20,690.3299,0.0334488, NaN, NaN, NaN,0.0384545," ""- N/A -   """
20.03,691.6309,0.03350151, NaN, NaN, NaN,0.0384545," ""- N/A -   """
20.06,693.05,0.0335598, NaN, NaN, NaN,0.0347922," ""- N/A -   """
20.09,694.47,0.0336126, NaN, NaN, NaN,0.0335714," ""- N/A -   """
20.12,695.7708,0.0336626, NaN, NaN, NaN,0.0323506," ""- N/A -   """
20.15,697.072,0.0337209, NaN, NaN, NaN,0.0299091," ""- N/A -   """
20.18,698.4913,0.0337736, NaN, NaN, NaN,0.0286883," ""- N/A -   """
20.21,699.5557,0.0338208, NaN, NaN, NaN,0.0286883," ""- N/A -   """
20.24,700.8569,0.0338736, NaN, NaN, NaN,0.0286883," ""- N/A -   """
20.27,702.2762,0.0339264, NaN, NaN, NaN,0.0262467," ""- N/A -   """
20.3,703.341,0.03397356, NaN, NaN, NaN,0.0274675," ""- N/A -   """
20.33,704.642,0.0340208, NaN, NaN, NaN,0.0286883," ""- N/A -   """
20.36,705.7064,0.0340652, NaN, NaN, NaN,0.03112983," ""- N/A -   """
20.39,706.6526,0.0341068, NaN, NaN, NaN,0.0347922," ""- N/A -   """
20.42,707.7171,0.0341485, NaN, NaN, NaN,0.0384545," ""- N/A -   """
20.45,708.6634,0.0341929, NaN, NaN, NaN,0.04089605," ""- N/A -   """
20.48,709.9645,0.03423735, NaN, NaN, NaN,0.0433376," ""- N/A -   """
20.51,711.1473,0.0342846, NaN, NaN, NaN,0.0445584," ""- N/A -   """
20.54,712.3301,0.03433454, NaN, NaN, NaN,0.04577916," ""- N/A -   """
20.57,713.6312,0.03438452, NaN, NaN, NaN,0.0445584," ""- N/A -   """
20.6,714.932,0.0344317, NaN, NaN, NaN,0.04577916," ""- N/A -   """
20.63,716.1151,0.0344845, NaN, NaN, NaN,0.04577916," ""- N/A -   """
20.66,717.5344,0.03454002, NaN, NaN, NaN,0.04211683," ""- N/A -   """
20.69,718.8356,0.0345928, NaN, NaN, NaN,0.04089605," ""- N/A -   """
20.72,720.491,0.0346511, NaN, NaN, NaN,0.0384545," ""- N/A -   """
20.75,722.0291,0.0347122, NaN, NaN, NaN,0.0323506," ""- N/A -   """
20.78,723.3302,0.03476771, NaN, NaN, NaN,0.03112983," ""- N/A -   """
20.81,724.6313,0.0348177, NaN, NaN, NaN,0.0299091," ""- N/A -   """
20.84,726.051,0.03487323, NaN, NaN, NaN,0.0286883," ""- N/A -   """
20.87,727.115,0.03492043, NaN, NaN, NaN,0.0286883," ""- N/A -   """
20.9,728.298,0.0349676, NaN, NaN, NaN,0.03112983," ""- N/A -   """
20.93,729.481,0.0350121, NaN, NaN, NaN,0.0323506," ""- N/A -   """
20.96,730.545,0.03505927, NaN, NaN, NaN,0.0335714," ""- N/A -   """
20.99,731.846,0.0351037, NaN, NaN, NaN,0.03601294," ""- N/A -   """
21.02,733.029,0.03515368, NaN, NaN, NaN,0.0372337," ""- N/A -   """
21.05,734.2121,0.0351981, NaN, NaN, NaN,0.0384545," ""- N/A -   """
21.08,735.395,0.03524809, NaN, NaN, NaN,0.0384545," ""- N/A -   """
21.11,736.5777,0.03529807, NaN, NaN, NaN,0.0396753," ""- N/A -   """
21.14,737.7605,0.0353425, NaN, NaN, NaN,0.04089605," ""- N/A -   """
21.17,738.943,0.0353897, NaN, NaN, NaN,0.04211683," ""- N/A -   """
21.2,740.2444,0.03543691, NaN, NaN, NaN,0.0433376," ""- N/A -   """
21.23,741.4272,0.03548689, NaN, NaN, NaN,0.0445584," ""- N/A -   """
21.26,742.7283,0.03553965, NaN, NaN, NaN,0.04211683," ""- N/A -   """
21.29,744.266,0.0355952, NaN, NaN, NaN,0.0396753," ""- N/A -   """
21.32,745.6853,0.0356535, NaN, NaN, NaN,0.0372337," ""- N/A -   """
21.35,746.9864,0.03570903, NaN, NaN, NaN,0.0335714," ""- N/A -   """
21.38,748.524,0.03576179, NaN, NaN, NaN,0.0323506," ""- N/A -   """
21.41,749.9434,0.0358173, NaN, NaN, NaN,0.0299091," ""- N/A -   """
21.44,751.2445,0.0358701, NaN, NaN, NaN,0.0286883," ""- N/A -   """
21.47,752.3091,0.03591451, NaN, NaN, NaN,0.03112983," ""- N/A -   """
21.5,753.4918,0.03595894, NaN, NaN, NaN,0.0335714," ""- N/A -   """
21.53,754.6746,0.0360061, NaN, NaN, NaN,0.03601294," ""- N/A -   """
21.56,755.7392,0.0360506, NaN, NaN, NaN,0.0372337," ""- N/A -   """
21.59,757.1585,0.03610333, NaN, NaN, NaN,0.0372337," ""- N/A -   """
21.62,758.46,0.03616164, NaN, NaN, NaN,0.0335714," ""- N/A -   """
21.65,759.9973,0.0362172, NaN, NaN, NaN,0.03112983," ""- N/A -   """
21.68,761.298,0.0362699, NaN, NaN, NaN,0.03112983," ""- N/A -   """
21.71,762.481,0.03631436, NaN, NaN, NaN,0.0323506," ""- N/A -   """
21.74,763.664,0.0363643, NaN, NaN, NaN,0.0323506," ""- N/A -   """
21.77,764.965,0.03641155, NaN, NaN, NaN,0.0335714," ""- N/A -   """
21.8,765.9113,0.0364532, NaN, NaN, NaN,0.0384545," ""- N/A -   """
21.83,766.858,0.03649485, NaN, NaN, NaN,0.04089605," ""- N/A -   """
21.86,768.0404,0.0365421, NaN, NaN, NaN,0.04211683," ""- N/A -   """
21.89,769.341,0.036592, NaN, NaN, NaN,0.04211683," ""- N/A -   """
21.92,770.6426,0.03663924, NaN, NaN, NaN,0.0433376," ""- N/A -   """
21.95,771.944,0.0366892, NaN, NaN, NaN,0.0433376," ""- N/A -   """
21.98,773.245,0.036742, NaN, NaN, NaN,0.0433376," ""- N/A -   """
22.01,774.546,0.0367975, NaN, NaN, NaN,0.0396753," ""- N/A -   """
22.04,776.0835,0.0368531, NaN, NaN, NaN,0.0372337," ""- N/A -   """
22.07,777.3845,0.03690581, NaN, NaN, NaN,0.03601294," ""- N/A -   """
22.1,778.686,0.036953, NaN, NaN, NaN,0.0372337," ""- N/A -   """
22.13,779.868,0.037003, NaN, NaN, NaN,0.0372337," ""- N/A -   """
22.16,781.17,0.0370558, NaN, NaN, NaN,0.0372337," ""- N/A -   """
22.19,782.5889,0.0371057, NaN, NaN, NaN,0.03601294," ""- N/A -   """
22.22,783.89,0.0371585, NaN, NaN, NaN,0.03601294," ""- N/A -   """
22.25,785.1911,0.0372085, NaN, NaN, NaN,0.0347922," ""- N/A -   """
22.28,786.3739,0.0372612, NaN, NaN, NaN,0.0347922," ""- N/A -   """
22.31,787.675,0.03731399, NaN, NaN, NaN,0.0335714," ""- N/A -   """
22.34,788.858,0.0373584, NaN, NaN, NaN,0.0347922," ""- N/A -   """
22.37,790.0406,0.0374056, NaN, NaN, NaN,0.03601294," ""- N/A -   """
22.4,791.2234,0.0374556, NaN, NaN, NaN,0.03601294," ""- N/A -   """
22.43,792.643,0.03750559, NaN, NaN, NaN,0.0372337," ""- N/A -   """
22.46,793.826,0.0375583, NaN, NaN, NaN,0.0347922," ""- N/A -   """
22.49,795.1267,0.03760833, NaN, NaN, NaN,0.03601294," ""- N/A -   """
22.52,796.191,0.0376528, NaN, NaN, NaN,0.0384545," ""- N/A -   """
22.55,797.374,0.03769996, NaN, NaN, NaN,0.0396753," ""- N/A -   """
22.58,798.439,0.0377444, NaN, NaN, NaN,0.04089605," ""- N/A -   """
22.61,799.6214,0.0377916, NaN, NaN, NaN,0.04211683," ""- N/A -   """
22.64,800.804,0.0378416, NaN, NaN, NaN,0.04211683," ""- N/A -   """
22.67,802.2236,0.0378916, NaN, NaN, NaN,0.04211683," ""- N/A -   """
22.7,803.5246,0.0379415, NaN, NaN, NaN,0.04211683," ""- N/A -   """
22.73,804.944,0.03799707, NaN, NaN, NaN,0.04089605," ""- N/A -   """
22.76,806.363,0.0380554, NaN, NaN, NaN,0.0372337," ""- N/A -   """
22.79,807.901,0.03811092, NaN, NaN, NaN,0.0335714," ""- N/A -   """
22.82,809.2021,0.0381665, NaN, NaN, NaN,0.0323506," ""- N/A -   """
22.85,810.503,0.03821644, NaN, NaN, NaN,0.0323506," ""- N/A -   """
22.88,811.686,0.03826364, NaN, NaN, NaN,0.0323506," ""- N/A -   """
22.91,812.751,0.03830807, NaN, NaN, NaN,0.0347922," ""- N/A -   """
22.94,813.933,0.03835805, NaN, NaN, NaN,0.0347922," ""- N/A -   """
22.97,815.3527,0.03841081, NaN, NaN, NaN,0.0335714," ""- N/A -   """
23,816.772,0.0384663, NaN, NaN, NaN,0.0323506," ""- N/A -   """
23.03,818.0732,0.0385191, NaN, NaN, NaN,0.03112983," ""- N/A -   """
23.06,819.6108,0.03857186, NaN, NaN, NaN,0.0286883," ""- N/A -   """
23.09,820.794,0.0386218, NaN, NaN, NaN,0.0286883," ""- N/A -   """
23.12,821.858,0.0386663, NaN, NaN, NaN,0.03112983," ""- N/A -   """
23.15,822.9227,0.0387135, NaN, NaN, NaN,0.0335714," ""- N/A -   """
23.18,823.869,0.03875235, NaN, NaN, NaN,0.0372337," ""- N/A -   """
23.21,824.9334,0.038794, NaN, NaN, NaN,0.04089605," ""- N/A -   """
23.24,825.8797,0.0388357, NaN, NaN, NaN,0.0445584," ""- N/A -   """
23.27,827.0625,0.0388829, NaN, NaN, NaN,0.04577916," ""- N/A -   """
23.3,828.245,0.0389273, NaN, NaN, NaN,0.0482207," ""- N/A -   """
23.33,829.6647,0.0389773, NaN, NaN, NaN,0.0482207," ""- N/A -   """
23.36,831.0841,0.03903558, NaN, NaN, NaN,0.04577916," ""- N/A -   """
23.39,832.6217,0.0390967, NaN, NaN, NaN,0.04089605," ""- N/A -   """
23.42,834.159,0.03915498, NaN, NaN, NaN,0.03601294," ""- N/A -   """
23.45,835.5787,0.0392105, NaN, NaN, NaN,0.0335714," ""- N/A -   """
23.48,836.8798,0.0392605, NaN, NaN, NaN,0.0335714," ""- N/A -   """
23.51,837.944,0.0393077, NaN, NaN, NaN,0.0347922," ""- N/A -   """
23.54,839.2454,0.0393577, NaN, NaN, NaN,0.03601294," ""- N/A -   """
23.57,840.6648,0.0394132, NaN, NaN, NaN,0.0323506," ""- N/A -   """
23.6,842.084,0.03946598, NaN, NaN, NaN,0.03112983," ""- N/A -   """
23.63,843.385,0.0395187, NaN, NaN, NaN,0.03112983," ""- N/A -   """
23.66,844.568,0.0395687, NaN, NaN, NaN,0.0299091," ""- N/A -   """
23.69,845.869,0.0396215, NaN, NaN, NaN,0.0299091," ""- N/A -   """
23.72,847.052,0.0396659, NaN, NaN, NaN,0.03112983," ""- N/A -   """
23.75,848.116,0.03971033, NaN, NaN, NaN,0.0335714," ""- N/A -   """
23.78,849.181,0.039752, NaN, NaN, NaN,0.0384545," ""- N/A -   """
23.81,850.127,0.03979641, NaN, NaN, NaN,0.04089605," ""- N/A -   """
23.84,851.3101,0.03983806, NaN, NaN, NaN,0.0433376," ""- N/A -   """
23.87,852.375,0.0398853, NaN, NaN, NaN,0.0445584," ""- N/A -   """
23.9,853.794,0.03993802, NaN, NaN, NaN,0.0433376," ""- N/A -   """
23.93,854.9768,0.039988, NaN, NaN, NaN,0.0433376," ""- N/A -   """
23.96,856.3961,0.04004076, NaN, NaN, NaN,0.04211683," ""- N/A -   """
23.99,857.816,0.0400907, NaN, NaN, NaN,0.04211683," ""- N/A -   """
24.02,858.9983,0.0401435, NaN, NaN, NaN,0.04211683," ""- N/A -   """
24.05,860.4177,0.0401963, NaN, NaN, NaN,0.0396753," ""- N/A -   """
24.08,861.7188,0.04024902, NaN, NaN, NaN,0.0384545," ""- N/A -   """
24.11,863.2565,0.0403046, NaN, NaN, NaN,0.03601294," ""- N/A -   """
24.14,864.7941,0.0403629, NaN, NaN, NaN,0.0323506," ""- N/A -   """
24.17,866.213,0.0404212, NaN, NaN, NaN,0.0286883," ""- N/A -   """
24.2,867.5146,0.0404739, NaN, NaN, NaN,0.0274675," ""- N/A -   """
24.23,868.8156,0.0405239, NaN, NaN, NaN,0.0274675," ""- N/A -   """
24.26,869.9985,0.0405739, NaN, NaN, NaN,0.0286883," ""- N/A -   """
24.29,871.1813,0.0406211, NaN, NaN, NaN,0.0299091," ""- N/A -   """
24.32,872.3641,0.0406655, NaN, NaN, NaN,0.03112983," ""- N/A -   """
24.35,873.5469,0.0407127, NaN, NaN, NaN,0.0335714," ""- N/A -   """
24.38,874.73,0.0407572, NaN, NaN, NaN,0.0347922," ""- N/A -   """
24.41,876.031,0.0408071, NaN, NaN, NaN,0.03601294," ""- N/A -   """
24.44,877.214,0.0408571, NaN, NaN, NaN,0.0347922," ""- N/A -   """
24.47,878.5147,0.0409099, NaN, NaN, NaN,0.0347922," ""- N/A -   """
24.5,879.9341,0.04095987, NaN, NaN, NaN,0.0335714," ""- N/A -   """
24.53,880.8803,0.0410015, NaN, NaN, NaN,0.0372337," ""- N/A -   """
24.56,881.827,0.04104317, NaN, NaN, NaN,0.04089605," ""- N/A -   """
24.59,883.1276,0.0410904, NaN, NaN, NaN,0.04211683," ""- N/A -   """
24.62,884.3104,0.0411376, NaN, NaN, NaN,0.0433376," ""- N/A -   """
24.65,885.4933,0.0411848, NaN, NaN, NaN,0.0445584," ""- N/A -   """
24.68,886.676,0.04123199, NaN, NaN, NaN,0.04577916," ""- N/A -   """
24.71,888.095,0.04128197, NaN, NaN, NaN,0.04577916," ""- N/A -   """
24.74,889.751,0.04134584, NaN, NaN, NaN,0.0396753," ""- N/A -   """
24.77,891.289,0.04140415, NaN, NaN, NaN,0.03601294," ""- N/A -   """
24.8,892.7084,0.04145968, NaN, NaN, NaN,0.0335714," ""- N/A -   """
24.83,894.246,0.0415152, NaN, NaN, NaN,0.03112983," ""- N/A -   """
24.86,895.311,0.0415652, NaN, NaN, NaN,0.03112983," ""- N/A -   """
24.89,896.3751,0.04160685, NaN, NaN, NaN,0.0347922," ""- N/A -   """
24.92,897.4396,0.0416541, NaN, NaN, NaN,0.03601294," ""- N/A -   """
24.95,898.622,0.04170126, NaN, NaN, NaN,0.0384545," ""- N/A -   """
24.98,899.9235,0.0417485, NaN, NaN, NaN,0.0396753," ""- N/A -   """
25.01,901.4612,0.041804, NaN, NaN, NaN,0.03601294," ""- N/A -   """
25.04,902.8805,0.0418623, NaN, NaN, NaN,0.0335714," ""- N/A -   """
25.07,904.2999,0.04191785, NaN, NaN, NaN,0.0299091," ""- N/A -   """
25.1,905.601,0.0419678, NaN, NaN, NaN,0.0299091," ""- N/A -   """
25.13,906.6655,0.0420123, NaN, NaN, NaN,0.0323506," ""- N/A -   """
25.16,907.8483,0.0420567, NaN, NaN, NaN,0.0347922," ""- N/A -   """
25.19,908.9129,0.04210111, NaN, NaN, NaN,0.0372337," ""- N/A -   """
25.22,909.977,0.0421455, NaN, NaN, NaN,0.0396753," ""- N/A -   """
25.25,911.16,0.0421927, NaN, NaN, NaN,0.04211683," ""- N/A -   """
25.28,912.4613,0.0422427, NaN, NaN, NaN,0.04089605," ""- N/A -   """
25.31,913.7623,0.0422955, NaN, NaN, NaN,0.0396753," ""- N/A -   """
25.34,915.0635,0.0423455, NaN, NaN, NaN,0.0396753," ""- N/A -   """
25.37,916.3645,0.04239545, NaN, NaN, NaN,0.04089605," ""- N/A -   """
25.4,917.784,0.04244543, NaN, NaN, NaN,0.0396753," ""- N/A -   """
25.43,919.085,0.042501, NaN, NaN, NaN,0.0384545," ""- N/A -   """
25.46,920.5044,0.0425537, NaN, NaN, NaN,0.0372337," ""- N/A -   """
25.49,921.8055,0.0426037, NaN, NaN, NaN,0.03601294," ""- N/A -   """
25.52,923.225,0.0426565, NaN, NaN, NaN,0.03601294," ""- N/A -   """
25.55,924.2894,0.0427064, NaN, NaN, NaN,0.03601294," ""- N/A -   """
25.58,925.709,0.0427592, NaN, NaN, NaN,0.0347922," ""- N/A -   """
25.61,927.1281,0.0428147, NaN, NaN, NaN,0.03112983," ""- N/A -   """
25.64,928.5475,0.0428675, NaN, NaN, NaN,0.0299091," ""- N/A -   """
25.67,929.8486,0.0429175, NaN, NaN, NaN,0.0299091," ""- N/A -   """
25.7,931.0314,0.04296746, NaN, NaN, NaN,0.03112983," ""- N/A -   """
25.73,932.214,0.0430119, NaN, NaN, NaN,0.0323506," ""- N/A -   """
25.76,933.515,0.0430619, NaN, NaN, NaN,0.0323506," ""- N/A -   """
25.79,934.8164,0.04311185, NaN, NaN, NaN,0.0323506," ""- N/A -   """
25.82,936.117,0.04316183, NaN, NaN, NaN,0.0323506," ""- N/A -   """
25.85,937.3003,0.0432146, NaN, NaN, NaN,0.0323506," ""- N/A -   """
25.88,938.6014,0.043259, NaN, NaN, NaN,0.0335714," ""- N/A -   """
25.91,939.548,0.04330067, NaN, NaN, NaN,0.0372337," ""- N/A -   """
25.94,940.7304,0.0433479, NaN, NaN, NaN,0.0396753," ""- N/A -   """
25.97,941.7949,0.04339508, NaN, NaN, NaN,0.0396753," ""- N/A -   """
26,942.9778,0.0434423, NaN, NaN, NaN,0.04211683," ""- N/A -   """
26.03,944.1605,0.04348671, NaN, NaN, NaN,0.0445584," ""- N/A -   """
26.06,945.2251,0.0435311, NaN, NaN, NaN,0.04577916," ""- N/A -   """
26.09,946.5262,0.0435783, NaN, NaN, NaN,0.04699994," ""- N/A -   """
26.12,947.946,0.04363388, NaN, NaN, NaN,0.04577916," ""- N/A -   """
26.15,949.601,0.0436922, NaN, NaN, NaN,0.04211683," ""- N/A -   """
26.18,951.139,0.0437533, NaN, NaN, NaN,0.0372337," ""- N/A -   """
26.21,952.795,0.0438116, NaN, NaN, NaN,0.0335714," ""- N/A -   """
26.24,953.978,0.04386157, NaN, NaN, NaN,0.0335714," ""- N/A -   """
26.27,955.279,0.0439116, NaN, NaN, NaN,0.0335714," ""- N/A -   """
26.3,956.4618,0.04395876, NaN, NaN, NaN,0.0347922," ""- N/A -   """
26.33,957.7628,0.044006, NaN, NaN, NaN,0.03601294," ""- N/A -   """
26.36,959.064,0.0440615, NaN, NaN, NaN,0.0347922," ""- N/A -   """
26.39,960.4833,0.044117, NaN, NaN, NaN,0.03112983," ""- N/A -   """
26.42,961.9027,0.04417257, NaN, NaN, NaN,0.0286883," ""- N/A -   """
26.45,963.322,0.0442253, NaN, NaN, NaN,0.0274675," ""- N/A -   """
26.48,964.6231,0.04427253, NaN, NaN, NaN,0.0286883," ""- N/A -   """
26.51,965.569,0.044317, NaN, NaN, NaN,0.03112983," ""- N/A -   """
26.54,966.6339,0.04435861, NaN, NaN, NaN,0.0347922," ""- N/A -   """
26.57,967.6984,0.044403, NaN, NaN, NaN,0.0384545," ""- N/A -   """
26.6,968.763,0.0444419, NaN, NaN, NaN,0.04211683," ""- N/A -   """
26.63,969.9458,0.0444863, NaN, NaN, NaN,0.0445584," ""- N/A -   """
26.66,970.892,0.0445335, NaN, NaN, NaN,0.04699994," ""- N/A -   """
26.69,972.0748,0.0445808, NaN, NaN, NaN,0.0482207," ""- N/A -   """
26.72,973.4942,0.04463351, NaN, NaN, NaN,0.04577916," ""- N/A -   """
26.75,975.032,0.0446835, NaN, NaN, NaN,0.04577916," ""- N/A -   """
26.78,976.451,0.044739, NaN, NaN, NaN,0.0433376," ""- N/A -   """
26.81,977.7523,0.0447946, NaN, NaN, NaN,0.04089605," ""- N/A -   """
26.84,979.29,0.04485287, NaN, NaN, NaN,0.0384545," ""- N/A -   """
26.843,979.527,0.0448584, NaN, NaN, NaN,0.0372337," ""- N/A -   """