File: 2_Tensile_Data/Hamel_ForceTest_Bolt3_Test6.csv
Time, Load (lb), Position (in), AxialStrain (in), TransverseStrain (in), Auxiliary (), Control Out (V), Stress (psi)
0.0, 1.41537, 0.0, NaN, NaN, NaN, 0.100714, "- N/A -   "
0.01, 1.88716, 2.49908e-05, NaN, NaN, NaN, 0.095831, "- N/A -   "
0.02, 2.35895, 4.99815e-05, NaN, NaN, NaN, 0.09338949, "- N/A -   "
0.03, 2.83074, 7.49723E-5, NaN, NaN, NaN, 0.0897272, "- N/A -   "
0.04, 3.18458, 9.99631e-05, NaN, NaN, NaN, 0.084844, "- N/A -   "
0.05, 3.65637, 0.000124954, NaN, NaN, NaN, 0.08118171, "- N/A -   "
0.06, 4.12816, 1.499446E-4, NaN, NaN, NaN, 0.07751938, "- N/A -   "
0.07, 4.59995, 0.000174935, NaN, NaN, NaN, 0.0750778, "- N/A -   "
0.08, 4.953794, 0.000199926, NaN, NaN, NaN, 0.07141549, "- N/A -   "
0.09, 5.307636, 0.00022214, NaN, NaN, NaN, 0.06775316, "- N/A -   "
0.1, 5.779426, 2.471309E-4, NaN, NaN, NaN, 0.0640908, "- N/A -   "
0.11, 6.13327, 2.721217E-4, NaN, NaN, NaN, 0.0604285, "- N/A -   "
0.12, 6.60506, 0.000294336, NaN, NaN, NaN, 0.0579869, "- N/A -   "
0.13, 7.07685, 0.000319326, NaN, NaN, NaN, 0.0543246, "- N/A -   "
0.14, 7.430691, 0.00034154, NaN, NaN, NaN, 0.05188305, "- N/A -   "
0.15, 7.90248, 3.637545E-4, NaN, NaN, NaN, 0.05066227, "- N/A -   "
0.16, 8.138375, 0.000383192, NaN, NaN, NaN, 0.0482207, "- N/A -   "
0.17, 8.492218, 0.000402629, NaN, NaN, NaN, 0.04699994, "- N/A -   "
0.18, 8.846061, 0.000422066, NaN, NaN, NaN, 0.04577916, "- N/A -   "
0.19, 9.081955, 0.000441504, NaN, NaN, NaN, 0.0445584, "- N/A -   "
0.2, 9.553744, 4.609408E-4, NaN, NaN, NaN, 0.0433376, "- N/A -   "
0.21, 9.78964, 0.000480378, NaN, NaN, NaN, 0.04211683, "- N/A -   "
0.22, 10.26143, 0.000499815, NaN, NaN, NaN, 0.04089605, "- N/A -   "
0.23, 10.4973, 5.192526E-4, NaN, NaN, NaN, 0.04089605, "- N/A -   "
0.24, 10.73322, 5.359131E-4, NaN, NaN, NaN, 0.0396753, "- N/A -   "
0.25, 11.0871, 5.525736E-4, NaN, NaN, NaN, 0.0396753, "- N/A -   "
0.26, 11.4409, 0.000569234, NaN, NaN, NaN, 0.0396753, "- N/A -   "
0.27, 11.7947, 0.000588671, NaN, NaN, NaN, 0.0384545, "- N/A -   "
0.28, 12.14859, 6.053319E-4, NaN, NaN, NaN, 0.0384545, "- N/A -   "
0.29, 12.3845, 0.000624769, NaN, NaN, NaN, 0.0372337, "- N/A -   "
0.3, 12.6204, 6.442064E-4, NaN, NaN, NaN, 0.03601294, "- N/A -   "
0.31, 13.09217, 6.636437E-4, NaN, NaN, NaN, 0.0347922, "- N/A -   "
0.32, 13.3281, 6.830809E-4, NaN, NaN, NaN, 0.0335714, "- N/A -   "
0.33, 13.6819, 7.025182E-4, NaN, NaN, NaN, 0.0323506, "- N/A -   "
0.34, 14.0357, 0.000724732, NaN, NaN, NaN, 0.03112983, "- N/A -   "
0.35, 14.3896, 7.413927E-4, NaN, NaN, NaN, 0.0299091, "- N/A -   "
0.36, 14.7434, 7.6083E-4, NaN, NaN, NaN, 0.0286883, "- N/A -   "
0.37, 14.9793, 7.774905E-4, NaN, NaN, NaN, 0.0286883, "- N/A -   "
0.38, 15.2152, 0.000791374, NaN, NaN, NaN, 0.0299091, "- N/A -   "
0.39, 15.4511, 8.080348E-4, NaN, NaN, NaN, 0.0299091, "- N/A -   "
0.4, 15.805, 0.000821919, NaN, NaN, NaN, 0.03112983, "- N/A -   "
0.41, 16.0409, 8.38579E-4, NaN, NaN, NaN, 0.03112983, "- N/A -   "
0.42, 16.27675, 8.524628E-4, NaN, NaN, NaN, 0.0323506, "- N/A -   "
0.43, 16.5126, 8.663466E-4, NaN, NaN, NaN, 0.0335714, "- N/A -   "
0.44, 16.6306, 0.00088023, NaN, NaN, NaN, 0.0347922, "- N/A -   "
0.45, 16.9844, 8.941141E-4, NaN, NaN, NaN, 0.03601294, "- N/A -   "
0.46, 17.1024, 0.000907998, NaN, NaN, NaN, 0.0372337, "- N/A -   "
0.47, 17.3383, 9.218816E-4, NaN, NaN, NaN, 0.0384545, "- N/A -   "
0.48, 17.5742, 0.000935765, NaN, NaN, NaN, 0.0396753, "- N/A -   "
0.49, 17.928, 0.000949649, NaN, NaN, NaN, 0.04089605, "- N/A -   "
0.5, 18.16391, 9.635329E-4, NaN, NaN, NaN, 0.04211683, "- N/A -   "
0.51, 18.3998, 9.774166E-4, NaN, NaN, NaN, 0.0433376, "- N/A -   "
0.52, 18.6357, 9.940772E-4, NaN, NaN, NaN, 0.0445584, "- N/A -   "
0.53, 18.8716, 0.00101074, NaN, NaN, NaN, 0.0433376, "- N/A -   "
0.54, 19.2254, 0.0010274, NaN, NaN, NaN, 0.0433376, "- N/A -   "
0.55, 19.4613, 0.001041282, NaN, NaN, NaN, 0.0445584, "- N/A -   "
0.56, 19.6972, 0.00105794, NaN, NaN, NaN, 0.0445584, "- N/A -   "
0.57, 20.05107, 0.001074603, NaN, NaN, NaN, 0.0445584, "- N/A -   "
0.58, 20.169, 0.00109126, NaN, NaN, NaN, 0.0445584, "- N/A -   "
0.59, 20.52286, 0.00110792, NaN, NaN, NaN, 0.0445584, "- N/A -   "
0.6, 20.99465, 0.00112458, NaN, NaN, NaN, 0.0445584, "- N/A -   "
0.61, 21.1126, 0.001141245, NaN, NaN, NaN, 0.0445584, "- N/A -   "
0.62, 21.46644, 0.00115791, NaN, NaN, NaN, 0.0445584, "- N/A -   "
0.63, 21.8203, 0.00117734, NaN, NaN, NaN, 0.0445584, "- N/A -   "
0.64, 22.0562, 0.001194, NaN, NaN, NaN, 0.0445584, "- N/A -   "
0.65, 22.41, 0.00121066, NaN, NaN, NaN, 0.0433376, "- N/A -   "
0.66, 22.6459, 0.0012301, NaN, NaN, NaN, 0.04211683, "- N/A -   "
0.67, 23.1177, 0.00124676, NaN, NaN, NaN, 0.04211683, "- N/A -   "
0.68, 23.4715, 0.0012662, NaN, NaN, NaN, 0.04089605, "- N/A -   "
0.69, 23.7074, 0.00128564, NaN, NaN, NaN, 0.04089605, "- N/A -   "
0.7, 24.0613, 0.0013023, NaN, NaN, NaN, 0.04089605, "- N/A -   "
0.71, 24.29718, 0.00132173, NaN, NaN, NaN, 0.0396753, "- N/A -   "
0.72, 24.65102, 0.00133562, NaN, NaN, NaN, 0.0396753, "- N/A -   "
0.73, 24.8869, 0.00135505, NaN, NaN, NaN, 0.0384545, "- N/A -   "
0.74, 25.2408, 0.00137172, NaN, NaN, NaN, 0.0384545, "- N/A -   "
0.75, 25.5946, 0.00139115, NaN, NaN, NaN, 0.0384545, "- N/A -   "
0.76, 25.8305, 0.00140781, NaN, NaN, NaN, 0.0384545, "- N/A -   "
0.77, 26.18434, 0.00142447, NaN, NaN, NaN, 0.0372337, "- N/A -   "
0.78, 26.5382, 0.00144113, NaN, NaN, NaN, 0.0372337, "- N/A -   "
0.79, 26.7741, 0.00145779, NaN, NaN, NaN, 0.0372337, "- N/A -   "
0.8, 27.1279, 0.001477232, NaN, NaN, NaN, 0.0372337, "- N/A -   "
0.81, 27.4818, 0.00149389, NaN, NaN, NaN, 0.0372337, "- N/A -   "
0.82, 27.7177, 0.001510553, NaN, NaN, NaN, 0.0372337, "- N/A -   "
0.83, 27.95355, 0.00152721, NaN, NaN, NaN, 0.03601294, "- N/A -   "
0.84, 28.3074, 0.00154665, NaN, NaN, NaN, 0.0347922, "- N/A -   "
0.85, 28.6612, 0.00156609, NaN, NaN, NaN, 0.0335714, "- N/A -   "
0.86, 29.0151, 0.00158553, NaN, NaN, NaN, 0.0323506, "- N/A -   "
0.87, 29.3689, 0.00160219, NaN, NaN, NaN, 0.0323506, "- N/A -   "
0.88, 29.7228, 0.001621623, NaN, NaN, NaN, 0.03112983, "- N/A -   "
0.89, 29.9587, 0.00163828, NaN, NaN, NaN, 0.03112983, "- N/A -   "
0.9, 30.3125, 0.00165772, NaN, NaN, NaN, 0.0299091, "- N/A -   "
0.91, 30.4304, 0.00167438, NaN, NaN, NaN, 0.03112983, "- N/A -   "
0.92, 30.9022, 0.00168827, NaN, NaN, NaN, 0.03112983, "- N/A -   "
0.93, 31.2561, 0.00170493, NaN, NaN, NaN, 0.03112983, "- N/A -   "
0.94, 31.492, 0.00172436, NaN, NaN, NaN, 0.03112983, "- N/A -   "
0.95, 31.72787, 0.00174102, NaN, NaN, NaN, 0.0299091, "- N/A -   "
0.96, 31.9638, 0.00175768, NaN, NaN, NaN, 0.0299091, "- N/A -   "
0.97, 32.4356, 0.00177434, NaN, NaN, NaN, 0.0299091, "- N/A -   "
0.98, 32.67145, 0.00179378, NaN, NaN, NaN, 0.0286883, "- N/A -   "
0.99, 33.02529, 0.00181044, NaN, NaN, NaN, 0.0286883, "- N/A -   "
1, 33.3791, 0.0018271, NaN, NaN, NaN, 0.0286883, "- N/A -   "
1.01, 33.61503, 0.00184376, NaN, NaN, NaN, 0.0286883, "- N/A -   "
1.02, 33.8509, 0.00186042, NaN, NaN, NaN, 0.0299091, "- N/A -   "
1.03, 34.2048, 0.00187708, NaN, NaN, NaN, 0.0299091, "- N/A -   "
1.04, 34.4407, 0.001890968, NaN, NaN, NaN, 0.0299091, "- N/A -   "
1.05, 34.6766, 0.00190485, NaN, NaN, NaN, 0.03112983, "- N/A -   "
1.06, 35.0304, 0.00192151, NaN, NaN, NaN, 0.03112983, "- N/A -   "
1.07, 35.1483, 0.00193262, NaN, NaN, NaN, 0.0335714, "- N/A -   "
1.08, 35.50219, 0.0019465, NaN, NaN, NaN, 0.0347922, "- N/A -   "
1.09, 35.6201, 0.00196316, NaN, NaN, NaN, 0.03601294, "- N/A -   "
1.1, 35.97398, 0.00197427, NaN, NaN, NaN, 0.0372337, "- N/A -   "
1.11, 36.2099, 0.001990931, NaN, NaN, NaN, 0.0372337, "- N/A -   "
1.12, 36.44577, 0.00200759, NaN, NaN, NaN, 0.0384545, "- N/A -   "
1.13, 36.6817, 0.00202148, NaN, NaN, NaN, 0.0396753, "- N/A -   "
1.14, 36.79961, 0.00203258, NaN, NaN, NaN, 0.04089605, "- N/A -   "
1.15, 37.2714, 0.00204924, NaN, NaN, NaN, 0.04211683, "- N/A -   "
1.16, 37.3893, 0.00206313, NaN, NaN, NaN, 0.04211683, "- N/A -   "
1.17, 37.74319, 0.00207701, NaN, NaN, NaN, 0.0433376, "- N/A -   "
1.18, 37.9791, 0.002093671, NaN, NaN, NaN, 0.0433376, "- N/A -   "
1.19, 38.3329, 0.00211033, NaN, NaN, NaN, 0.0433376, "- N/A -   "
1.2, 38.5688, 0.00212977, NaN, NaN, NaN, 0.0433376, "- N/A -   "
1.21, 39.04061, 0.00214365, NaN, NaN, NaN, 0.0433376, "- N/A -   "
1.22, 39.2765, 0.00216031, NaN, NaN, NaN, 0.0433376, "- N/A -   "
1.23, 39.6304, 0.00217975, NaN, NaN, NaN, 0.0433376, "- N/A -   "
1.24, 39.7483, 0.002193634, NaN, NaN, NaN, 0.0433376, "- N/A -   "
1.25, 40.10214, 0.002213071, NaN, NaN, NaN, 0.0433376, "- N/A -   "
1.26, 40.456, 0.002226955, NaN, NaN, NaN, 0.0433376, "- N/A -   "
1.27, 40.8098, 0.00224362, NaN, NaN, NaN, 0.0433376, "- N/A -   "
1.28, 41.04572, 0.002260276, NaN, NaN, NaN, 0.0445584, "- N/A -   "
1.29, 41.39956, 0.00227694, NaN, NaN, NaN, 0.0445584, "- N/A -   "
1.3, 41.6355, 0.00229082, NaN, NaN, NaN, 0.0445584, "- N/A -   "
1.31, 41.9893, 0.00231026, NaN, NaN, NaN, 0.0445584, "- N/A -   "
1.32, 42.3431, 0.00232414, NaN, NaN, NaN, 0.0445584, "- N/A -   "
1.33, 42.579, 0.002340802, NaN, NaN, NaN, 0.0445584, "- N/A -   "
1.34, 42.93288, 0.00235746, NaN, NaN, NaN, 0.0445584, "- N/A -   "
1.35, 43.1688, 0.00237412, NaN, NaN, NaN, 0.0445584, "- N/A -   "
1.36, 43.5226, 0.00239356, NaN, NaN, NaN, 0.0445584, "- N/A -   "
1.37, 43.75851, 0.00241022, NaN, NaN, NaN, 0.0433376, "- N/A -   "
1.38, 44.1124, 0.002429658, NaN, NaN, NaN, 0.0433376, "- N/A -   "
1.39, 44.58414, 0.00244632, NaN, NaN, NaN, 0.04211683, "- N/A -   "
1.4, 44.93799, 0.00246576, NaN, NaN, NaN, 0.04211683, "- N/A -   "
1.41, 45.29183, 0.002485193, NaN, NaN, NaN, 0.04089605, "- N/A -   "
1.42, 45.76362, 0.00250463, NaN, NaN, NaN, 0.0384545, "- N/A -   "
1.43, 45.9995, 0.00252407, NaN, NaN, NaN, 0.0372337, "- N/A -   "
1.44, 46.4713, 0.0025435, NaN, NaN, NaN, 0.03601294, "- N/A -   "
1.45, 46.8251, 0.00256572, NaN, NaN, NaN, 0.0347922, "- N/A -   "
1.46, 47.179, 0.00258516, NaN, NaN, NaN, 0.0323506, "- N/A -   "
1.47, 47.5328, 0.00260459, NaN, NaN, NaN, 0.03112983, "- N/A -   "
1.48, 47.7687, 0.00262403, NaN, NaN, NaN, 0.0299091, "- N/A -   "
1.49, 48.12257, 0.00264069, NaN, NaN, NaN, 0.0299091, "- N/A -   "
1.5, 48.47641, 0.00266013, NaN, NaN, NaN, 0.0286883, "- N/A -   "
1.51, 48.7123, 0.00267679, NaN, NaN, NaN, 0.0286883, "- N/A -   "
1.52, 49.0661, 0.00269345, NaN, NaN, NaN, 0.0286883, "- N/A -   "
1.53, 49.41999, 0.00271011, NaN, NaN, NaN, 0.0286883, "- N/A -   "
1.54, 49.6559, 0.00272677, NaN, NaN, NaN, 0.0286883, "- N/A -   "
1.55, 50.0097, 0.002743431, NaN, NaN, NaN, 0.0299091, "- N/A -   "
1.56, 50.2456, 0.00275731, NaN, NaN, NaN, 0.0299091, "- N/A -   "
1.57, 50.4815, 0.00277398, NaN, NaN, NaN, 0.0299091, "- N/A -   "
1.58, 50.83536, 0.00279064, NaN, NaN, NaN, 0.03112983, "- N/A -   "
1.59, 51.0713, 0.002807296, NaN, NaN, NaN, 0.03112983, "- N/A -   "
1.6, 51.4251, 0.00282396, NaN, NaN, NaN, 0.03112983, "- N/A -   "
1.61, 51.66099, 0.00283784, NaN, NaN, NaN, 0.03112983, "- N/A -   "
1.62, 52.01483, 0.00285172, NaN, NaN, NaN, 0.0323506, "- N/A -   "
1.63, 52.25073, 0.00286838, NaN, NaN, NaN, 0.0323506, "- N/A -   "
1.64, 52.6046, 0.00288505, NaN, NaN, NaN, 0.0323506, "- N/A -   "
1.65, 52.84047, 0.00289615, NaN, NaN, NaN, 0.0347922, "- N/A -   "
1.66, 53.19431, 0.00291281, NaN, NaN, NaN, 0.0347922, "- N/A -   "
1.67, 53.54815, 0.00292947, NaN, NaN, NaN, 0.03601294, "- N/A -   "
1.68, 53.784, 0.002943357, NaN, NaN, NaN, 0.03601294, "- N/A -   "
1.69, 54.13789, 0.00296002, NaN, NaN, NaN, 0.03601294, "- N/A -   "
1.7, 54.3738, 0.00297668, NaN, NaN, NaN, 0.03601294, "- N/A -   "
1.71, 54.6097, 0.00299334, NaN, NaN, NaN, 0.03601294, "- N/A -   "
1.72, 54.9635, 0.003009999, NaN, NaN, NaN, 0.03601294, "- N/A -   "
1.73, 55.3174, 0.00302666, NaN, NaN, NaN, 0.03601294, "- N/A -   "
1.74, 55.6712, 0.00304332, NaN, NaN, NaN, 0.03601294, "- N/A -   "
1.75, 55.9071, 0.00305998, NaN, NaN, NaN, 0.03601294, "- N/A -   "
1.76, 56.2609, 0.00307386, NaN, NaN, NaN, 0.0372337, "- N/A -   "
1.77, 56.6148, 0.0030933, NaN, NaN, NaN, 0.0372337, "- N/A -   "
1.78, 56.85068, 0.003109962, NaN, NaN, NaN, 0.03601294, "- N/A -   "
1.79, 57.20452, 0.00312662, NaN, NaN, NaN, 0.0372337, "- N/A -   "
1.8, 57.5584, 0.003143283, NaN, NaN, NaN, 0.0372337, "- N/A -   "
1.81, 57.6763, 0.003157167, NaN, NaN, NaN, 0.0372337, "- N/A -   "
1.82, 58.0302, 0.00317383, NaN, NaN, NaN, 0.0372337, "- N/A -   "
1.83, 58.384, 0.003190488, NaN, NaN, NaN, 0.0384545, "- N/A -   "
1.84, 58.5019, 0.00320437, NaN, NaN, NaN, 0.0384545, "- N/A -   "
1.85, 58.8558, 0.00321826, NaN, NaN, NaN, 0.0396753, "- N/A -   "
1.86, 59.2096, 0.003234916, NaN, NaN, NaN, 0.04089605, "- N/A -   "
1.87, 59.4455, 0.00325158, NaN, NaN, NaN, 0.04089605, "- N/A -   "
1.88, 59.79937, 0.00326546, NaN, NaN, NaN, 0.04211683, "- N/A -   "
1.89, 59.9173, 0.003279344, NaN, NaN, NaN, 0.04211683, "- N/A -   "
1.9, 60.15321, 0.00329323, NaN, NaN, NaN, 0.0433376, "- N/A -   "
1.91, 60.625, 0.003309888, NaN, NaN, NaN, 0.0433376, "- N/A -   "
1.92, 60.8609, 0.00332655, NaN, NaN, NaN, 0.0433376, "- N/A -   "
1.93, 61.2147, 0.00334043, NaN, NaN, NaN, 0.0445584, "- N/A -   "
1.94, 61.45063, 0.00335987, NaN, NaN, NaN, 0.0445584, "- N/A -   "
1.95, 61.8045, 0.00337653, NaN, NaN, NaN, 0.0445584, "- N/A -   "
1.96, 62.1583, 0.00339041, NaN, NaN, NaN, 0.0445584, "- N/A -   "
1.97, 62.3942, 0.00340707, NaN, NaN, NaN, 0.0445584, "- N/A -   "
1.98, 62.7481, 0.00342651, NaN, NaN, NaN, 0.0433376, "- N/A -   "
1.99, 63.1019, 0.00344595, NaN, NaN, NaN, 0.0433376, "- N/A -   "
2, 63.33779, 0.00346539, NaN, NaN, NaN, 0.04211683, "- N/A -   "
2.01, 63.80958, 0.00348205, NaN, NaN, NaN, 0.04089605, "- N/A -   "
2.02, 64.16342, 0.00350426, NaN, NaN, NaN, 0.0384545, "- N/A -   "
2.03, 64.6352, 0.003523698, NaN, NaN, NaN, 0.0372337, "- N/A -   "
2.04, 64.98906, 0.00354314, NaN, NaN, NaN, 0.03601294, "- N/A -   "
2.05, 65.3429, 0.00356257, NaN, NaN, NaN, 0.03601294, "- N/A -   "
2.06, 65.5788, 0.00357923, NaN, NaN, NaN, 0.0347922, "- N/A -   "
2.07, 65.93263, 0.00359589, NaN, NaN, NaN, 0.0347922, "- N/A -   "
2.08, 66.2865, 0.003615331, NaN, NaN, NaN, 0.0335714, "- N/A -   "
2.09, 66.64032, 0.00363199, NaN, NaN, NaN, 0.0335714, "- N/A -   "
2.1, 66.87622, 0.00365143, NaN, NaN, NaN, 0.0323506, "- N/A -   "
2.11, 67.34801, 0.00366809, NaN, NaN, NaN, 0.0323506, "- N/A -   "
2.12, 67.5839, 0.00368753, NaN, NaN, NaN, 0.03112983, "- N/A -   "
2.13, 67.9377, 0.003704187, NaN, NaN, NaN, 0.03112983, "- N/A -   "
2.14, 68.29159, 0.00372362, NaN, NaN, NaN, 0.03112983, "- N/A -   "
2.15, 68.6454, 0.00374028, NaN, NaN, NaN, 0.03112983, "- N/A -   "
2.16, 68.8813, 0.00375417, NaN, NaN, NaN, 0.03112983, "- N/A -   "
2.17, 69.11722, 0.003770829, NaN, NaN, NaN, 0.03112983, "- N/A -   "
2.18, 69.47106, 0.00378749, NaN, NaN, NaN, 0.03112983, "- N/A -   "
2.19, 69.8249, 0.00380415, NaN, NaN, NaN, 0.0323506, "- N/A -   "
2.2, 70.0608, 0.003818034, NaN, NaN, NaN, 0.0323506, "- N/A -   "
2.21, 70.41464, 0.00383469, NaN, NaN, NaN, 0.0323506, "- N/A -   "
2.22, 70.6505, 0.00385413, NaN, NaN, NaN, 0.0323506, "- N/A -   "
2.23, 70.88643, 0.00386802, NaN, NaN, NaN, 0.0323506, "- N/A -   "
2.24, 71.3582, 0.003884676, NaN, NaN, NaN, 0.0323506, "- N/A -   "
2.25, 71.59412, 0.00390134, NaN, NaN, NaN, 0.0335714, "- N/A -   "
2.26, 71.83001, 0.00391522, NaN, NaN, NaN, 0.0335714, "- N/A -   "
2.27, 72.1838, 0.00393188, NaN, NaN, NaN, 0.0335714, "- N/A -   "
2.28, 72.41975, 0.003948541, NaN, NaN, NaN, 0.0335714, "- N/A -   "
2.29, 72.77359, 0.003965202, NaN, NaN, NaN, 0.0335714, "- N/A -   "
2.3, 73.12743, 0.003981862, NaN, NaN, NaN, 0.0335714, "- N/A -   "
2.31, 73.36333, 0.00399852, NaN, NaN, NaN, 0.0335714, "- N/A -   "
2.32, 73.71717, 0.00401796, NaN, NaN, NaN, 0.0335714, "- N/A -   "
2.33, 74.071, 0.00403462, NaN, NaN, NaN, 0.0323506, "- N/A -   "
2.34, 74.42485, 0.004051281, NaN, NaN, NaN, 0.0323506, "- N/A -   "
2.35, 74.7787, 0.00407072, NaN, NaN, NaN, 0.0323506, "- N/A -   "
2.36, 75.13254, 0.00408738, NaN, NaN, NaN, 0.0323506, "- N/A -   "
2.37, 75.36844, 0.004104039, NaN, NaN, NaN, 0.03112983, "- N/A -   "
2.38, 75.7223, 0.0041207, NaN, NaN, NaN, 0.0323506, "- N/A -   "
2.39, 75.95817, 0.00413458, NaN, NaN, NaN, 0.0323506, "- N/A -   "
2.4, 76.19407, 0.004151244, NaN, NaN, NaN, 0.0323506, "- N/A -   "
2.41, 76.5479, 0.004165128, NaN, NaN, NaN, 0.0335714, "- N/A -   "
2.42, 76.7838, 0.00418179, NaN, NaN, NaN, 0.0335714, "- N/A -   "
2.43, 77.13765, 0.004195672, NaN, NaN, NaN, 0.0347922, "- N/A -   "
2.44, 77.37354, 0.00421233, NaN, NaN, NaN, 0.0347922, "- N/A -   "
2.45, 77.72738, 0.004226216, NaN, NaN, NaN, 0.03601294, "- N/A -   "
2.46, 77.96328, 0.00424288, NaN, NaN, NaN, 0.03601294, "- N/A -   "
2.47, 78.31712, 0.00425676, NaN, NaN, NaN, 0.0372337, "- N/A -   "
2.48, 78.55301, 0.00427064, NaN, NaN, NaN, 0.0384545, "- N/A -   "
2.49, 78.67096, 0.004287305, NaN, NaN, NaN, 0.0396753, "- N/A -   "
2.5, 79.0248, 0.00430119, NaN, NaN, NaN, 0.0396753, "- N/A -   "
2.51, 79.37865, 0.00431785, NaN, NaN, NaN, 0.0396753, "- N/A -   "
2.52, 79.61454, 0.00433173, NaN, NaN, NaN, 0.04089605, "- N/A -   "
2.53, 79.85043, 0.004345617, NaN, NaN, NaN, 0.04211683, "- N/A -   "
2.54, 80.20428, 0.004362277, NaN, NaN, NaN, 0.04211683, "- N/A -   "
2.55, 80.44018, 0.004376161, NaN, NaN, NaN, 0.0433376, "- N/A -   "
2.56, 80.67606, 0.00439282, NaN, NaN, NaN, 0.0433376, "- N/A -   "
2.57, 80.912, 0.004409482, NaN, NaN, NaN, 0.0433376, "- N/A -   "
2.58, 81.38376, 0.00442892, NaN, NaN, NaN, 0.04211683, "- N/A -   "
2.59, 81.61965, 0.00444836, NaN, NaN, NaN, 0.04089605, "- N/A -   "
2.6, 82.09144, 0.004465017, NaN, NaN, NaN, 0.04089605, "- N/A -   "
2.61, 82.44528, 0.004484454, NaN, NaN, NaN, 0.0396753, "- N/A -   "
2.62, 82.79912, 0.00450111, NaN, NaN, NaN, 0.0396753, "- N/A -   "
2.63, 83.03502, 0.00451778, NaN, NaN, NaN, 0.0396753, "- N/A -   "
2.64, 83.38886, 0.00453721, NaN, NaN, NaN, 0.0396753, "- N/A -   "
2.65, 83.86065, 0.004553873, NaN, NaN, NaN, 0.0384545, "- N/A -   "
2.66, 83.9786, 0.00457053, NaN, NaN, NaN, 0.0384545, "- N/A -   "
2.67, 84.33244, 0.004587194, NaN, NaN, NaN, 0.0384545, "- N/A -   "
2.68, 84.56834, 0.00460385, NaN, NaN, NaN, 0.0384545, "- N/A -   "
2.69, 84.92217, 0.004620515, NaN, NaN, NaN, 0.0384545, "- N/A -   "
2.7, 85.276, 0.004639952, NaN, NaN, NaN, 0.0384545, "- N/A -   "
2.71, 85.51192, 0.004656613, NaN, NaN, NaN, 0.0384545, "- N/A -   "
2.72, 85.86576, 0.00467327, NaN, NaN, NaN, 0.0372337, "- N/A -   "
2.73, 86.2196, 0.00468993, NaN, NaN, NaN, 0.0372337, "- N/A -   "
2.74, 86.57345, 0.004706594, NaN, NaN, NaN, 0.0372337, "- N/A -   "
2.75, 86.92729, 0.004723255, NaN, NaN, NaN, 0.0372337, "- N/A -   "
2.76, 87.16318, 0.004739915, NaN, NaN, NaN, 0.0372337, "- N/A -   "
2.77, 87.51702, 0.004759353, NaN, NaN, NaN, 0.0372337, "- N/A -   "
2.78, 87.8709, 0.004776013, NaN, NaN, NaN, 0.03601294, "- N/A -   "
2.79, 88.10676, 0.00479545, NaN, NaN, NaN, 0.03601294, "- N/A -   "
2.8, 88.4606, 0.004812111, NaN, NaN, NaN, 0.03601294, "- N/A -   "
2.81, 88.8144, 0.004828771, NaN, NaN, NaN, 0.03601294, "- N/A -   "
2.82, 89.05035, 0.004845432, NaN, NaN, NaN, 0.03601294, "- N/A -   "
2.83, 89.28623, 0.004859316, NaN, NaN, NaN, 0.03601294, "- N/A -   "
2.84, 89.52213, 0.004875976, NaN, NaN, NaN, 0.03601294, "- N/A -   "
2.85, 89.758, 0.00488986, NaN, NaN, NaN, 0.0372337, "- N/A -   "
2.86, 90.11186, 0.00490652, NaN, NaN, NaN, 0.0372337, "- N/A -   "
2.87, 90.4657, 0.004923181, NaN, NaN, NaN, 0.0372337, "- N/A -   "
2.88, 90.70161, 0.00494262, NaN, NaN, NaN, 0.0372337, "- N/A -   "
2.89, 91.05545, 0.004959279, NaN, NaN, NaN, 0.03601294, "- N/A -   "
2.9, 91.40929, 0.004975939, NaN, NaN, NaN, 0.03601294, "- N/A -   "
2.91, 91.64519, 0.0049926, NaN, NaN, NaN, 0.03601294, "- N/A -   "
2.92, 91.99903, 0.005012037, NaN, NaN, NaN, 0.0347922, "- N/A -   "
2.93, 92.23492, 0.005028697, NaN, NaN, NaN, 0.0347922, "- N/A -   "
2.94, 92.58876, 0.00504814, NaN, NaN, NaN, 0.0335714, "- N/A -   "
2.95, 92.94261, 0.0050648, NaN, NaN, NaN, 0.0335714, "- N/A -   "
2.96, 93.1785, 0.005081456, NaN, NaN, NaN, 0.0335714, "- N/A -   "
2.97, 93.53234, 0.00510089, NaN, NaN, NaN, 0.0335714, "- N/A -   "
2.98, 93.76824, 0.00511755, NaN, NaN, NaN, 0.0335714, "- N/A -   "
2.99, 94.0041, 0.00513144, NaN, NaN, NaN, 0.0335714, "- N/A -   "
3, 94.35797, 0.0051481, NaN, NaN, NaN, 0.0335714, "- N/A -   "
3.01, 94.59387, 0.00516476, NaN, NaN, NaN, 0.0335714, "- N/A -   "
3.02, 94.9477, 0.005181419, NaN, NaN, NaN, 0.0335714, "- N/A -   "
3.03, 95.30156, 0.005198079, NaN, NaN, NaN, 0.0335714, "- N/A -   "
3.04, 95.5374, 0.00521752, NaN, NaN, NaN, 0.0335714, "- N/A -   "
3.05, 95.7733, 0.005234177, NaN, NaN, NaN, 0.0323506, "- N/A -   "
3.06, 96.12719, 0.00525084, NaN, NaN, NaN, 0.0323506, "- N/A -   "
3.07, 96.36309, 0.0052675, NaN, NaN, NaN, 0.0323506, "- N/A -   "
3.08, 96.599, 0.00528416, NaN, NaN, NaN, 0.0323506, "- N/A -   "
3.09, 96.95282, 0.005303596, NaN, NaN, NaN, 0.0323506, "- N/A -   "
3.1, 97.18872, 0.00532026, NaN, NaN, NaN, 0.0323506, "- N/A -   "
3.11, 97.54256, 0.00533692, NaN, NaN, NaN, 0.03112983, "- N/A -   "
3.12, 97.8964, 0.00535358, NaN, NaN, NaN, 0.03112983, "- N/A -   "
3.13, 98.13229, 0.00537301, NaN, NaN, NaN, 0.0299091, "- N/A -   "
3.14, 98.4861, 0.00539245, NaN, NaN, NaN, 0.0299091, "- N/A -   "
3.15, 98.72203, 0.00540911, NaN, NaN, NaN, 0.0299091, "- N/A -   "
3.16, 99.0759, 0.005423, NaN, NaN, NaN, 0.0299091, "- N/A -   "
3.17, 99.1938, 0.005439657, NaN, NaN, NaN, 0.0299091, "- N/A -   "
3.18, 99.42972, 0.00545354, NaN, NaN, NaN, 0.03112983, "- N/A -   "
3.19, 99.7836, 0.0054702, NaN, NaN, NaN, 0.03112983, "- N/A -   "
3.2, 99.9015, 0.00548408, NaN, NaN, NaN, 0.0323506, "- N/A -   "
3.21, 100.137, 0.00549797, NaN, NaN, NaN, 0.0335714, "- N/A -   "
3.22, 100.491, 0.00551185, NaN, NaN, NaN, 0.03601294, "- N/A -   "
3.23, 100.6092, 0.00552296, NaN, NaN, NaN, 0.0372337, "- N/A -   "
3.24, 100.727, 0.00553684, NaN, NaN, NaN, 0.0384545, "- N/A -   "
3.25, 101.081, 0.005550727, NaN, NaN, NaN, 0.0396753, "- N/A -   "
3.26, 101.199, 0.00556461, NaN, NaN, NaN, 0.04089605, "- N/A -   "
3.27, 101.671, 0.00558127, NaN, NaN, NaN, 0.04089605, "- N/A -   "
3.28, 101.789, 0.005597932, NaN, NaN, NaN, 0.04211683, "- N/A -   "
3.29, 102.26, 0.005614592, NaN, NaN, NaN, 0.04089605, "- N/A -   "
3.3, 102.496, 0.00563125, NaN, NaN, NaN, 0.04089605, "- N/A -   "
3.31, 102.85, 0.00564791, NaN, NaN, NaN, 0.04211683, "- N/A -   "
3.32, 102.968, 0.005661797, NaN, NaN, NaN, 0.04211683, "- N/A -   "
3.33, 103.086, 0.00567846, NaN, NaN, NaN, 0.04211683, "- N/A -   "
3.34, 103.44, 0.00569234, NaN, NaN, NaN, 0.0433376, "- N/A -   "
3.35, 103.558, 0.005709002, NaN, NaN, NaN, 0.0433376, "- N/A -   "
3.36, 103.912, 0.00572566, NaN, NaN, NaN, 0.0433376, "- N/A -   "
3.37, 104.266, 0.00574232, NaN, NaN, NaN, 0.0433376, "- N/A -   "
3.38, 104.619, 0.00576176, NaN, NaN, NaN, 0.04211683, "- N/A -   "
3.39, 104.855, 0.00577842, NaN, NaN, NaN, 0.04211683, "- N/A -   "
3.4, 105.209, 0.00579508, NaN, NaN, NaN, 0.04211683, "- N/A -   "
3.41, 105.445, 0.00581174, NaN, NaN, NaN, 0.04211683, "- N/A -   "
3.42, 105.799, 0.005828402, NaN, NaN, NaN, 0.04211683, "- N/A -   "
3.43, 106.035, 0.005845063, NaN, NaN, NaN, 0.04211683, "- N/A -   "
3.44, 106.271, 0.005861723, NaN, NaN, NaN, 0.04211683, "- N/A -   "
3.45, 106.625, 0.00587838, NaN, NaN, NaN, 0.04211683, "- N/A -   "
3.46, 106.978, 0.005897821, NaN, NaN, NaN, 0.04089605, "- N/A -   "
3.47, 107.3322, 0.005917258, NaN, NaN, NaN, 0.0396753, "- N/A -   "
3.48, 107.568, 0.005939472, NaN, NaN, NaN, 0.0384545, "- N/A -   "
3.49, 107.922, 0.005956133, NaN, NaN, NaN, 0.0384545, "- N/A -   "
3.5, 108.276, 0.00597557, NaN, NaN, NaN, 0.0372337, "- N/A -   "
3.51, 108.512, 0.005995007, NaN, NaN, NaN, 0.03601294, "- N/A -   "
3.52, 108.983, 0.006014445, NaN, NaN, NaN, 0.0347922, "- N/A -   "
3.53, 109.219, 0.006033882, NaN, NaN, NaN, 0.0347922, "- N/A -   "
3.54, 109.455, 0.006050542, NaN, NaN, NaN, 0.0335714, "- N/A -   "
3.55, 109.8091, 0.006067203, NaN, NaN, NaN, 0.0335714, "- N/A -   "
3.56, 110.045, 0.006083863, NaN, NaN, NaN, 0.0347922, "- N/A -   "
3.57, 110.281, 0.00610052, NaN, NaN, NaN, 0.0347922, "- N/A -   "
3.58, 110.517, 0.006114408, NaN, NaN, NaN, 0.0347922, "- N/A -   "
3.59, 110.753, 0.006131068, NaN, NaN, NaN, 0.0347922, "- N/A -   "
3.6, 111.107, 0.006150505, NaN, NaN, NaN, 0.0335714, "- N/A -   "
3.61, 111.342, 0.006167166, NaN, NaN, NaN, 0.0335714, "- N/A -   "
3.62, 111.696, 0.006186603, NaN, NaN, NaN, 0.0335714, "- N/A -   "
3.63, 111.932, 0.006203264, NaN, NaN, NaN, 0.0335714, "- N/A -   "
3.64, 112.286, 0.006217147, NaN, NaN, NaN, 0.0335714, "- N/A -   "
3.65, 112.522, 0.006236585, NaN, NaN, NaN, 0.0323506, "- N/A -   "
3.66, 112.758, 0.00625325, NaN, NaN, NaN, 0.0323506, "- N/A -   "
3.67, 113.112, 0.00626991, NaN, NaN, NaN, 0.0323506, "- N/A -   "
3.68, 113.348, 0.006289343, NaN, NaN, NaN, 0.0323506, "- N/A -   "
3.69, 113.701, 0.006306, NaN, NaN, NaN, 0.0323506, "- N/A -   "
3.7, 113.937, 0.006322664, NaN, NaN, NaN, 0.03112983, "- N/A -   "
3.71, 114.2911, 0.006342101, NaN, NaN, NaN, 0.03112983, "- N/A -   "
3.72, 114.645, 0.006361538, NaN, NaN, NaN, 0.0299091, "- N/A -   "
3.73, 114.881, 0.006378199, NaN, NaN, NaN, 0.0286883, "- N/A -   "
3.74, 115.235, 0.00639486, NaN, NaN, NaN, 0.0286883, "- N/A -   "
3.75, 115.471, 0.00641152, NaN, NaN, NaN, 0.0286883, "- N/A -   "
3.76, 115.706, 0.00642818, NaN, NaN, NaN, 0.0286883, "- N/A -   "
3.77, 115.942, 0.00644206, NaN, NaN, NaN, 0.0299091, "- N/A -   "
3.78, 116.178, 0.006455948, NaN, NaN, NaN, 0.03112983, "- N/A -   "
3.79, 116.5321, 0.00647539, NaN, NaN, NaN, 0.03112983, "- N/A -   "
3.8, 116.768, 0.006489269, NaN, NaN, NaN, 0.03112983, "- N/A -   "
3.81, 116.886, 0.00650593, NaN, NaN, NaN, 0.03112983, "- N/A -   "
3.82, 117.358, 0.006519813, NaN, NaN, NaN, 0.0323506, "- N/A -   "
3.83, 117.476, 0.006536474, NaN, NaN, NaN, 0.0335714, "- N/A -   "
3.84, 117.712, 0.006550358, NaN, NaN, NaN, 0.0335714, "- N/A -   "
3.85, 118.183, 0.006567018, NaN, NaN, NaN, 0.0335714, "- N/A -   "
3.86, 118.301, 0.0065809, NaN, NaN, NaN, 0.0347922, "- N/A -   "
3.87, 118.537, 0.006594786, NaN, NaN, NaN, 0.03601294, "- N/A -   "
3.88, 118.7731, 0.006608669, NaN, NaN, NaN, 0.0372337, "- N/A -   "
3.89, 118.891, 0.00662255, NaN, NaN, NaN, 0.0384545, "- N/A -   "
3.9, 119.127, 0.006636437, NaN, NaN, NaN, 0.04089605, "- N/A -   "
3.91, 119.363, 0.006650321, NaN, NaN, NaN, 0.04211683, "- N/A -   "
3.92, 119.599, 0.006661428, NaN, NaN, NaN, 0.0433376, "- N/A -   "
3.93, 119.835, 0.006678088, NaN, NaN, NaN, 0.0433376, "- N/A -   "
3.94, 120.071, 0.006694749, NaN, NaN, NaN, 0.0433376, "- N/A -   "
3.95, 120.306, 0.00671141, NaN, NaN, NaN, 0.0445584, "- N/A -   "
3.96, 120.542, 0.006725293, NaN, NaN, NaN, 0.0445584, "- N/A -   "
3.97, 120.896, 0.00674195, NaN, NaN, NaN, 0.04577916, "- N/A -   "
3.98, 121.132, 0.00675584, NaN, NaN, NaN, 0.04577916, "- N/A -   "
3.99, 121.486, 0.006772498, NaN, NaN, NaN, 0.04577916, "- N/A -   "
4, 121.604, 0.006789158, NaN, NaN, NaN, 0.04699994, "- N/A -   "
4.01, 121.958, 0.00680304, NaN, NaN, NaN, 0.04699994, "- N/A -   "
4.02, 122.194, 0.006819702, NaN, NaN, NaN, 0.04699994, "- N/A -   "
4.03, 122.547, 0.006836363, NaN, NaN, NaN, 0.04699994, "- N/A -   "
4.04, 122.783, 0.00685302, NaN, NaN, NaN, 0.04699994, "- N/A -   "
4.05, 123.137, 0.006872461, NaN, NaN, NaN, 0.04577916, "- N/A -   "
4.06, 123.491, 0.00688912, NaN, NaN, NaN, 0.04577916, "- N/A -   "
4.07, 123.7269, 0.00690856, NaN, NaN, NaN, 0.04577916, "- N/A -   "
4.08, 124.081, 0.006925219, NaN, NaN, NaN, 0.0445584, "- N/A -   "
4.09, 124.435, 0.00694466, NaN, NaN, NaN, 0.0433376, "- N/A -   "
4.1, 124.67, 0.00696409, NaN, NaN, NaN, 0.0433376, "- N/A -   "
4.11, 125.024, 0.00698075, NaN, NaN, NaN, 0.04211683, "- N/A -   "
4.12, 125.26, 0.00700019, NaN, NaN, NaN, 0.04211683, "- N/A -   "
4.13, 125.614, 0.007016852, NaN, NaN, NaN, 0.04089605, "- N/A -   "
4.14, 125.85, 0.00703351, NaN, NaN, NaN, 0.04089605, "- N/A -   "
4.15, 126.204, 0.00705573, NaN, NaN, NaN, 0.0396753, "- N/A -   "
4.16, 126.558, 0.00707239, NaN, NaN, NaN, 0.0396753, "- N/A -   "
4.17, 126.911, 0.00708905, NaN, NaN, NaN, 0.0384545, "- N/A -   "
4.18, 127.147, 0.007108485, NaN, NaN, NaN, 0.0372337, "- N/A -   "
4.19, 127.501, 0.00712792, NaN, NaN, NaN, 0.0372337, "- N/A -   "
4.2, 127.855, 0.00714458, NaN, NaN, NaN, 0.03601294, "- N/A -   "
4.21, 127.973, 0.00716124, NaN, NaN, NaN, 0.03601294, "- N/A -   "
4.22, 128.4448, 0.007177904, NaN, NaN, NaN, 0.03601294, "- N/A -   "
4.23, 128.563, 0.007194564, NaN, NaN, NaN, 0.03601294, "- N/A -   "
4.24, 128.917, 0.00721122, NaN, NaN, NaN, 0.03601294, "- N/A -   "
4.25, 129.152, 0.00722789, NaN, NaN, NaN, 0.03601294, "- N/A -   "
4.26, 129.388, 0.00724732, NaN, NaN, NaN, 0.03601294, "- N/A -   "
4.27, 129.742, 0.00726398, NaN, NaN, NaN, 0.0347922, "- N/A -   "
4.28, 130.096, 0.00728342, NaN, NaN, NaN, 0.0335714, "- N/A -   "
4.29, 130.568, 0.00730563, NaN, NaN, NaN, 0.0323506, "- N/A -   "
4.3, 130.6858, 0.00732229, NaN, NaN, NaN, 0.03112983, "- N/A -   "
4.31, 131.04, 0.007341732, NaN, NaN, NaN, 0.03112983, "- N/A -   "
4.32, 131.393, 0.00735839, NaN, NaN, NaN, 0.0299091, "- N/A -   "
4.33, 131.747, 0.00737505, NaN, NaN, NaN, 0.0299091, "- N/A -   "
4.34, 132.101, 0.00739449, NaN, NaN, NaN, 0.0299091, "- N/A -   "
4.35, 132.337, 0.007408374, NaN, NaN, NaN, 0.0299091, "- N/A -   "
4.36, 132.573, 0.00742503, NaN, NaN, NaN, 0.03112983, "- N/A -   "
4.37, 132.9268, 0.007441695, NaN, NaN, NaN, 0.0299091, "- N/A -   "
4.38, 133.045, 0.00745836, NaN, NaN, NaN, 0.0299091, "- N/A -   "
4.39, 133.281, 0.00747224, NaN, NaN, NaN, 0.03112983, "- N/A -   "
4.4, 133.634, 0.00749168, NaN, NaN, NaN, 0.0299091, "- N/A -   "
4.41, 133.988, 0.007508337, NaN, NaN, NaN, 0.0299091, "- N/A -   "
4.42, 134.224, 0.007525, NaN, NaN, NaN, 0.0299091, "- N/A -   "
4.43, 134.46, 0.007541658, NaN, NaN, NaN, 0.0299091, "- N/A -   "
4.44, 134.696, 0.0075611, NaN, NaN, NaN, 0.0299091, "- N/A -   "
4.45, 135.05, 0.00757498, NaN, NaN, NaN, 0.0299091, "- N/A -   "
4.46, 135.286, 0.00759164, NaN, NaN, NaN, 0.0299091, "- N/A -   "
4.47, 135.522, 0.007605524, NaN, NaN, NaN, 0.03112983, "- N/A -   "
4.48, 135.758, 0.00762218, NaN, NaN, NaN, 0.0323506, "- N/A -   "
4.49, 135.993, 0.00763329, NaN, NaN, NaN, 0.0335714, "- N/A -   "
4.5, 136.347, 0.00764995, NaN, NaN, NaN, 0.0335714, "- N/A -   "
4.51, 136.583, 0.007663835, NaN, NaN, NaN, 0.0347922, "- N/A -   "
4.52, 136.819, 0.0076805, NaN, NaN, NaN, 0.0347922, "- N/A -   "
4.53, 136.937, 0.00769438, NaN, NaN, NaN, 0.03601294, "- N/A -   "
4.54, 137.291, 0.00771104, NaN, NaN, NaN, 0.0372337, "- N/A -   "
4.55, 137.4088, 0.007724924, NaN, NaN, NaN, 0.0384545, "- N/A -   "
4.56, 137.6447, 0.00773881, NaN, NaN, NaN, 0.0396753, "- N/A -   "
4.57, 137.999, 0.007752691, NaN, NaN, NaN, 0.04089605, "- N/A -   "
4.58, 138.116, 0.007766575, NaN, NaN, NaN, 0.04089605, "- N/A -   "
4.59, 138.47, 0.007783236, NaN, NaN, NaN, 0.04089605, "- N/A -   "
4.6, 138.706, 0.007799896, NaN, NaN, NaN, 0.04211683, "- N/A -   "
4.61, 139.06, 0.007811003, NaN, NaN, NaN, 0.0433376, "- N/A -   "
4.62, 139.178, 0.007827664, NaN, NaN, NaN, 0.0433376, "- N/A -   "
4.63, 139.414, 0.007841547, NaN, NaN, NaN, 0.0445584, "- N/A -   "
4.64, 139.65, 0.007858207, NaN, NaN, NaN, 0.0445584, "- N/A -   "
4.65, 140.004, 0.007874868, NaN, NaN, NaN, 0.0445584, "- N/A -   "
4.66, 140.357, 0.007891529, NaN, NaN, NaN, 0.0445584, "- N/A -   "
4.67, 140.593, 0.007908189, NaN, NaN, NaN, 0.0445584, "- N/A -   "
4.68, 140.829, 0.00792485, NaN, NaN, NaN, 0.0445584, "- N/A -   "
4.69, 141.183, 0.00794151, NaN, NaN, NaN, 0.04577916, "- N/A -   "
4.7, 141.301, 0.007958171, NaN, NaN, NaN, 0.0445584, "- N/A -   "
4.71, 141.773, 0.007974831, NaN, NaN, NaN, 0.04577916, "- N/A -   "
4.72, 142.009, 0.007991492, NaN, NaN, NaN, 0.0445584, "- N/A -   "
4.73, 142.3626, 0.008010929, NaN, NaN, NaN, 0.0445584, "- N/A -   "
4.74, 142.716, 0.008030366, NaN, NaN, NaN, 0.0433376, "- N/A -   "
4.75, 142.952, 0.008049804, NaN, NaN, NaN, 0.04211683, "- N/A -   "
4.76, 143.306, 0.008066464, NaN, NaN, NaN, 0.04089605, "- N/A -   "
4.77, 143.66, 0.008085901, NaN, NaN, NaN, 0.04089605, "- N/A -   "
4.78, 144.014, 0.008102562, NaN, NaN, NaN, 0.0396753, "- N/A -   "
4.79, 144.25, 0.008119223, NaN, NaN, NaN, 0.0396753, "- N/A -   "
4.8, 144.604, 0.00813866, NaN, NaN, NaN, 0.0396753, "- N/A -   "
4.81, 144.8395, 0.00815532, NaN, NaN, NaN, 0.0384545, "- N/A -   "
4.82, 145.193, 0.00817476, NaN, NaN, NaN, 0.0372337, "- N/A -   "
4.83, 145.429, 0.008191418, NaN, NaN, NaN, 0.0372337, "- N/A -   "
4.84, 145.783, 0.008210856, NaN, NaN, NaN, 0.03601294, "- N/A -   "
4.85, 146.137, 0.008230292, NaN, NaN, NaN, 0.03601294, "- N/A -   "
4.86, 146.491, 0.008246954, NaN, NaN, NaN, 0.0347922, "- N/A -   "
4.87, 146.8446, 0.00826639, NaN, NaN, NaN, 0.0335714, "- N/A -   "
4.88, 147.0805, 0.008283051, NaN, NaN, NaN, 0.0335714, "- N/A -   "
4.89, 147.434, 0.008302488, NaN, NaN, NaN, 0.0335714, "- N/A -   "
4.9, 147.788, 0.008321925, NaN, NaN, NaN, 0.03112983, "- N/A -   "
4.91, 148.142, 0.008341363, NaN, NaN, NaN, 0.03112983, "- N/A -   "
4.92, 148.378, 0.008358023, NaN, NaN, NaN, 0.0299091, "- N/A -   "
4.93, 148.732, 0.008374684, NaN, NaN, NaN, 0.0299091, "- N/A -   "
4.94, 148.968, 0.008391344, NaN, NaN, NaN, 0.0299091, "- N/A -   "
4.95, 149.204, 0.008408004, NaN, NaN, NaN, 0.0299091, "- N/A -   "
4.96, 149.557, 0.008424665, NaN, NaN, NaN, 0.0299091, "- N/A -   "
4.97, 149.793, 0.0084441, NaN, NaN, NaN, 0.0299091, "- N/A -   "
4.98, 150.147, 0.008460763, NaN, NaN, NaN, 0.0286883, "- N/A -   "
4.99, 150.501, 0.008477423, NaN, NaN, NaN, 0.0286883, "- N/A -   "
5, 150.737, 0.008494084, NaN, NaN, NaN, 0.0286883, "- N/A -   "
5.01, 150.855, 0.008510744, NaN, NaN, NaN, 0.0299091, "- N/A -   "
5.02, 151.327, 0.008524628, NaN, NaN, NaN, 0.0299091, "- N/A -   "
5.03, 151.445, 0.008541289, NaN, NaN, NaN, 0.0299091, "- N/A -   "
5.04, 151.68, 0.008555172, NaN, NaN, NaN, 0.03112983, "- N/A -   "
5.05, 151.916, 0.008571833, NaN, NaN, NaN, 0.0323506, "- N/A -   "
5.06, 152.27, 0.008585717, NaN, NaN, NaN, 0.0323506, "- N/A -   "
5.07, 152.388, 0.008599601, NaN, NaN, NaN, 0.0335714, "- N/A -   "
5.08, 152.742, 0.008619037, NaN, NaN, NaN, 0.0335714, "- N/A -   "
5.09, 153.096, 0.008632922, NaN, NaN, NaN, 0.0335714, "- N/A -   "
5.1, 153.332, 0.008649582, NaN, NaN, NaN, 0.0335714, "- N/A -   "
5.11, 153.568, 0.00866624, NaN, NaN, NaN, 0.0347922, "- N/A -   "
5.12, 153.8035, 0.008682903, NaN, NaN, NaN, 0.0347922, "- N/A -   "
5.13, 154.0394, 0.008696787, NaN, NaN, NaN, 0.0347922, "- N/A -   "
5.14, 154.393, 0.00871345, NaN, NaN, NaN, 0.0347922, "- N/A -   "
5.15, 154.747, 0.008730108, NaN, NaN, NaN, 0.0347922, "- N/A -   "
5.16, 154.983, 0.008746768, NaN, NaN, NaN, 0.0347922, "- N/A -   "
5.17, 155.337, 0.008763429, NaN, NaN, NaN, 0.03601294, "- N/A -   "
5.18, 155.573, 0.008777313, NaN, NaN, NaN, 0.03601294, "- N/A -   "
5.19, 155.809, 0.00879675, NaN, NaN, NaN, 0.03601294, "- N/A -   "
5.2, 156.162, 0.008810634, NaN, NaN, NaN, 0.03601294, "- N/A -   "
5.21, 156.398, 0.008827294, NaN, NaN, NaN, 0.03601294, "- N/A -   "
5.22, 156.634, 0.008843955, NaN, NaN, NaN, 0.0372337, "- N/A -   "
5.23, 156.87, 0.008857839, NaN, NaN, NaN, 0.0372337, "- N/A -   "
5.24, 156.988, 0.008871722, NaN, NaN, NaN, 0.0384545, "- N/A -   "
5.25, 157.342, 0.008885606, NaN, NaN, NaN, 0.0396753, "- N/A -   "
5.26, 157.578, 0.008899489, NaN, NaN, NaN, 0.04089605, "- N/A -   "
5.27, 157.814, 0.008916151, NaN, NaN, NaN, 0.04089605, "- N/A -   "
5.28, 158.168, 0.008930034, NaN, NaN, NaN, 0.04211683, "- N/A -   "
5.29, 158.403, 0.008946694, NaN, NaN, NaN, 0.04211683, "- N/A -   "
5.3, 158.639, 0.008963355, NaN, NaN, NaN, 0.0433376, "- N/A -   "
5.31, 158.9932, 0.008980015, NaN, NaN, NaN, 0.0433376, "- N/A -   "
5.32, 159.229, 0.008993899, NaN, NaN, NaN, 0.0433376, "- N/A -   "
5.33, 159.583, 0.009013337, NaN, NaN, NaN, 0.0433376, "- N/A -   "
5.34, 159.819, 0.00902722, NaN, NaN, NaN, 0.0433376, "- N/A -   "
5.35, 160.173, 0.009043881, NaN, NaN, NaN, 0.0433376, "- N/A -   "
5.36, 160.409, 0.009057765, NaN, NaN, NaN, 0.0445584, "- N/A -   "
5.37, 160.5265, 0.009074425, NaN, NaN, NaN, 0.0445584, "- N/A -   "
5.38, 160.88, 0.009091086, NaN, NaN, NaN, 0.0445584, "- N/A -   "
5.39, 161.234, 0.009110522, NaN, NaN, NaN, 0.0445584, "- N/A -   "
5.4, 161.588, 0.009127184, NaN, NaN, NaN, 0.0433376, "- N/A -   "
5.41, 162.06, 0.00914662, NaN, NaN, NaN, 0.04211683, "- N/A -   "
5.42, 162.414, 0.009166058, NaN, NaN, NaN, 0.04089605, "- N/A -   "
5.43, 162.768, 0.009185495, NaN, NaN, NaN, 0.0396753, "- N/A -   "
5.44, 163.0034, 0.00920493, NaN, NaN, NaN, 0.0384545, "- N/A -   "
5.45, 163.357, 0.009221593, NaN, NaN, NaN, 0.0384545, "- N/A -   "
5.46, 163.593, 0.00924103, NaN, NaN, NaN, 0.0372337, "- N/A -   "
5.47, 163.947, 0.009257691, NaN, NaN, NaN, 0.0372337, "- N/A -   "
5.48, 164.183, 0.009277128, NaN, NaN, NaN, 0.0372337, "- N/A -   "
5.49, 164.537, 0.009293789, NaN, NaN, NaN, 0.03601294, "- N/A -   "
5.5, 164.891, 0.009310449, NaN, NaN, NaN, 0.03601294, "- N/A -   "
5.51, 165.2444, 0.009329886, NaN, NaN, NaN, 0.0347922, "- N/A -   "
5.52, 165.598, 0.009349324, NaN, NaN, NaN, 0.0335714, "- N/A -   "
5.53, 165.952, 0.009371538, NaN, NaN, NaN, 0.0323506, "- N/A -   "
5.54, 166.188, 0.009388198, NaN, NaN, NaN, 0.0323506, "- N/A -   "
5.55, 166.542, 0.009402082, NaN, NaN, NaN, 0.0323506, "- N/A -   "
5.56, 166.778, 0.009421519, NaN, NaN, NaN, 0.0323506, "- N/A -   "
5.57, 167.132, 0.009438179, NaN, NaN, NaN, 0.03112983, "- N/A -   "
5.58, 167.367, 0.00945484, NaN, NaN, NaN, 0.03112983, "- N/A -   "
5.59, 167.603, 0.00947428, NaN, NaN, NaN, 0.03112983, "- N/A -   "
5.6, 167.839, 0.009488162, NaN, NaN, NaN, 0.03112983, "- N/A -   "
5.61, 168.075, 0.009502044, NaN, NaN, NaN, 0.0323506, "- N/A -   "
5.62, 168.429, 0.009515928, NaN, NaN, NaN, 0.0335714, "- N/A -   "
5.63, 168.665, 0.009532589, NaN, NaN, NaN, 0.0347922, "- N/A -   "
5.64, 169.019, 0.009546473, NaN, NaN, NaN, 0.0347922, "- N/A -   "
5.65, 169.255, 0.009563134, NaN, NaN, NaN, 0.03601294, "- N/A -   "
5.66, 169.373, 0.009577017, NaN, NaN, NaN, 0.03601294, "- N/A -   "
5.67, 169.726, 0.0095909, NaN, NaN, NaN, 0.0372337, "- N/A -   "
5.68, 169.962, 0.009607562, NaN, NaN, NaN, 0.0372337, "- N/A -   "
5.69, 170.1982, 0.009624222, NaN, NaN, NaN, 0.0384545, "- N/A -   "
5.7, 170.552, 0.00963811, NaN, NaN, NaN, 0.0384545, "- N/A -   "
5.71, 170.788, 0.009654766, NaN, NaN, NaN, 0.0396753, "- N/A -   "
5.72, 171.142, 0.009671426, NaN, NaN, NaN, 0.0384545, "- N/A -   "
5.73, 171.378, 0.009688088, NaN, NaN, NaN, 0.0384545, "- N/A -   "
5.74, 171.732, 0.009704748, NaN, NaN, NaN, 0.0384545, "- N/A -   "
5.75, 172.085, 0.009724185, NaN, NaN, NaN, 0.0372337, "- N/A -   "
5.76, 172.4392, 0.00974362, NaN, NaN, NaN, 0.03601294, "- N/A -   "
5.77, 172.793, 0.00976306, NaN, NaN, NaN, 0.0347922, "- N/A -   "
5.78, 173.1469, 0.009782497, NaN, NaN, NaN, 0.0347922, "- N/A -   "
5.79, 173.383, 0.00980193, NaN, NaN, NaN, 0.0335714, "- N/A -   "
5.8, 173.737, 0.009818594, NaN, NaN, NaN, 0.0323506, "- N/A -   "
5.81, 174.09, 0.009838033, NaN, NaN, NaN, 0.0323506, "- N/A -   "
5.82, 174.562, 0.009854692, NaN, NaN, NaN, 0.03112983, "- N/A -   "
5.83, 174.6802, 0.009871352, NaN, NaN, NaN, 0.0323506, "- N/A -   "
5.84, 175.034, 0.009885237, NaN, NaN, NaN, 0.0323506, "- N/A -   "
5.85, 175.27, 0.009901897, NaN, NaN, NaN, 0.0323506, "- N/A -   "
5.86, 175.624, 0.009918558, NaN, NaN, NaN, 0.0335714, "- N/A -   "
5.87, 175.86, 0.009932442, NaN, NaN, NaN, 0.0335714, "- N/A -   "
5.88, 176.096, 0.009949102, NaN, NaN, NaN, 0.0347922, "- N/A -   "
5.89, 176.449, 0.009962986, NaN, NaN, NaN, 0.0347922, "- N/A -   "
5.9, 176.567, 0.009979647, NaN, NaN, NaN, 0.03601294, "- N/A -   "
5.91, 176.9212, 0.00999353, NaN, NaN, NaN, 0.0372337, "- N/A -   "
5.92, 177.1571, 0.0100074, NaN, NaN, NaN, 0.0372337, "- N/A -   "
5.93, 177.275, 0.0100241, NaN, NaN, NaN, 0.0384545, "- N/A -   "
5.94, 177.629, 0.010038, NaN, NaN, NaN, 0.0384545, "- N/A -   "
5.95, 177.983, 0.0100546, NaN, NaN, NaN, 0.0384545, "- N/A -   "
[...]
31.65, 1168.86, 0.05290823, NaN, NaN, NaN, 0.03112983, "- N/A -   "
31.67, 1169.58, 0.05294155, NaN, NaN, NaN, 0.03112983, "- N/A -   "
31.69, 1170.53, 0.0529776, NaN, NaN, NaN, 0.0299091, "- N/A -   "
31.71, 1171.37, 0.05301097, NaN, NaN, NaN, 0.0286883, "- N/A -   "
31.73, 1172.2, 0.05304429, NaN, NaN, NaN, 0.0286883, "- N/A -   "
31.75, 1172.92, 0.0530748, NaN, NaN, NaN, 0.0299091, "- N/A -   "
31.77, 1173.51, 0.05310538, NaN, NaN, NaN, 0.0323506, "- N/A -   "
31.79, 1174.23, 0.0531304, NaN, NaN, NaN, 0.0347922, "- N/A -   "
31.81, 1174.94, 0.0531581, NaN, NaN, NaN, 0.0372337, "- N/A -   "
31.83, 1175.54, 0.0531859, NaN, NaN, NaN, 0.0396753, "- N/A -   "
31.85, 1176.256, 0.05321645, NaN, NaN, NaN, 0.04089605, "- N/A -   "
31.87, 1176.85, 0.05324422, NaN, NaN, NaN, 0.0433376, "- N/A -   "
31.89, 1177.687, 0.0532775, NaN, NaN, NaN, 0.0433376, "- N/A -   "
31.91, 1178.52, 0.0533109, NaN, NaN, NaN, 0.0445584, "- N/A -   "
31.93, 1179.48, 0.053347, NaN, NaN, NaN, 0.04211683, "- N/A -   "
31.95, 1180.072, 0.05338028, NaN, NaN, NaN, 0.0433376, "- N/A -   "
31.97, 1181.03, 0.0534136, NaN, NaN, NaN, 0.04211683, "- N/A -   "
31.99, 1181.86, 0.0534469, NaN, NaN, NaN, 0.04211683, "- N/A -   "
32.01, 1182.58, 0.05348024, NaN, NaN, NaN, 0.04211683, "- N/A -   "
32.03, 1183.53, 0.05351356, NaN, NaN, NaN, 0.04211683, "- N/A -   "
32.05, 1184.365, 0.0535469, NaN, NaN, NaN, 0.04211683, "- N/A -   "
32.07, 1185.32, 0.0535802, NaN, NaN, NaN, 0.04211683, "- N/A -   "
32.09, 1186.03, 0.0536135, NaN, NaN, NaN, 0.04211683, "- N/A -   "
32.11, 1186.99, 0.0536524, NaN, NaN, NaN, 0.04089605, "- N/A -   "
32.13, 1188.06, 0.0536913, NaN, NaN, NaN, 0.0384545, "- N/A -   "
32.15, 1188.9, 0.0537274, NaN, NaN, NaN, 0.03601294, "- N/A -   "
32.17, 1190.09, 0.0537662, NaN, NaN, NaN, 0.0335714, "- N/A -   "
32.19, 1191.04, 0.0538079, NaN, NaN, NaN, 0.03112983, "- N/A -   "
32.21, 1191.88, 0.0538412, NaN, NaN, NaN, 0.0299091, "- N/A -   "
32.23, 1192.83, 0.05387732, NaN, NaN, NaN, 0.0286883, "- N/A -   "
32.25, 1193.67, 0.05391342, NaN, NaN, NaN, 0.0274675, "- N/A -   "
32.27, 1194.5, 0.0539467, NaN, NaN, NaN, 0.0286883, "- N/A -   "
32.29, 1195.217, 0.05397728, NaN, NaN, NaN, 0.0286883, "- N/A -   "
32.31, 1196.05, 0.0540106, NaN, NaN, NaN, 0.0299091, "- N/A -   "
32.33, 1196.77, 0.0540411, NaN, NaN, NaN, 0.0299091, "- N/A -   "
32.35, 1197.48, 0.05407169, NaN, NaN, NaN, 0.03112983, "- N/A -   "
32.37, 1198.44, 0.05410779, NaN, NaN, NaN, 0.03112983, "- N/A -   "
32.39, 1199.27, 0.0541383, NaN, NaN, NaN, 0.03112983, "- N/A -   "
32.41, 1200.11, 0.05417165, NaN, NaN, NaN, 0.03112983, "- N/A -   "
32.43, 1200.82, 0.0541994, NaN, NaN, NaN, 0.0335714, "- N/A -   "
32.45, 1201.42, 0.05423, NaN, NaN, NaN, 0.03601294, "- N/A -   "
32.47, 1202.25, 0.0542633, NaN, NaN, NaN, 0.03601294, "- N/A -   "
32.49, 1202.97, 0.0542966, NaN, NaN, NaN, 0.03601294, "- N/A -   "
32.51, 1203.92, 0.0543299, NaN, NaN, NaN, 0.03601294, "- N/A -   "
32.53, 1204.638, 0.0543605, NaN, NaN, NaN, 0.03601294, "- N/A -   "
32.55, 1205.35, 0.05439102, NaN, NaN, NaN, 0.0372337, "- N/A -   "
32.57, 1206.069, 0.0544188, NaN, NaN, NaN, 0.0396753, "- N/A -   "
32.59, 1206.78, 0.0544466, NaN, NaN, NaN, 0.04211683, "- N/A -   "
32.61, 1207.5, 0.05447432, NaN, NaN, NaN, 0.0445584, "- N/A -   "
32.63, 1208.22, 0.05450486, NaN, NaN, NaN, 0.04577916, "- N/A -   "
32.65, 1208.931, 0.0545354, NaN, NaN, NaN, 0.04699994, "- N/A -   "
32.67, 1209.77, 0.05456595, NaN, NaN, NaN, 0.0482207, "- N/A -   "
32.69, 1210.48, 0.0545993, NaN, NaN, NaN, 0.0482207, "- N/A -   "
32.71, 1211.44, 0.0546326, NaN, NaN, NaN, 0.0482207, "- N/A -   "
32.73, 1212.39, 0.05467147, NaN, NaN, NaN, 0.04577916, "- N/A -   "
32.75, 1213.34, 0.0547076, NaN, NaN, NaN, 0.0445584, "- N/A -   "
32.77, 1214.42, 0.0547492, NaN, NaN, NaN, 0.04089605, "- N/A -   "
32.79, 1215.49, 0.0547909, NaN, NaN, NaN, 0.0372337, "- N/A -   "
32.81, 1216.56, 0.0548297, NaN, NaN, NaN, 0.0347922, "- N/A -   "
32.83, 1217.398, 0.05486862, NaN, NaN, NaN, 0.0335714, "- N/A -   "
32.85, 1218.23, 0.05490194, NaN, NaN, NaN, 0.0335714, "- N/A -   "
32.87, 1219.07, 0.0549353, NaN, NaN, NaN, 0.0335714, "- N/A -   "
32.89, 1219.783, 0.0549658, NaN, NaN, NaN, 0.0335714, "- N/A -   "
32.91, 1220.5, 0.05499635, NaN, NaN, NaN, 0.0347922, "- N/A -   "
32.93, 1221.33, 0.0550269, NaN, NaN, NaN, 0.03601294, "- N/A -   "
32.95, 1222.05, 0.05506021, NaN, NaN, NaN, 0.0372337, "- N/A -   "
32.97, 1223, 0.0550935, NaN, NaN, NaN, 0.03601294, "- N/A -   "
32.99, 1223.72, 0.0551269, NaN, NaN, NaN, 0.03601294, "- N/A -   "
33.01, 1224.67, 0.05516295, NaN, NaN, NaN, 0.0347922, "- N/A -   "
33.03, 1225.507, 0.05519905, NaN, NaN, NaN, 0.0347922, "- N/A -   "
33.05, 1226.34, 0.0552351, NaN, NaN, NaN, 0.0335714, "- N/A -   "
33.07, 1227.415, 0.0552712, NaN, NaN, NaN, 0.0323506, "- N/A -   "
33.09, 1228.25, 0.0553046, NaN, NaN, NaN, 0.03112983, "- N/A -   "
33.11, 1228.97, 0.0553379, NaN, NaN, NaN, 0.03112983, "- N/A -   "
33.13, 1229.68, 0.0553684, NaN, NaN, NaN, 0.0323506, "- N/A -   "
33.15, 1230.52, 0.05539898, NaN, NaN, NaN, 0.0335714, "- N/A -   "
33.17, 1231.35, 0.0554323, NaN, NaN, NaN, 0.0347922, "- N/A -   "
33.19, 1232.07, 0.05546284, NaN, NaN, NaN, 0.0347922, "- N/A -   "
33.21, 1232.78, 0.05549339, NaN, NaN, NaN, 0.03601294, "- N/A -   "
33.23, 1233.5, 0.0555212, NaN, NaN, NaN, 0.0384545, "- N/A -   "
33.25, 1234.21, 0.0555545, NaN, NaN, NaN, 0.0396753, "- N/A -   "
33.27, 1235.05, 0.055585, NaN, NaN, NaN, 0.0396753, "- N/A -   "
33.29, 1235.76, 0.0556183, NaN, NaN, NaN, 0.0396753, "- N/A -   "
33.31, 1236.72, 0.05565166, NaN, NaN, NaN, 0.0396753, "- N/A -   "
33.33, 1237.55, 0.05568776, NaN, NaN, NaN, 0.0384545, "- N/A -   "
33.35, 1238.39, 0.05572108, NaN, NaN, NaN, 0.0396753, "- N/A -   "
33.37, 1239.22, 0.0557516, NaN, NaN, NaN, 0.04089605, "- N/A -   "
33.39, 1240.06, 0.0557849, NaN, NaN, NaN, 0.04089605, "- N/A -   "
33.41, 1240.89, 0.0558183, NaN, NaN, NaN, 0.0396753, "- N/A -   "
33.43, 1241.73, 0.05585436, NaN, NaN, NaN, 0.0396753, "- N/A -   "
33.45, 1242.68, 0.05589046, NaN, NaN, NaN, 0.0372337, "- N/A -   "
33.47, 1243.514, 0.0559238, NaN, NaN, NaN, 0.0372337, "- N/A -   "
33.49, 1244.35, 0.0559571, NaN, NaN, NaN, 0.0372337, "- N/A -   "
33.51, 1245.18, 0.0559904, NaN, NaN, NaN, 0.0372337, "- N/A -   "
33.53, 1245.899, 0.0560237, NaN, NaN, NaN, 0.0372337, "- N/A -   "
33.55, 1246.85, 0.0560598, NaN, NaN, NaN, 0.0372337, "- N/A -   "
33.57, 1247.69, 0.0560932, NaN, NaN, NaN, 0.03601294, "- N/A -   "
33.59, 1248.52, 0.05612926, NaN, NaN, NaN, 0.03601294, "- N/A -   "
33.61, 1249.48, 0.0561626, NaN, NaN, NaN, 0.0347922, "- N/A -   "
33.63, 1250.31, 0.0562015, NaN, NaN, NaN, 0.0335714, "- N/A -   "
33.65, 1251.27, 0.0562376, NaN, NaN, NaN, 0.03112983, "- N/A -   "
33.67, 1252.1, 0.05627088, NaN, NaN, NaN, 0.03112983, "- N/A -   "
33.69, 1253.05, 0.0563042, NaN, NaN, NaN, 0.03112983, "- N/A -   "
33.71, 1253.89, 0.05633474, NaN, NaN, NaN, 0.0323506, "- N/A -   "
33.73, 1254.6, 0.05636806, NaN, NaN, NaN, 0.0323506, "- N/A -   "
33.75, 1255.44, 0.05640416, NaN, NaN, NaN, 0.0323506, "- N/A -   "
33.77, 1256.39, 0.05643748, NaN, NaN, NaN, 0.03112983, "- N/A -   "
33.79, 1256.99, 0.05646803, NaN, NaN, NaN, 0.0335714, "- N/A -   "
33.81, 1257.82, 0.05649857, NaN, NaN, NaN, 0.0347922, "- N/A -   "
33.83, 1258.54, 0.05653189, NaN, NaN, NaN, 0.0335714, "- N/A -   "
33.85, 1259.37, 0.05656521, NaN, NaN, NaN, 0.0335714, "- N/A -   "
33.87, 1260.09, 0.0565958, NaN, NaN, NaN, 0.0347922, "- N/A -   "
33.89, 1260.92, 0.05662908, NaN, NaN, NaN, 0.0347922, "- N/A -   "
33.91, 1261.76, 0.05665962, NaN, NaN, NaN, 0.03601294, "- N/A -   "
33.93, 1262.48, 0.0566902, NaN, NaN, NaN, 0.0372337, "- N/A -   "
33.95, 1263.31, 0.05672071, NaN, NaN, NaN, 0.0384545, "- N/A -   "
33.97, 1264.03, 0.056754, NaN, NaN, NaN, 0.0384545, "- N/A -   "
33.99, 1264.86, 0.0567874, NaN, NaN, NaN, 0.0384545, "- N/A -   "
34.01, 1265.58, 0.0568179, NaN, NaN, NaN, 0.04089605, "- N/A -   "
34.03, 1266.41, 0.0568457, NaN, NaN, NaN, 0.04211683, "- N/A -   "
34.05, 1267.01, 0.05687621, NaN, NaN, NaN, 0.0433376, "- N/A -   "
34.07, 1267.603, 0.056904, NaN, NaN, NaN, 0.04577916, "- N/A -   "
34.09, 1268.44, 0.0569345, NaN, NaN, NaN, 0.04699994, "- N/A -   "
34.11, 1269.27, 0.0569678, NaN, NaN, NaN, 0.0482207, "- N/A -   "
34.13, 1270.23, 0.05700394, NaN, NaN, NaN, 0.04577916, "- N/A -   "
34.15, 1271.3, 0.05704281, NaN, NaN, NaN, 0.0433376, "- N/A -   "
34.17, 1272.13, 0.05708169, NaN, NaN, NaN, 0.04089605, "- N/A -   "
34.19, 1273.327, 0.05712056, NaN, NaN, NaN, 0.0384545, "- N/A -   "
34.21, 1274.281, 0.0571622, NaN, NaN, NaN, 0.03601294, "- N/A -   "
34.23, 1275.24, 0.0571983, NaN, NaN, NaN, 0.0335714, "- N/A -   "
34.25, 1275.95, 0.0572316, NaN, NaN, NaN, 0.0335714, "- N/A -   "
34.27, 1277.02, 0.0572677, NaN, NaN, NaN, 0.0323506, "- N/A -   "
34.29, 1277.74, 0.0572983, NaN, NaN, NaN, 0.0335714, "- N/A -   "
34.31, 1278.45, 0.0573316, NaN, NaN, NaN, 0.0335714, "- N/A -   "
34.33, 1279.29, 0.0573649, NaN, NaN, NaN, 0.0335714, "- N/A -   "
34.35, 1280.12, 0.0573982, NaN, NaN, NaN, 0.0335714, "- N/A -   "
34.37, 1280.96, 0.05743156, NaN, NaN, NaN, 0.0335714, "- N/A -   "
34.39, 1281.91, 0.0574677, NaN, NaN, NaN, 0.0335714, "- N/A -   "
34.41, 1282.87, 0.0575038, NaN, NaN, NaN, 0.03112983, "- N/A -   "
34.43, 1283.94, 0.0575426, NaN, NaN, NaN, 0.0286883, "- N/A -   "
34.45, 1284.656, 0.05757595, NaN, NaN, NaN, 0.0286883, "- N/A -   "
34.47, 1285.49, 0.057612, NaN, NaN, NaN, 0.0274675, "- N/A -   "
34.49, 1286.33, 0.05764537, NaN, NaN, NaN, 0.0286883, "- N/A -   "
34.51, 1287.16, 0.0576759, NaN, NaN, NaN, 0.0286883, "- N/A -   "
34.53, 1287.88, 0.0577065, NaN, NaN, NaN, 0.03112983, "- N/A -   "
34.55, 1288.472, 0.05773423, NaN, NaN, NaN, 0.0335714, "- N/A -   "
34.57, 1289.07, 0.0577592, NaN, NaN, NaN, 0.03601294, "- N/A -   "
34.59, 1289.78, 0.0577925, NaN, NaN, NaN, 0.0372337, "- N/A -   "
34.61, 1290.62, 0.0578203, NaN, NaN, NaN, 0.0384545, "- N/A -   "
34.63, 1291.21, 0.05784807, NaN, NaN, NaN, 0.04089605, "- N/A -   "
34.65, 1291.93, 0.0578786, NaN, NaN, NaN, 0.04211683, "- N/A -   "
34.67, 1292.77, 0.05790916, NaN, NaN, NaN, 0.0433376, "- N/A -   "
34.69, 1293.6, 0.0579425, NaN, NaN, NaN, 0.0445584, "- N/A -   "
34.71, 1294.32, 0.057973, NaN, NaN, NaN, 0.04577916, "- N/A -   "
34.73, 1295.03, 0.0580036, NaN, NaN, NaN, 0.04577916, "- N/A -   "
34.75, 1295.985, 0.0580397, NaN, NaN, NaN, 0.0445584, "- N/A -   "
34.77, 1296.939, 0.0580785, NaN, NaN, NaN, 0.0433376, "- N/A -   "
34.79, 1298.01, 0.05811464, NaN, NaN, NaN, 0.04211683, "- N/A -   "
34.81, 1298.73, 0.0581535, NaN, NaN, NaN, 0.0396753, "- N/A -   "
34.83, 1299.92, 0.0581896, NaN, NaN, NaN, 0.0372337, "- N/A -   "
34.85, 1300.755, 0.05822849, NaN, NaN, NaN, 0.0347922, "- N/A -   "
34.87, 1301.709, 0.0582646, NaN, NaN, NaN, 0.0335714, "- N/A -   "
34.89, 1302.54, 0.0582979, NaN, NaN, NaN, 0.0335714, "- N/A -   "
34.91, 1303.5, 0.0583312, NaN, NaN, NaN, 0.0335714, "- N/A -   "
34.93, 1304.094, 0.0583645, NaN, NaN, NaN, 0.0335714, "- N/A -   "
34.95, 1305.05, 0.0583979, NaN, NaN, NaN, 0.0335714, "- N/A -   "
34.97, 1305.88, 0.0584367, NaN, NaN, NaN, 0.0323506, "- N/A -   "
34.99, 1306.84, 0.0584701, NaN, NaN, NaN, 0.03112983, "- N/A -   "
35.01, 1307.79, 0.05850894, NaN, NaN, NaN, 0.0299091, "- N/A -   "
35.03, 1308.63, 0.05854226, NaN, NaN, NaN, 0.0286883, "- N/A -   "
35.05, 1309.58, 0.0585784, NaN, NaN, NaN, 0.0286883, "- N/A -   "
35.07, 1310.41, 0.0586117, NaN, NaN, NaN, 0.0286883, "- N/A -   "
35.09, 1311.25, 0.0586478, NaN, NaN, NaN, 0.0274675, "- N/A -   "
35.11, 1312.084, 0.0586811, NaN, NaN, NaN, 0.0262467, "- N/A -   "
35.13, 1312.8, 0.0587089, NaN, NaN, NaN, 0.0286883, "- N/A -   "
35.15, 1313.63, 0.05873941, NaN, NaN, NaN, 0.0299091, "- N/A -   "
35.17, 1314.23, 0.0587672, NaN, NaN, NaN, 0.0335714, "- N/A -   "
35.19, 1315.07, 0.05879772, NaN, NaN, NaN, 0.0347922, "- N/A -   "
35.21, 1315.78, 0.058831, NaN, NaN, NaN, 0.03601294, "- N/A -   "
35.23, 1316.5, 0.0588588, NaN, NaN, NaN, 0.0372337, "- N/A -   "
35.25, 1317.09, 0.05888658, NaN, NaN, NaN, 0.0396753, "- N/A -   "
35.27, 1317.69, 0.0589143, NaN, NaN, NaN, 0.04211683, "- N/A -   "
35.29, 1318.4, 0.05894489, NaN, NaN, NaN, 0.0445584, "- N/A -   "
35.31, 1319.239, 0.0589754, NaN, NaN, NaN, 0.0445584, "- N/A -   "
35.33, 1320.07, 0.0590088, NaN, NaN, NaN, 0.0445584, "- N/A -   "
35.35, 1320.79, 0.0590421, NaN, NaN, NaN, 0.04577916, "- N/A -   "
35.37, 1321.74, 0.0590754, NaN, NaN, NaN, 0.0445584, "- N/A -   "
35.39, 1322.58, 0.0591087, NaN, NaN, NaN, 0.0445584, "- N/A -   "
35.41, 1323.41, 0.05914204, NaN, NaN, NaN, 0.04577916, "- N/A -   "
35.43, 1324.13, 0.0591754, NaN, NaN, NaN, 0.0445584, "- N/A -   "
35.45, 1325.08, 0.0592087, NaN, NaN, NaN, 0.0445584, "- N/A -   "
35.47, 1325.92, 0.059242, NaN, NaN, NaN, 0.04577916, "- N/A -   "
35.49, 1326.752, 0.05927532, NaN, NaN, NaN, 0.0445584, "- N/A -   "
35.51, 1327.71, 0.0593142, NaN, NaN, NaN, 0.0433376, "- N/A -   "
35.53, 1328.66, 0.0593503, NaN, NaN, NaN, 0.04089605, "- N/A -   "
35.55, 1329.61, 0.0593892, NaN, NaN, NaN, 0.0384545, "- N/A -   "
35.57, 1330.69, 0.05943082, NaN, NaN, NaN, 0.0347922, "- N/A -   "
35.59, 1331.76, 0.0594697, NaN, NaN, NaN, 0.0323506, "- N/A -   "
35.61, 1332.71, 0.05951135, NaN, NaN, NaN, 0.0299091, "- N/A -   "
35.63, 1333.55, 0.0595447, NaN, NaN, NaN, 0.0286883, "- N/A -   "
35.65, 1334.384, 0.0595808, NaN, NaN, NaN, 0.0286883, "- N/A -   "
35.67, 1335.22, 0.05961409, NaN, NaN, NaN, 0.0274675, "- N/A -   "
35.69, 1336.05, 0.0596474, NaN, NaN, NaN, 0.0286883, "- N/A -   "
35.71, 1336.77, 0.0596752, NaN, NaN, NaN, 0.0299091, "- N/A -   "
35.73, 1337.48, 0.0597029, NaN, NaN, NaN, 0.0323506, "- N/A -   "
35.75, 1338.08, 0.0597335, NaN, NaN, NaN, 0.0347922, "- N/A -   "
35.77, 1338.92, 0.059764, NaN, NaN, NaN, 0.03601294, "- N/A -   "
35.79, 1339.75, 0.0597946, NaN, NaN, NaN, 0.03601294, "- N/A -   "
35.81, 1340.59, 0.05982512, NaN, NaN, NaN, 0.0372337, "- N/A -   "
35.83, 1341.18, 0.05985844, NaN, NaN, NaN, 0.0384545, "- N/A -   "
35.85, 1342.14, 0.05989176, NaN, NaN, NaN, 0.0372337, "- N/A -   "
35.87, 1343.09, 0.05992786, NaN, NaN, NaN, 0.03601294, "- N/A -   "
35.89, 1343.92, 0.0599612, NaN, NaN, NaN, 0.03601294, "- N/A -   "
35.91, 1344.759, 0.0599945, NaN, NaN, NaN, 0.03601294, "- N/A -   "
35.93, 1345.47, 0.06002782, NaN, NaN, NaN, 0.0372337, "- N/A -   "
35.95, 1346.31, 0.06005559, NaN, NaN, NaN, 0.0384545, "- N/A -   "
35.97, 1346.91, 0.0600834, NaN, NaN, NaN, 0.04089605, "- N/A -   "
35.99, 1347.62, 0.0601139, NaN, NaN, NaN, 0.0433376, "- N/A -   "
36.01, 1348.46, 0.0601444, NaN, NaN, NaN, 0.0433376, "- N/A -   "
36.03, 1349.29, 0.0601778, NaN, NaN, NaN, 0.0433376, "- N/A -   "
36.05, 1349.89, 0.06020831, NaN, NaN, NaN, 0.0445584, "- N/A -   "
36.07, 1350.84, 0.06024163, NaN, NaN, NaN, 0.04577916, "- N/A -   "
36.09, 1351.68, 0.060275, NaN, NaN, NaN, 0.0445584, "- N/A -   "
36.11, 1352.63, 0.0603111, NaN, NaN, NaN, 0.0433376, "- N/A -   "
36.13, 1353.46, 0.0603499, NaN, NaN, NaN, 0.04211683, "- N/A -   "
36.15, 1354.54, 0.0603888, NaN, NaN, NaN, 0.0396753, "- N/A -   "
36.17, 1355.611, 0.0604305, NaN, NaN, NaN, 0.03601294, "- N/A -   "
36.19, 1356.565, 0.0604693, NaN, NaN, NaN, 0.0323506, "- N/A -   "
36.21, 1357.64, 0.0605054, NaN, NaN, NaN, 0.03112983, "- N/A -   "
36.23, 1358.35, 0.06054152, NaN, NaN, NaN, 0.0299091, "- N/A -   "
36.25, 1359.31, 0.0605748, NaN, NaN, NaN, 0.0299091, "- N/A -   "
36.27, 1360.14, 0.0606082, NaN, NaN, NaN, 0.03112983, "- N/A -   "
36.29, 1360.858, 0.0606359, NaN, NaN, NaN, 0.0323506, "- N/A -   "
36.31, 1361.45, 0.0606665, NaN, NaN, NaN, 0.0335714, "- N/A -   "
36.33, 1362.17, 0.06069702, NaN, NaN, NaN, 0.0347922, "- N/A -   "
36.35, 1363.12, 0.06073034, NaN, NaN, NaN, 0.0347922, "- N/A -   "
36.37, 1363.96, 0.06076088, NaN, NaN, NaN, 0.03601294, "- N/A -   "
36.39, 1364.55, 0.06079143, NaN, NaN, NaN, 0.0372337, "- N/A -   "
36.41, 1365.39, 0.06082475, NaN, NaN, NaN, 0.0384545, "- N/A -   "
36.43, 1366.34, 0.06086085, NaN, NaN, NaN, 0.03601294, "- N/A -   "
36.45, 1367.42, 0.06089972, NaN, NaN, NaN, 0.0335714, "- N/A -   "
36.47, 1368.37, 0.0609358, NaN, NaN, NaN, 0.0323506, "- N/A -   "
36.49, 1369.32, 0.0609747, NaN, NaN, NaN, 0.03112983, "- N/A -   "
36.51, 1370.04, 0.0610052, NaN, NaN, NaN, 0.03112983, "- N/A -   "
36.53, 1370.76, 0.0610358, NaN, NaN, NaN, 0.0323506, "- N/A -   "
36.55, 1371.59, 0.0610663, NaN, NaN, NaN, 0.0335714, "- N/A -   "
36.57, 1372.31, 0.06109687, NaN, NaN, NaN, 0.0347922, "- N/A -   "
36.59, 1373.02, 0.06112464, NaN, NaN, NaN, 0.0372337, "- N/A -   "
36.61, 1373.74, 0.06115518, NaN, NaN, NaN, 0.0384545, "- N/A -   "
36.63, 1374.45, 0.0611857, NaN, NaN, NaN, 0.0396753, "- N/A -   "
36.65, 1375.17, 0.0612163, NaN, NaN, NaN, 0.04211683, "- N/A -   "
36.67, 1375.88, 0.0612468, NaN, NaN, NaN, 0.0433376, "- N/A -   "
36.69, 1376.72, 0.06128014, NaN, NaN, NaN, 0.0433376, "- N/A -   "
36.71, 1377.67, 0.0613162, NaN, NaN, NaN, 0.04089605, "- N/A -   "
36.73, 1378.51, 0.06135233, NaN, NaN, NaN, 0.0396753, "- N/A -   "
36.75, 1379.46, 0.06138843, NaN, NaN, NaN, 0.0396753, "- N/A -   "
36.77, 1380.42, 0.0614218, NaN, NaN, NaN, 0.0384545, "- N/A -   "
36.79, 1381.13, 0.06145507, NaN, NaN, NaN, 0.0384545, "- N/A -   "
36.81, 1381.97, 0.0614856, NaN, NaN, NaN, 0.0396753, "- N/A -   "
36.83, 1382.68, 0.06151894, NaN, NaN, NaN, 0.0396753, "- N/A -   "
36.85, 1383.64, 0.06155226, NaN, NaN, NaN, 0.0396753, "- N/A -   "
36.87, 1384.35, 0.0615884, NaN, NaN, NaN, 0.0396753, "- N/A -   "
36.89, 1385.3, 0.0616189, NaN, NaN, NaN, 0.0396753, "- N/A -   "
36.91, 1386.14, 0.0616578, NaN, NaN, NaN, 0.0384545, "- N/A -   "
36.93, 1387.09, 0.0616911, NaN, NaN, NaN, 0.0372337, "- N/A -   "
36.95, 1387.93, 0.0617272, NaN, NaN, NaN, 0.03601294, "- N/A -   "
36.97, 1388.88, 0.0617633, NaN, NaN, NaN, 0.03601294, "- N/A -   "
36.99, 1389.6, 0.0617966, NaN, NaN, NaN, 0.0347922, "- N/A -   "
37.01, 1390.671, 0.06183271, NaN, NaN, NaN, 0.0335714, "- N/A -   "
37.03, 1391.51, 0.06186881, NaN, NaN, NaN, 0.0335714, "- N/A -   "
37.05, 1392.46, 0.06190213, NaN, NaN, NaN, 0.0323506, "- N/A -   "
37.07, 1393.29, 0.06193545, NaN, NaN, NaN, 0.0323506, "- N/A -   "
37.09, 1394.13, 0.06196877, NaN, NaN, NaN, 0.0323506, "- N/A -   "
37.11, 1394.96, 0.0620021, NaN, NaN, NaN, 0.0323506, "- N/A -   "
37.13, 1395.68, 0.0620354, NaN, NaN, NaN, 0.0323506, "- N/A -   "
37.15, 1396.4, 0.0620687, NaN, NaN, NaN, 0.0335714, "- N/A -   "
37.17, 1397.23, 0.0621021, NaN, NaN, NaN, 0.0335714, "- N/A -   "
37.19, 1397.95, 0.0621326, NaN, NaN, NaN, 0.0335714, "- N/A -   "
37.21, 1398.78, 0.0621631, NaN, NaN, NaN, 0.0347922, "- N/A -   "
37.23, 1399.5, 0.06219369, NaN, NaN, NaN, 0.03601294, "- N/A -   "
37.25, 1400.45, 0.06222979, NaN, NaN, NaN, 0.0347922, "- N/A -   "
37.27, 1401.28, 0.0622659, NaN, NaN, NaN, 0.0347922, "- N/A -   "
37.29, 1402.0, 0.0622992, NaN, NaN, NaN, 0.0335714, "- N/A -   "
37.31, 1402.83, 0.06232975, NaN, NaN, NaN, 0.0347922, "- N/A -   "
37.33, 1403.431, 0.0623575, NaN, NaN, NaN, 0.0372337, "- N/A -   "
37.35, 1404.27, 0.0623853, NaN, NaN, NaN, 0.0396753, "- N/A -   "
37.37, 1404.98, 0.0624158, NaN, NaN, NaN, 0.04211683, "- N/A -   "
37.39, 1405.7, 0.06244637, NaN, NaN, NaN, 0.0433376, "- N/A -   "
37.41, 1406.53, 0.0624797, NaN, NaN, NaN, 0.0433376, "- N/A -   "
37.43, 1407.247, 0.062513, NaN, NaN, NaN, 0.04211683, "- N/A -   "
37.45, 1408.08, 0.0625463, NaN, NaN, NaN, 0.04211683, "- N/A -   "
37.47, 1408.92, 0.0625797, NaN, NaN, NaN, 0.0433376, "- N/A -   "
37.49, 1409.99, 0.06261298, NaN, NaN, NaN, 0.0433376, "- N/A -   "
37.51, 1410.71, 0.0626463, NaN, NaN, NaN, 0.04211683, "- N/A -   "
37.53, 1411.54, 0.06267962, NaN, NaN, NaN, 0.04211683, "- N/A -   "
37.55, 1412.37, 0.06271294, NaN, NaN, NaN, 0.04211683, "- N/A -   "
37.57, 1413.45, 0.0627518, NaN, NaN, NaN, 0.0396753, "- N/A -   "
37.59, 1414.4, 0.06279347, NaN, NaN, NaN, 0.0372337, "- N/A -   "
37.606, 1415.24, 0.06282123, NaN, NaN, NaN, 0.03601294, "- N/A -   "