File: 2_Tensile_Data/Hamel_ForceTest_Bolt8_Test6.csv
Time, Load (lb), Position (in), AxialStrain (in), TransverseStrain (in), Auxiliary (), Control Out (V), Stress (psi)
0.0, 7.430691, 0.0, NaN, NaN, NaN, -0.007935055, "- N/A -   "
0.01, 7.430691, 0.0, NaN, NaN, NaN, -6.103888E-4, "- N/A -   "
0.02, 7.548638, 0.0, NaN, NaN, NaN, 0.006714277, "- N/A -   "
0.03, 7.430691, 2.776752E-6, NaN, NaN, NaN, 0.0128182, "- N/A -   "
0.04, 7.548638, 2.776752E-6, NaN, NaN, NaN, 0.0299091, "- N/A -   "
0.05, 7.548638, 8.330256E-6, NaN, NaN, NaN, 0.04699994, "- N/A -   "
0.06, 7.666586, 1.94373e-05, NaN, NaN, NaN, 0.06164927, "- N/A -   "
0.07, 7.90248, 3.3321e-05, NaN, NaN, NaN, 0.0750778, "- N/A -   "
0.08, 8.37427, 5.5535e-05, NaN, NaN, NaN, 0.08606482, "- N/A -   "
0.09, 8.610166, 7.774905E-5, NaN, NaN, NaN, 0.09461027, "- N/A -   "
0.1, 8.964007, 0.000105517, NaN, NaN, NaN, 0.103156, "- N/A -   "
0.11, 9.435798, 0.000136061, NaN, NaN, NaN, 0.104376, "- N/A -   "
0.12, 9.78964, 0.000166605, NaN, NaN, NaN, 0.0982726, "- N/A -   "
0.13, 10.3794, 0.000194373, NaN, NaN, NaN, 0.09338949, "- N/A -   "
0.14, 10.73322, 2.193634E-4, NaN, NaN, NaN, 0.0897272, "- N/A -   "
0.15, 11.0871, 0.000244354, NaN, NaN, NaN, 0.08606482, "- N/A -   "
0.16, 11.4409, 0.000269345, NaN, NaN, NaN, 0.08240249, "- N/A -   "
0.17, 11.7947, 0.000294336, NaN, NaN, NaN, 0.0799609, "- N/A -   "
0.18, 12.14859, 3.165497E-4, NaN, NaN, NaN, 0.0762986, "- N/A -   "
0.19, 12.3845, 0.000338764, NaN, NaN, NaN, 0.0750778, "- N/A -   "
0.2, 12.7383, 0.000358201, NaN, NaN, NaN, 0.07263627, "- N/A -   "
0.21, 13.09217, 3.80415E-4, NaN, NaN, NaN, 0.0701947, "- N/A -   "
0.22, 13.3281, 0.000399852, NaN, NaN, NaN, 0.0689739, "- N/A -   "
0.23, 13.7999, 4.192895E-4, NaN, NaN, NaN, 0.06775316, "- N/A -   "
0.24, 13.9178, 4.387268E-4, NaN, NaN, NaN, 0.06653238, "- N/A -   "
0.25, 14.3896, 4.609408E-4, NaN, NaN, NaN, 0.0640908, "- N/A -   "
0.26, 14.6255, 0.000480378, NaN, NaN, NaN, 0.06287005, "- N/A -   "
0.27, 14.9793, 0.000502592, NaN, NaN, NaN, 0.0604285, "- N/A -   "
0.28, 15.3332, 5.248061E-4, NaN, NaN, NaN, 0.0579869, "- N/A -   "
0.29, 15.687, 5.470201E-4, NaN, NaN, NaN, 0.0555454, "- N/A -   "
0.3, 16.0409, 0.000569234, NaN, NaN, NaN, 0.0531038, "- N/A -   "
0.31, 16.27675, 0.000591448, NaN, NaN, NaN, 0.05066227, "- N/A -   "
0.32, 16.6306, 6.136621E-4, NaN, NaN, NaN, 0.0494415, "- N/A -   "
0.33, 16.9844, 6.330994E-4, NaN, NaN, NaN, 0.04699994, "- N/A -   "
0.34, 17.3383, 0.000655313, NaN, NaN, NaN, 0.0445584, "- N/A -   "
0.35, 17.6921, 0.000677527, NaN, NaN, NaN, 0.0433376, "- N/A -   "
0.36, 17.928, 6.969647E-4, NaN, NaN, NaN, 0.04211683, "- N/A -   "
0.37, 18.3998, 0.000716402, NaN, NaN, NaN, 0.0396753, "- N/A -   "
0.38, 18.6357, 0.000735839, NaN, NaN, NaN, 0.0396753, "- N/A -   "
0.39, 18.8716, 0.0007525, NaN, NaN, NaN, 0.0396753, "- N/A -   "
0.4, 19.1075, 7.691603E-4, NaN, NaN, NaN, 0.0384545, "- N/A -   "
0.41, 19.4613, 7.885975E-4, NaN, NaN, NaN, 0.0384545, "- N/A -   "
0.42, 19.6972, 0.000802481, NaN, NaN, NaN, 0.0384545, "- N/A -   "
0.43, 20.05107, 8.191418E-4, NaN, NaN, NaN, 0.0384545, "- N/A -   "
0.44, 20.169, 8.38579E-4, NaN, NaN, NaN, 0.0384545, "- N/A -   "
0.45, 20.52286, 8.524628E-4, NaN, NaN, NaN, 0.0384545, "- N/A -   "
0.46, 20.7588, 8.691233E-4, NaN, NaN, NaN, 0.0384545, "- N/A -   "
0.47, 20.99465, 8.857838E-4, NaN, NaN, NaN, 0.0384545, "- N/A -   "
0.48, 21.3485, 9.052211E-4, NaN, NaN, NaN, 0.0384545, "- N/A -   "
0.49, 21.5844, 9.218816E-4, NaN, NaN, NaN, 0.0384545, "- N/A -   "
0.5, 21.8203, 9.385421E-4, NaN, NaN, NaN, 0.0372337, "- N/A -   "
0.51, 22.1741, 0.000957979, NaN, NaN, NaN, 0.0372337, "- N/A -   "
0.52, 22.41, 9.746399E-4, NaN, NaN, NaN, 0.03601294, "- N/A -   "
0.53, 22.7639, 9.940772E-4, NaN, NaN, NaN, 0.0347922, "- N/A -   "
0.54, 23.1177, 0.00101074, NaN, NaN, NaN, 0.0347922, "- N/A -   "
0.55, 23.4715, 0.00103295, NaN, NaN, NaN, 0.0335714, "- N/A -   "
0.56, 23.7074, 0.00104961, NaN, NaN, NaN, 0.0323506, "- N/A -   "
0.57, 24.0613, 0.00106905, NaN, NaN, NaN, 0.03112983, "- N/A -   "
0.58, 24.29718, 0.00108571, NaN, NaN, NaN, 0.03112983, "- N/A -   "
0.59, 24.65102, 0.00110237, NaN, NaN, NaN, 0.03112983, "- N/A -   "
0.6, 24.8869, 0.00112181, NaN, NaN, NaN, 0.03112983, "- N/A -   "
0.61, 25.2408, 0.00113847, NaN, NaN, NaN, 0.0299091, "- N/A -   "
0.62, 25.4767, 0.00115791, NaN, NaN, NaN, 0.0286883, "- N/A -   "
0.63, 25.7125, 0.00117179, NaN, NaN, NaN, 0.0299091, "- N/A -   "
0.64, 25.8305, 0.001185673, NaN, NaN, NaN, 0.03112983, "- N/A -   "
0.65, 26.3023, 0.00120233, NaN, NaN, NaN, 0.0323506, "- N/A -   "
0.66, 26.4202, 0.00121622, NaN, NaN, NaN, 0.0323506, "- N/A -   "
0.67, 26.6561, 0.0012301, NaN, NaN, NaN, 0.0335714, "- N/A -   "
0.68, 26.892, 0.00124676, NaN, NaN, NaN, 0.0347922, "- N/A -   "
0.69, 27.1279, 0.00126065, NaN, NaN, NaN, 0.0347922, "- N/A -   "
0.7, 27.3638, 0.001274529, NaN, NaN, NaN, 0.03601294, "- N/A -   "
0.71, 27.4818, 0.00128841, NaN, NaN, NaN, 0.0372337, "- N/A -   "
0.72, 27.7177, 0.00129952, NaN, NaN, NaN, 0.0396753, "- N/A -   "
0.73, 27.95355, 0.0013134, NaN, NaN, NaN, 0.04089605, "- N/A -   "
0.74, 28.1894, 0.00132729, NaN, NaN, NaN, 0.04211683, "- N/A -   "
0.75, 28.42534, 0.00134117, NaN, NaN, NaN, 0.0433376, "- N/A -   "
0.76, 28.6612, 0.00135783, NaN, NaN, NaN, 0.0445584, "- N/A -   "
0.77, 29.0151, 0.00137172, NaN, NaN, NaN, 0.04577916, "- N/A -   "
0.78, 29.133, 0.00138838, NaN, NaN, NaN, 0.04577916, "- N/A -   "
0.79, 29.4869, 0.00140504, NaN, NaN, NaN, 0.04577916, "- N/A -   "
0.8, 29.7228, 0.001421697, NaN, NaN, NaN, 0.04577916, "- N/A -   "
0.81, 29.9587, 0.00143558, NaN, NaN, NaN, 0.04577916, "- N/A -   "
0.82, 30.3125, 0.001455018, NaN, NaN, NaN, 0.0445584, "- N/A -   "
0.83, 30.6663, 0.00147168, NaN, NaN, NaN, 0.04577916, "- N/A -   "
0.84, 30.9022, 0.00148556, NaN, NaN, NaN, 0.04577916, "- N/A -   "
0.85, 31.2561, 0.001505, NaN, NaN, NaN, 0.04577916, "- N/A -   "
0.86, 31.492, 0.00152166, NaN, NaN, NaN, 0.04577916, "- N/A -   "
0.87, 31.72787, 0.00153832, NaN, NaN, NaN, 0.0445584, "- N/A -   "
0.88, 32.1997, 0.00155776, NaN, NaN, NaN, 0.0445584, "- N/A -   "
0.89, 32.4356, 0.00157442, NaN, NaN, NaN, 0.0433376, "- N/A -   "
0.9, 32.7894, 0.00159386, NaN, NaN, NaN, 0.04211683, "- N/A -   "
0.91, 33.1432, 0.00161329, NaN, NaN, NaN, 0.04089605, "- N/A -   "
0.92, 33.3791, 0.00163273, NaN, NaN, NaN, 0.04089605, "- N/A -   "
0.93, 33.73298, 0.00164939, NaN, NaN, NaN, 0.0396753, "- N/A -   "
0.94, 34.08682, 0.00166883, NaN, NaN, NaN, 0.0384545, "- N/A -   "
0.95, 34.3227, 0.00168827, NaN, NaN, NaN, 0.0384545, "- N/A -   "
0.96, 34.6766, 0.00170493, NaN, NaN, NaN, 0.0372337, "- N/A -   "
0.97, 34.9125, 0.00172159, NaN, NaN, NaN, 0.0372337, "- N/A -   "
0.98, 35.2663, 0.00174102, NaN, NaN, NaN, 0.03601294, "- N/A -   "
0.99, 35.50219, 0.00175768, NaN, NaN, NaN, 0.03601294, "- N/A -   "
1, 35.97398, 0.00177712, NaN, NaN, NaN, 0.0347922, "- N/A -   "
1.01, 36.32782, 0.00179378, NaN, NaN, NaN, 0.0347922, "- N/A -   "
1.02, 36.6817, 0.00181044, NaN, NaN, NaN, 0.0347922, "- N/A -   "
1.03, 36.9176, 0.00182988, NaN, NaN, NaN, 0.0335714, "- N/A -   "
1.04, 37.0355, 0.00184654, NaN, NaN, NaN, 0.0347922, "- N/A -   "
1.05, 37.3893, 0.00186042, NaN, NaN, NaN, 0.0347922, "- N/A -   "
1.06, 37.74319, 0.001879861, NaN, NaN, NaN, 0.0347922, "- N/A -   "
1.07, 37.8611, 0.00189652, NaN, NaN, NaN, 0.0335714, "- N/A -   "
1.08, 38.3329, 0.001913182, NaN, NaN, NaN, 0.0335714, "- N/A -   "
1.09, 38.68677, 0.00193262, NaN, NaN, NaN, 0.0335714, "- N/A -   "
1.1, 38.9227, 0.00194928, NaN, NaN, NaN, 0.0323506, "- N/A -   "
1.11, 39.2765, 0.00196594, NaN, NaN, NaN, 0.0323506, "- N/A -   "
1.12, 39.5124, 0.00198538, NaN, NaN, NaN, 0.03112983, "- N/A -   "
1.13, 39.8662, 0.002002038, NaN, NaN, NaN, 0.03112983, "- N/A -   "
1.14, 40.22009, 0.002024252, NaN, NaN, NaN, 0.0299091, "- N/A -   "
1.15, 40.57393, 0.00204091, NaN, NaN, NaN, 0.0299091, "- N/A -   "
1.16, 40.8098, 0.002057573, NaN, NaN, NaN, 0.0286883, "- N/A -   "
1.17, 41.04572, 0.00207423, NaN, NaN, NaN, 0.0299091, "- N/A -   "
1.18, 41.39956, 0.00209089, NaN, NaN, NaN, 0.0299091, "- N/A -   "
1.19, 41.7534, 0.00210755, NaN, NaN, NaN, 0.0286883, "- N/A -   "
1.2, 41.9893, 0.00212422, NaN, NaN, NaN, 0.0299091, "- N/A -   "
1.21, 42.3431, 0.00214088, NaN, NaN, NaN, 0.0286883, "- N/A -   "
1.22, 42.579, 0.002157536, NaN, NaN, NaN, 0.0299091, "- N/A -   "
1.23, 42.93288, 0.0021742, NaN, NaN, NaN, 0.0299091, "- N/A -   "
1.24, 43.1688, 0.00219086, NaN, NaN, NaN, 0.0286883, "- N/A -   "
1.25, 43.5226, 0.002204741, NaN, NaN, NaN, 0.0299091, "- N/A -   "
1.26, 43.87646, 0.0022214, NaN, NaN, NaN, 0.0299091, "- N/A -   "
1.27, 43.9944, 0.00223529, NaN, NaN, NaN, 0.03112983, "- N/A -   "
1.28, 44.34825, 0.002249169, NaN, NaN, NaN, 0.0323506, "- N/A -   "
1.29, 44.58414, 0.00226583, NaN, NaN, NaN, 0.0335714, "- N/A -   "
1.3, 44.82, 0.00227971, NaN, NaN, NaN, 0.0335714, "- N/A -   "
1.31, 45.17388, 0.00229637, NaN, NaN, NaN, 0.0335714, "- N/A -   "
1.32, 45.40978, 0.00231303, NaN, NaN, NaN, 0.0335714, "- N/A -   "
1.33, 45.76362, 0.002326918, NaN, NaN, NaN, 0.03601294, "- N/A -   "
1.34, 45.9995, 0.002338025, NaN, NaN, NaN, 0.0372337, "- N/A -   "
1.35, 46.23541, 0.00235191, NaN, NaN, NaN, 0.0384545, "- N/A -   "
1.36, 46.3534, 0.00236857, NaN, NaN, NaN, 0.0396753, "- N/A -   "
1.37, 46.8251, 0.002382453, NaN, NaN, NaN, 0.0396753, "- N/A -   "
1.38, 46.9431, 0.00239634, NaN, NaN, NaN, 0.04089605, "- N/A -   "
1.39, 47.2969, 0.00241022, NaN, NaN, NaN, 0.04211683, "- N/A -   "
1.4, 47.5328, 0.0024241, NaN, NaN, NaN, 0.0433376, "- N/A -   "
1.41, 47.8867, 0.00244076, NaN, NaN, NaN, 0.0433376, "- N/A -   "
1.42, 48.12257, 0.00245743, NaN, NaN, NaN, 0.0433376, "- N/A -   "
1.43, 48.47641, 0.00247131, NaN, NaN, NaN, 0.0445584, "- N/A -   "
1.44, 48.7123, 0.00248797, NaN, NaN, NaN, 0.0445584, "- N/A -   "
1.45, 49.0661, 0.00250463, NaN, NaN, NaN, 0.0445584, "- N/A -   "
1.46, 49.41999, 0.00252129, NaN, NaN, NaN, 0.0445584, "- N/A -   "
1.47, 49.6559, 0.00253795, NaN, NaN, NaN, 0.0445584, "- N/A -   "
1.48, 50.0097, 0.00255461, NaN, NaN, NaN, 0.0445584, "- N/A -   "
1.49, 50.3636, 0.00257127, NaN, NaN, NaN, 0.0445584, "- N/A -   "
1.5, 50.5995, 0.00258793, NaN, NaN, NaN, 0.0445584, "- N/A -   "
1.51, 50.9533, 0.00260459, NaN, NaN, NaN, 0.0445584, "- N/A -   "
1.52, 51.30715, 0.00262125, NaN, NaN, NaN, 0.0445584, "- N/A -   "
1.53, 51.66099, 0.00263791, NaN, NaN, NaN, 0.04577916, "- N/A -   "
1.54, 51.89689, 0.00265457, NaN, NaN, NaN, 0.04577916, "- N/A -   "
1.55, 52.25073, 0.00267124, NaN, NaN, NaN, 0.0445584, "- N/A -   "
1.56, 52.48662, 0.0026879, NaN, NaN, NaN, 0.0445584, "- N/A -   "
1.57, 52.72252, 0.00270456, NaN, NaN, NaN, 0.0445584, "- N/A -   "
1.58, 53.3123, 0.00272122, NaN, NaN, NaN, 0.0445584, "- N/A -   "
1.59, 53.6661, 0.00273788, NaN, NaN, NaN, 0.0445584, "- N/A -   "
1.6, 53.902, 0.00275454, NaN, NaN, NaN, 0.0445584, "- N/A -   "
1.61, 54.2558, 0.002773975, NaN, NaN, NaN, 0.0433376, "- N/A -   "
1.62, 54.6097, 0.00279064, NaN, NaN, NaN, 0.0433376, "- N/A -   "
1.63, 55.0815, 0.00281285, NaN, NaN, NaN, 0.04211683, "- N/A -   "
1.64, 55.3174, 0.00283229, NaN, NaN, NaN, 0.04089605, "- N/A -   "
1.65, 55.7892, 0.002851724, NaN, NaN, NaN, 0.0384545, "- N/A -   "
1.66, 56.143, 0.00287116, NaN, NaN, NaN, 0.0372337, "- N/A -   "
1.67, 56.4968, 0.0028906, NaN, NaN, NaN, 0.03601294, "- N/A -   "
1.68, 56.9686, 0.002910036, NaN, NaN, NaN, 0.0347922, "- N/A -   "
1.69, 57.32247, 0.002929473, NaN, NaN, NaN, 0.0335714, "- N/A -   "
1.7, 57.79426, 0.00294891, NaN, NaN, NaN, 0.0323506, "- N/A -   "
1.71, 58.1481, 0.00296835, NaN, NaN, NaN, 0.03112983, "- N/A -   "
1.72, 58.5019, 0.002987785, NaN, NaN, NaN, 0.0299091, "- N/A -   "
1.73, 58.7378, 0.00300445, NaN, NaN, NaN, 0.0299091, "- N/A -   "
1.74, 59.2096, 0.00302388, NaN, NaN, NaN, 0.0286883, "- N/A -   "
1.75, 59.5635, 0.00303777, NaN, NaN, NaN, 0.0299091, "- N/A -   "
1.76, 59.79937, 0.003054427, NaN, NaN, NaN, 0.03112983, "- N/A -   "
1.77, 60.0353, 0.00307109, NaN, NaN, NaN, 0.03112983, "- N/A -   "
1.78, 60.3891, 0.003084971, NaN, NaN, NaN, 0.03112983, "- N/A -   "
1.79, 60.7429, 0.003101632, NaN, NaN, NaN, 0.03112983, "- N/A -   "
1.8, 60.97884, 0.00311829, NaN, NaN, NaN, 0.03112983, "- N/A -   "
1.81, 61.3327, 0.00313495, NaN, NaN, NaN, 0.03112983, "- N/A -   "
1.82, 61.6865, 0.003151613, NaN, NaN, NaN, 0.03112983, "- N/A -   "
1.83, 62.0404, 0.003168274, NaN, NaN, NaN, 0.0323506, "- N/A -   "
1.84, 62.3942, 0.00318493, NaN, NaN, NaN, 0.0323506, "- N/A -   "
1.85, 62.7481, 0.003198818, NaN, NaN, NaN, 0.0323506, "- N/A -   "
1.86, 63.1019, 0.003215479, NaN, NaN, NaN, 0.0323506, "- N/A -   "
1.87, 63.33779, 0.00323214, NaN, NaN, NaN, 0.0323506, "- N/A -   "
1.88, 63.6916, 0.003246023, NaN, NaN, NaN, 0.0335714, "- N/A -   "
1.89, 63.92753, 0.00326268, NaN, NaN, NaN, 0.0335714, "- N/A -   "
1.9, 64.28137, 0.003279344, NaN, NaN, NaN, 0.0335714, "- N/A -   "
1.91, 64.6352, 0.00329323, NaN, NaN, NaN, 0.0347922, "- N/A -   "
1.92, 64.98906, 0.00330711, NaN, NaN, NaN, 0.03601294, "- N/A -   "
1.93, 65.22495, 0.003323772, NaN, NaN, NaN, 0.03601294, "- N/A -   "
1.94, 65.4608, 0.00334043, NaN, NaN, NaN, 0.03601294, "- N/A -   "
1.95, 65.81469, 0.003357093, NaN, NaN, NaN, 0.03601294, "- N/A -   "
1.96, 66.2865, 0.00337375, NaN, NaN, NaN, 0.0372337, "- N/A -   "
1.97, 66.52237, 0.00338764, NaN, NaN, NaN, 0.0372337, "- N/A -   "
1.98, 66.87622, 0.003404298, NaN, NaN, NaN, 0.0372337, "- N/A -   "
1.99, 67.23006, 0.003423735, NaN, NaN, NaN, 0.03601294, "- N/A -   "
2, 67.70185, 0.0034404, NaN, NaN, NaN, 0.03601294, "- N/A -   "
2.01, 67.9377, 0.00345706, NaN, NaN, NaN, 0.03601294, "- N/A -   "
2.02, 68.29159, 0.00347372, NaN, NaN, NaN, 0.03601294, "- N/A -   "
2.03, 68.52748, 0.00349038, NaN, NaN, NaN, 0.03601294, "- N/A -   "
2.04, 68.8813, 0.00350704, NaN, NaN, NaN, 0.03601294, "- N/A -   "
2.05, 69.23517, 0.003523698, NaN, NaN, NaN, 0.0372337, "- N/A -   "
2.06, 69.589, 0.003537582, NaN, NaN, NaN, 0.0372337, "- N/A -   "
2.07, 69.8249, 0.00355147, NaN, NaN, NaN, 0.0384545, "- N/A -   "
2.08, 70.29669, 0.00356813, NaN, NaN, NaN, 0.0384545, "- N/A -   "
2.09, 70.5326, 0.00358479, NaN, NaN, NaN, 0.0396753, "- N/A -   "
2.1, 70.7685, 0.00359867, NaN, NaN, NaN, 0.04089605, "- N/A -   "
2.11, 71.12233, 0.00361255, NaN, NaN, NaN, 0.04089605, "- N/A -   "
2.12, 71.24027, 0.003626438, NaN, NaN, NaN, 0.04211683, "- N/A -   "
2.13, 71.59412, 0.0036431, NaN, NaN, NaN, 0.0433376, "- N/A -   "
2.14, 71.94796, 0.00365976, NaN, NaN, NaN, 0.04211683, "- N/A -   "
2.15, 72.3018, 0.00367642, NaN, NaN, NaN, 0.04211683, "- N/A -   "
2.16, 72.65564, 0.00369308, NaN, NaN, NaN, 0.04211683, "- N/A -   "
2.17, 72.89154, 0.00370696, NaN, NaN, NaN, 0.0433376, "- N/A -   "
2.18, 73.36333, 0.00372362, NaN, NaN, NaN, 0.0433376, "- N/A -   "
2.19, 73.48127, 0.00374028, NaN, NaN, NaN, 0.0445584, "- N/A -   "
2.2, 73.83511, 0.00375417, NaN, NaN, NaN, 0.0445584, "- N/A -   "
2.21, 74.189, 0.00377083, NaN, NaN, NaN, 0.0445584, "- N/A -   "
2.22, 74.5428, 0.00378749, NaN, NaN, NaN, 0.0445584, "- N/A -   "
2.23, 75.0146, 0.00380693, NaN, NaN, NaN, 0.0433376, "- N/A -   "
2.24, 75.36844, 0.00382636, NaN, NaN, NaN, 0.0433376, "- N/A -   "
2.25, 75.7223, 0.00384302, NaN, NaN, NaN, 0.04211683, "- N/A -   "
2.26, 76.19407, 0.00386524, NaN, NaN, NaN, 0.0396753, "- N/A -   "
2.27, 76.5479, 0.00388468, NaN, NaN, NaN, 0.0384545, "- N/A -   "
2.28, 77.0197, 0.00390689, NaN, NaN, NaN, 0.0372337, "- N/A -   "
2.29, 77.37354, 0.00392355, NaN, NaN, NaN, 0.03601294, "- N/A -   "
2.3, 77.84533, 0.00394299, NaN, NaN, NaN, 0.03601294, "- N/A -   "
2.31, 78.19917, 0.00395965, NaN, NaN, NaN, 0.0347922, "- N/A -   "
2.32, 78.55301, 0.00397909, NaN, NaN, NaN, 0.0335714, "- N/A -   "
2.33, 78.78891, 0.003995746, NaN, NaN, NaN, 0.0335714, "- N/A -   "
2.34, 79.2607, 0.00401518, NaN, NaN, NaN, 0.0323506, "- N/A -   "
2.35, 79.61454, 0.00403462, NaN, NaN, NaN, 0.0323506, "- N/A -   "
2.36, 80.0863, 0.00405406, NaN, NaN, NaN, 0.0299091, "- N/A -   "
2.37, 80.44018, 0.00407072, NaN, NaN, NaN, 0.0299091, "- N/A -   "
2.38, 80.794, 0.00409016, NaN, NaN, NaN, 0.0286883, "- N/A -   "
2.39, 81.14786, 0.004106816, NaN, NaN, NaN, 0.0299091, "- N/A -   "
2.4, 81.5017, 0.004123477, NaN, NaN, NaN, 0.0286883, "- N/A -   "
2.41, 81.7376, 0.00414014, NaN, NaN, NaN, 0.0299091, "- N/A -   "
2.42, 82.09144, 0.004154021, NaN, NaN, NaN, 0.0299091, "- N/A -   "
2.43, 82.32734, 0.00417068, NaN, NaN, NaN, 0.0299091, "- N/A -   "
2.44, 82.68118, 0.004184565, NaN, NaN, NaN, 0.03112983, "- N/A -   "
2.45, 82.79912, 0.00420123, NaN, NaN, NaN, 0.03112983, "- N/A -   "
2.46, 83.27091, 0.00421511, NaN, NaN, NaN, 0.0323506, "- N/A -   "
2.47, 83.50681, 0.004228993, NaN, NaN, NaN, 0.0335714, "- N/A -   "
2.48, 83.86065, 0.00424565, NaN, NaN, NaN, 0.0335714, "- N/A -   "
2.49, 84.09654, 0.00425954, NaN, NaN, NaN, 0.0347922, "- N/A -   "
2.5, 84.45039, 0.00427342, NaN, NaN, NaN, 0.03601294, "- N/A -   "
2.51, 84.68629, 0.00429008, NaN, NaN, NaN, 0.03601294, "- N/A -   "
2.52, 85.04012, 0.004306742, NaN, NaN, NaN, 0.0372337, "- N/A -   "
2.53, 85.39397, 0.00432063, NaN, NaN, NaN, 0.0372337, "- N/A -   "
2.54, 85.62987, 0.00433729, NaN, NaN, NaN, 0.0372337, "- N/A -   "
2.55, 85.9837, 0.00435672, NaN, NaN, NaN, 0.03601294, "- N/A -   "
2.56, 86.4555, 0.004376161, NaN, NaN, NaN, 0.03601294, "- N/A -   "
2.57, 86.80934, 0.004392822, NaN, NaN, NaN, 0.03601294, "- N/A -   "
2.58, 87.04523, 0.004409482, NaN, NaN, NaN, 0.0347922, "- N/A -   "
2.59, 87.51702, 0.00442614, NaN, NaN, NaN, 0.0347922, "- N/A -   "
2.6, 87.8709, 0.00444558, NaN, NaN, NaN, 0.0347922, "- N/A -   "
2.61, 88.22471, 0.00446224, NaN, NaN, NaN, 0.0335714, "- N/A -   "
2.62, 88.6965, 0.004481678, NaN, NaN, NaN, 0.0335714, "- N/A -   "
2.63, 88.9324, 0.004495561, NaN, NaN, NaN, 0.0335714, "- N/A -   "
2.64, 89.28623, 0.004512222, NaN, NaN, NaN, 0.0335714, "- N/A -   "
2.65, 89.6401, 0.004531659, NaN, NaN, NaN, 0.0335714, "- N/A -   "
2.66, 89.87598, 0.004545543, NaN, NaN, NaN, 0.0335714, "- N/A -   "
2.67, 90.22981, 0.0045622, NaN, NaN, NaN, 0.0335714, "- N/A -   "
2.68, 90.58366, 0.00457886, NaN, NaN, NaN, 0.0335714, "- N/A -   "
2.69, 90.81956, 0.004592748, NaN, NaN, NaN, 0.0347922, "- N/A -   "
2.7, 91.1734, 0.004609408, NaN, NaN, NaN, 0.0347922, "- N/A -   "
2.71, 91.52724, 0.004623292, NaN, NaN, NaN, 0.03601294, "- N/A -   "
2.72, 91.88108, 0.004639952, NaN, NaN, NaN, 0.03601294, "- N/A -   "
2.73, 92.117, 0.004656613, NaN, NaN, NaN, 0.0372337, "- N/A -   "
2.74, 92.35287, 0.004670497, NaN, NaN, NaN, 0.0384545, "- N/A -   "
2.75, 92.70671, 0.00468438, NaN, NaN, NaN, 0.0384545, "- N/A -   "
2.76, 92.94261, 0.004698264, NaN, NaN, NaN, 0.0396753, "- N/A -   "
2.77, 93.1785, 0.004712148, NaN, NaN, NaN, 0.04089605, "- N/A -   "
2.78, 93.53234, 0.004728808, NaN, NaN, NaN, 0.04089605, "- N/A -   "
2.79, 93.76824, 0.004742692, NaN, NaN, NaN, 0.04211683, "- N/A -   "
2.8, 94.1221, 0.00476213, NaN, NaN, NaN, 0.04089605, "- N/A -   "
2.81, 94.47592, 0.00477879, NaN, NaN, NaN, 0.04089605, "- N/A -   "
2.82, 94.9477, 0.00479545, NaN, NaN, NaN, 0.04089605, "- N/A -   "
2.83, 95.18361, 0.004812111, NaN, NaN, NaN, 0.04211683, "- N/A -   "
2.84, 95.5374, 0.004828771, NaN, NaN, NaN, 0.04089605, "- N/A -   "
2.85, 95.7733, 0.00484266, NaN, NaN, NaN, 0.04211683, "- N/A -   "
2.86, 96.12719, 0.004859316, NaN, NaN, NaN, 0.04211683, "- N/A -   "
2.87, 96.481, 0.004878753, NaN, NaN, NaN, 0.04211683, "- N/A -   "
2.88, 96.83487, 0.00489541, NaN, NaN, NaN, 0.04211683, "- N/A -   "
2.89, 97.18872, 0.004912074, NaN, NaN, NaN, 0.04211683, "- N/A -   "
2.9, 97.54256, 0.004928735, NaN, NaN, NaN, 0.04211683, "- N/A -   "
2.91, 97.77845, 0.004945395, NaN, NaN, NaN, 0.04089605, "- N/A -   "
2.92, 98.2502, 0.004962056, NaN, NaN, NaN, 0.04211683, "- N/A -   "
2.93, 98.60408, 0.004978716, NaN, NaN, NaN, 0.04089605, "- N/A -   "
2.94, 98.9579, 0.004995377, NaN, NaN, NaN, 0.04089605, "- N/A -   "
2.95, 99.3118, 0.005014814, NaN, NaN, NaN, 0.0396753, "- N/A -   "
2.96, 99.66561, 0.005034251, NaN, NaN, NaN, 0.0396753, "- N/A -   "
2.97, 100.019, 0.005050912, NaN, NaN, NaN, 0.0384545, "- N/A -   "
2.98, 100.3733, 0.005070349, NaN, NaN, NaN, 0.0384545, "- N/A -   "
2.99, 100.727, 0.005087009, NaN, NaN, NaN, 0.0372337, "- N/A -   "
3, 100.963, 0.00510367, NaN, NaN, NaN, 0.0372337, "- N/A -   "
3.01, 101.435, 0.005117554, NaN, NaN, NaN, 0.0384545, "- N/A -   "
3.02, 101.671, 0.005136991, NaN, NaN, NaN, 0.0384545, "- N/A -   "
3.03, 102.025, 0.00515365, NaN, NaN, NaN, 0.0372337, "- N/A -   "
3.04, 102.3784, 0.005173089, NaN, NaN, NaN, 0.03601294, "- N/A -   "
3.05, 102.85, 0.005192526, NaN, NaN, NaN, 0.0347922, "- N/A -   "
3.06, 103.204, 0.00520919, NaN, NaN, NaN, 0.0347922, "- N/A -   "
3.07, 103.44, 0.005228624, NaN, NaN, NaN, 0.0347922, "- N/A -   "
3.08, 103.912, 0.005245284, NaN, NaN, NaN, 0.0335714, "- N/A -   "
3.09, 104.148, 0.00526472, NaN, NaN, NaN, 0.0335714, "- N/A -   "
3.1, 104.501, 0.00528138, NaN, NaN, NaN, 0.0323506, "- N/A -   "
3.11, 104.855, 0.00529804, NaN, NaN, NaN, 0.0323506, "- N/A -   "
3.12, 105.091, 0.005314703, NaN, NaN, NaN, 0.0323506, "- N/A -   "
3.13, 105.563, 0.00533136, NaN, NaN, NaN, 0.0323506, "- N/A -   "
3.14, 105.799, 0.00534802, NaN, NaN, NaN, 0.0323506, "- N/A -   "
3.15, 106.153, 0.00536468, NaN, NaN, NaN, 0.0335714, "- N/A -   "
3.16, 106.389, 0.00538135, NaN, NaN, NaN, 0.0323506, "- N/A -   "
3.17, 106.86, 0.005395229, NaN, NaN, NaN, 0.0335714, "- N/A -   "
3.18, 107.0963, 0.005414666, NaN, NaN, NaN, 0.0335714, "- N/A -   "
3.19, 107.45, 0.00543133, NaN, NaN, NaN, 0.0335714, "- N/A -   "
3.2, 107.804, 0.00544521, NaN, NaN, NaN, 0.0335714, "- N/A -   "
3.21, 108.04, 0.005461871, NaN, NaN, NaN, 0.0335714, "- N/A -   "
3.22, 108.394, 0.00547853, NaN, NaN, NaN, 0.0335714, "- N/A -   "
3.23, 108.63, 0.00549519, NaN, NaN, NaN, 0.0335714, "- N/A -   "
3.24, 109.101, 0.005514629, NaN, NaN, NaN, 0.0323506, "- N/A -   "
3.25, 109.3373, 0.00553129, NaN, NaN, NaN, 0.0335714, "- N/A -   "
3.26, 109.691, 0.00554795, NaN, NaN, NaN, 0.0335714, "- N/A -   "
3.27, 109.927, 0.00556461, NaN, NaN, NaN, 0.0335714, "- N/A -   "
3.28, 110.281, 0.00557849, NaN, NaN, NaN, 0.0335714, "- N/A -   "
3.29, 110.635, 0.00559516, NaN, NaN, NaN, 0.0335714, "- N/A -   "
3.3, 110.871, 0.00561182, NaN, NaN, NaN, 0.0335714, "- N/A -   "
3.31, 111.224, 0.00562848, NaN, NaN, NaN, 0.0347922, "- N/A -   "
3.32, 111.578, 0.00564236, NaN, NaN, NaN, 0.0347922, "- N/A -   "
3.33, 111.8142, 0.00565902, NaN, NaN, NaN, 0.0347922, "- N/A -   "
3.34, 112.168, 0.005672904, NaN, NaN, NaN, 0.03601294, "- N/A -   "
3.35, 112.404, 0.00569234, NaN, NaN, NaN, 0.03601294, "- N/A -   "
3.36, 112.758, 0.005709002, NaN, NaN, NaN, 0.03601294, "- N/A -   "
3.37, 112.994, 0.00572566, NaN, NaN, NaN, 0.0347922, "- N/A -   "
3.38, 113.348, 0.0057451, NaN, NaN, NaN, 0.0347922, "- N/A -   "
3.39, 113.701, 0.00576176, NaN, NaN, NaN, 0.0347922, "- N/A -   "
3.4, 114.055, 0.005775644, NaN, NaN, NaN, 0.0347922, "- N/A -   "
3.41, 114.2911, 0.0057923, NaN, NaN, NaN, 0.0347922, "- N/A -   "
3.42, 114.645, 0.00581174, NaN, NaN, NaN, 0.0347922, "- N/A -   "
3.43, 114.999, 0.00582563, NaN, NaN, NaN, 0.0347922, "- N/A -   "
3.44, 115.235, 0.00584229, NaN, NaN, NaN, 0.03601294, "- N/A -   "
3.45, 115.471, 0.00585617, NaN, NaN, NaN, 0.03601294, "- N/A -   "
3.46, 115.824, 0.00587005, NaN, NaN, NaN, 0.0372337, "- N/A -   "
3.47, 116.06, 0.005886714, NaN, NaN, NaN, 0.0384545, "- N/A -   "
3.48, 116.296, 0.0059006, NaN, NaN, NaN, 0.0384545, "- N/A -   "
3.49, 116.65, 0.00591726, NaN, NaN, NaN, 0.0396753, "- N/A -   "
3.5, 117.004, 0.005933919, NaN, NaN, NaN, 0.0396753, "- N/A -   "
3.51, 117.24, 0.0059478, NaN, NaN, NaN, 0.0396753, "- N/A -   "
3.52, 117.594, 0.005964463, NaN, NaN, NaN, 0.0396753, "- N/A -   "
3.53, 117.947, 0.0059839, NaN, NaN, NaN, 0.0396753, "- N/A -   "
3.54, 118.183, 0.00600056, NaN, NaN, NaN, 0.0396753, "- N/A -   "
3.55, 118.419, 0.00601722, NaN, NaN, NaN, 0.0396753, "- N/A -   "
3.56, 118.891, 0.006031105, NaN, NaN, NaN, 0.0396753, "- N/A -   "
3.57, 119.127, 0.00604777, NaN, NaN, NaN, 0.0396753, "- N/A -   "
3.58, 119.363, 0.006064426, NaN, NaN, NaN, 0.04089605, "- N/A -   "
3.59, 119.599, 0.00607831, NaN, NaN, NaN, 0.04089605, "- N/A -   "
3.6, 119.953, 0.00609497, NaN, NaN, NaN, 0.04089605, "- N/A -   "
3.61, 120.306, 0.00611163, NaN, NaN, NaN, 0.04089605, "- N/A -   "
3.62, 120.542, 0.00612829, NaN, NaN, NaN, 0.04211683, "- N/A -   "
3.63, 120.896, 0.006144952, NaN, NaN, NaN, 0.04211683, "- N/A -   "
3.64, 121.132, 0.006161613, NaN, NaN, NaN, 0.04211683, "- N/A -   "
3.65, 121.486, 0.00618105, NaN, NaN, NaN, 0.04211683, "- N/A -   "
3.66, 121.84, 0.00619771, NaN, NaN, NaN, 0.04211683, "- N/A -   "
3.67, 122.194, 0.006214371, NaN, NaN, NaN, 0.04211683, "- N/A -   "
3.68, 122.547, 0.006231031, NaN, NaN, NaN, 0.04089605, "- N/A -   "
3.69, 122.665, 0.006247692, NaN, NaN, NaN, 0.04089605, "- N/A -   "
3.7, 123.137, 0.00626435, NaN, NaN, NaN, 0.04089605, "- N/A -   "
3.71, 123.373, 0.00628379, NaN, NaN, NaN, 0.0396753, "- N/A -   "
3.72, 123.845, 0.006303227, NaN, NaN, NaN, 0.0384545, "- N/A -   "
3.73, 124.081, 0.006322664, NaN, NaN, NaN, 0.0372337, "- N/A -   "
3.74, 124.435, 0.006342101, NaN, NaN, NaN, 0.03601294, "- N/A -   "
3.75, 124.788, 0.006361539, NaN, NaN, NaN, 0.0347922, "- N/A -   "
3.76, 125.142, 0.006380976, NaN, NaN, NaN, 0.0347922, "- N/A -   "
3.77, 125.614, 0.006397636, NaN, NaN, NaN, 0.0335714, "- N/A -   "
3.78, 125.85, 0.006414297, NaN, NaN, NaN, 0.0335714, "- N/A -   "
3.79, 125.9679, 0.006430957, NaN, NaN, NaN, 0.0335714, "- N/A -   "
3.8, 126.44, 0.006447618, NaN, NaN, NaN, 0.0335714, "- N/A -   "
3.81, 126.676, 0.00646428, NaN, NaN, NaN, 0.0335714, "- N/A -   "
3.82, 126.911, 0.006480939, NaN, NaN, NaN, 0.0335714, "- N/A -   "
3.83, 127.265, 0.006497599, NaN, NaN, NaN, 0.0335714, "- N/A -   "
3.84, 127.383, 0.00651426, NaN, NaN, NaN, 0.0335714, "- N/A -   "
3.85, 127.619, 0.006528144, NaN, NaN, NaN, 0.0347922, "- N/A -   "
3.86, 127.973, 0.006544804, NaN, NaN, NaN, 0.0347922, "- N/A -   "
3.87, 128.209, 0.006561465, NaN, NaN, NaN, 0.03601294, "- N/A -   "
3.88, 128.563, 0.00657535, NaN, NaN, NaN, 0.03601294, "- N/A -   "
3.89, 128.799, 0.006594786, NaN, NaN, NaN, 0.03601294, "- N/A -   "
3.9, 129.152, 0.006608669, NaN, NaN, NaN, 0.03601294, "- N/A -   "
3.91, 129.388, 0.006628107, NaN, NaN, NaN, 0.0347922, "- N/A -   "
3.92, 129.742, 0.006647544, NaN, NaN, NaN, 0.0347922, "- N/A -   "
3.93, 130.096, 0.006664205, NaN, NaN, NaN, 0.0335714, "- N/A -   "
3.94, 130.332, 0.006683642, NaN, NaN, NaN, 0.0335714, "- N/A -   "
3.95, 130.6858, 0.006703079, NaN, NaN, NaN, 0.0323506, "- N/A -   "
3.96, 131.04, 0.00671974, NaN, NaN, NaN, 0.03112983, "- N/A -   "
3.97, 131.393, 0.00673918, NaN, NaN, NaN, 0.03112983, "- N/A -   "
3.98, 131.629, 0.00675584, NaN, NaN, NaN, 0.0299091, "- N/A -   "
3.99, 131.983, 0.006772498, NaN, NaN, NaN, 0.0299091, "- N/A -   "
4, 132.337, 0.00679194, NaN, NaN, NaN, 0.0299091, "- N/A -   "
4.01, 132.573, 0.006805819, NaN, NaN, NaN, 0.0299091, "- N/A -   "
4.02, 132.809, 0.00682248, NaN, NaN, NaN, 0.0299091, "- N/A -   "
4.03, 133.045, 0.006836363, NaN, NaN, NaN, 0.03112983, "- N/A -   "
4.04, 133.399, 0.006853024, NaN, NaN, NaN, 0.0323506, "- N/A -   "
4.05, 133.634, 0.00686691, NaN, NaN, NaN, 0.0323506, "- N/A -   "
4.06, 133.87, 0.006883568, NaN, NaN, NaN, 0.0323506, "- N/A -   "
4.07, 134.106, 0.00690023, NaN, NaN, NaN, 0.0335714, "- N/A -   "
4.08, 134.46, 0.006916889, NaN, NaN, NaN, 0.0335714, "- N/A -   "
4.09, 134.578, 0.006930773, NaN, NaN, NaN, 0.0335714, "- N/A -   "
4.1, 134.814, 0.00694466, NaN, NaN, NaN, 0.0347922, "- N/A -   "
4.11, 135.1678, 0.00696132, NaN, NaN, NaN, 0.03601294, "- N/A -   "
4.12, 135.4037, 0.006975201, NaN, NaN, NaN, 0.0372337, "- N/A -   "
4.13, 135.522, 0.00698908, NaN, NaN, NaN, 0.0384545, "- N/A -   "
4.14, 135.758, 0.00700019, NaN, NaN, NaN, 0.0396753, "- N/A -   "
4.15, 135.993, 0.00701408, NaN, NaN, NaN, 0.04089605, "- N/A -   "
4.16, 136.111, 0.00702796, NaN, NaN, NaN, 0.04211683, "- N/A -   "
4.17, 136.465, 0.007041843, NaN, NaN, NaN, 0.0433376, "- N/A -   "
4.18, 136.701, 0.00705573, NaN, NaN, NaN, 0.0445584, "- N/A -   "
4.19, 136.937, 0.00706961, NaN, NaN, NaN, 0.04577916, "- N/A -   "
4.2, 137.173, 0.00708627, NaN, NaN, NaN, 0.04699994, "- N/A -   "
4.21, 137.4088, 0.00710015, NaN, NaN, NaN, 0.04699994, "- N/A -   "
4.22, 137.6447, 0.00711404, NaN, NaN, NaN, 0.0482207, "- N/A -   "
4.23, 137.999, 0.007130699, NaN, NaN, NaN, 0.0482207, "- N/A -   "
4.24, 138.352, 0.00714736, NaN, NaN, NaN, 0.0494415, "- N/A -   "
4.25, 138.588, 0.00716124, NaN, NaN, NaN, 0.0494415, "- N/A -   "
4.26, 138.824, 0.007177904, NaN, NaN, NaN, 0.0494415, "- N/A -   "
4.27, 139.178, 0.007194564, NaN, NaN, NaN, 0.0494415, "- N/A -   "
4.28, 139.414, 0.007214, NaN, NaN, NaN, 0.0494415, "- N/A -   "
4.29, 139.65, 0.00723344, NaN, NaN, NaN, 0.04699994, "- N/A -   "
4.3, 140.1216, 0.007252876, NaN, NaN, NaN, 0.04577916, "- N/A -   "
4.31, 140.475, 0.00727231, NaN, NaN, NaN, 0.0445584, "- N/A -   "
4.32, 140.829, 0.00729175, NaN, NaN, NaN, 0.0433376, "- N/A -   "
4.33, 141.183, 0.00731119, NaN, NaN, NaN, 0.0433376, "- N/A -   "
4.34, 141.419, 0.00733063, NaN, NaN, NaN, 0.04211683, "- N/A -   "
4.35, 141.773, 0.00735006, NaN, NaN, NaN, 0.04089605, "- N/A -   "
4.36, 142.1267, 0.0073695, NaN, NaN, NaN, 0.0396753, "- N/A -   "
4.37, 142.3626, 0.00738616, NaN, NaN, NaN, 0.0384545, "- N/A -   "
4.38, 142.716, 0.00740282, NaN, NaN, NaN, 0.0384545, "- N/A -   "
4.39, 143.07, 0.00742226, NaN, NaN, NaN, 0.0372337, "- N/A -   "
4.4, 143.424, 0.0074417, NaN, NaN, NaN, 0.03601294, "- N/A -   "
4.41, 143.66, 0.00746113, NaN, NaN, NaN, 0.03601294, "- N/A -   "
4.42, 144.014, 0.007477793, NaN, NaN, NaN, 0.0347922, "- N/A -   "
4.43, 144.25, 0.00749445, NaN, NaN, NaN, 0.0347922, "- N/A -   "
4.44, 144.604, 0.00751389, NaN, NaN, NaN, 0.0347922, "- N/A -   "
4.45, 144.957, 0.00753055, NaN, NaN, NaN, 0.0335714, "- N/A -   "
4.46, 145.193, 0.007547212, NaN, NaN, NaN, 0.0335714, "- N/A -   "
4.47, 145.429, 0.00756387, NaN, NaN, NaN, 0.0335714, "- N/A -   "
4.48, 145.783, 0.00758053, NaN, NaN, NaN, 0.0335714, "- N/A -   "
4.49, 146.019, 0.00759997, NaN, NaN, NaN, 0.0323506, "- N/A -   "
4.5, 146.255, 0.00761663, NaN, NaN, NaN, 0.0323506, "- N/A -   "
4.51, 146.6087, 0.007636068, NaN, NaN, NaN, 0.03112983, "- N/A -   "
4.52, 146.963, 0.007655505, NaN, NaN, NaN, 0.03112983, "- N/A -   "
4.53, 147.198, 0.00767217, NaN, NaN, NaN, 0.0299091, "- N/A -   "
4.54, 147.67, 0.0076916, NaN, NaN, NaN, 0.0299091, "- N/A -   "
4.55, 147.906, 0.00770826, NaN, NaN, NaN, 0.0286883, "- N/A -   "
4.56, 148.26, 0.007724924, NaN, NaN, NaN, 0.0286883, "- N/A -   "
4.57, 148.496, 0.00774158, NaN, NaN, NaN, 0.0286883, "- N/A -   "
4.58, 148.732, 0.007758245, NaN, NaN, NaN, 0.0286883, "- N/A -   "
4.59, 149.0856, 0.007774906, NaN, NaN, NaN, 0.0286883, "- N/A -   "
4.6, 149.3215, 0.00779157, NaN, NaN, NaN, 0.0286883, "- N/A -   "
4.61, 149.557, 0.007811003, NaN, NaN, NaN, 0.0286883, "- N/A -   "
4.62, 150.029, 0.007827664, NaN, NaN, NaN, 0.0286883, "- N/A -   "
4.63, 150.147, 0.007844324, NaN, NaN, NaN, 0.0286883, "- N/A -   "
4.64, 150.383, 0.007858207, NaN, NaN, NaN, 0.0286883, "- N/A -   "
4.65, 150.619, 0.007872092, NaN, NaN, NaN, 0.0299091, "- N/A -   "
4.66, 150.855, 0.007888752, NaN, NaN, NaN, 0.0299091, "- N/A -   "
4.67, 151.209, 0.007902636, NaN, NaN, NaN, 0.03112983, "- N/A -   "
4.68, 151.445, 0.007919297, NaN, NaN, NaN, 0.03112983, "- N/A -   "
4.69, 151.68, 0.007935957, NaN, NaN, NaN, 0.03112983, "- N/A -   "
4.7, 151.916, 0.007949841, NaN, NaN, NaN, 0.0323506, "- N/A -   "
4.71, 152.27, 0.007966501, NaN, NaN, NaN, 0.0335714, "- N/A -   "
4.72, 152.388, 0.007980385, NaN, NaN, NaN, 0.0335714, "- N/A -   "
4.73, 152.742, 0.007994269, NaN, NaN, NaN, 0.0347922, "- N/A -   "
4.74, 153.096, 0.008010929, NaN, NaN, NaN, 0.0347922, "- N/A -   "
4.75, 153.214, 0.008022036, NaN, NaN, NaN, 0.0372337, "- N/A -   "
4.76, 153.45, 0.00803592, NaN, NaN, NaN, 0.0384545, "- N/A -   "
4.77, 153.568, 0.008049804, NaN, NaN, NaN, 0.0396753, "- N/A -   "
4.78, 153.8035, 0.008066464, NaN, NaN, NaN, 0.0396753, "- N/A -   "
4.79, 154.0394, 0.008080348, NaN, NaN, NaN, 0.04211683, "- N/A -   "
4.8, 154.2753, 0.008094232, NaN, NaN, NaN, 0.0433376, "- N/A -   "
4.81, 154.629, 0.008108116, NaN, NaN, NaN, 0.0433376, "- N/A -   "
4.82, 154.747, 0.008121999, NaN, NaN, NaN, 0.0445584, "- N/A -   "
4.83, 154.983, 0.008135883, NaN, NaN, NaN, 0.04577916, "- N/A -   "
4.84, 155.219, 0.008152544, NaN, NaN, NaN, 0.04577916, "- N/A -   "
4.85, 155.573, 0.008169204, NaN, NaN, NaN, 0.04577916, "- N/A -   "
4.86, 155.927, 0.008185865, NaN, NaN, NaN, 0.04577916, "- N/A -   "
4.87, 156.162, 0.008202525, NaN, NaN, NaN, 0.04577916, "- N/A -   "
4.88, 156.5163, 0.00822196, NaN, NaN, NaN, 0.0445584, "- N/A -   "
4.89, 156.87, 0.0082414, NaN, NaN, NaN, 0.0433376, "- N/A -   "
4.9, 157.224, 0.008258061, NaN, NaN, NaN, 0.0433376, "- N/A -   "
4.91, 157.46, 0.008277497, NaN, NaN, NaN, 0.04211683, "- N/A -   "
4.92, 157.696, 0.008294158, NaN, NaN, NaN, 0.04211683, "- N/A -   "
4.93, 158.0496, 0.008310818, NaN, NaN, NaN, 0.04211683, "- N/A -   "
4.94, 158.403, 0.008324702, NaN, NaN, NaN, 0.0433376, "- N/A -   "
4.95, 158.521, 0.008344139, NaN, NaN, NaN, 0.0433376, "- N/A -   "
4.96, 158.875, 0.0083608, NaN, NaN, NaN, 0.0433376, "- N/A -   "
4.97, 159.229, 0.008377461, NaN, NaN, NaN, 0.04211683, "- N/A -   "
4.98, 159.465, 0.008396898, NaN, NaN, NaN, 0.04211683, "- N/A -   "
4.99, 159.701, 0.008413558, NaN, NaN, NaN, 0.04089605, "- N/A -   "
5, 160.055, 0.008433, NaN, NaN, NaN, 0.04089605, "- N/A -   "
5.01, 160.409, 0.008449656, NaN, NaN, NaN, 0.04089605, "- N/A -   "
5.02, 160.644, 0.008466316, NaN, NaN, NaN, 0.0396753, "- N/A -   "
5.03, 160.998, 0.008482977, NaN, NaN, NaN, 0.0396753, "- N/A -   "
5.04, 161.352, 0.008499637, NaN, NaN, NaN, 0.0396753, "- N/A -   "
5.05, 161.706, 0.008519075, NaN, NaN, NaN, 0.0396753, "- N/A -   "
5.06, 162.06, 0.008535735, NaN, NaN, NaN, 0.0384545, "- N/A -   "
5.07, 162.178, 0.008555172, NaN, NaN, NaN, 0.0384545, "- N/A -   "
5.08, 162.65, 0.008574611, NaN, NaN, NaN, 0.03601294, "- N/A -   "
5.09, 162.885, 0.008594047, NaN, NaN, NaN, 0.03601294, "- N/A -   "
5.1, 163.2393, 0.008613484, NaN, NaN, NaN, 0.0347922, "- N/A -   "
5.11, 163.711, 0.008632922, NaN, NaN, NaN, 0.0335714, "- N/A -   "
5.12, 163.947, 0.008649582, NaN, NaN, NaN, 0.0323506, "- N/A -   "
5.13, 164.301, 0.00866624, NaN, NaN, NaN, 0.0323506, "- N/A -   "
5.14, 164.537, 0.00868568, NaN, NaN, NaN, 0.03112983, "- N/A -   "
5.15, 164.891, 0.008702341, NaN, NaN, NaN, 0.03112983, "- N/A -   "
5.16, 165.126, 0.008721777, NaN, NaN, NaN, 0.0299091, "- N/A -   "
5.17, 165.362, 0.008738439, NaN, NaN, NaN, 0.0299091, "- N/A -   "
5.18, 165.834, 0.008757875, NaN, NaN, NaN, 0.0286883, "- N/A -   "
5.19, 166.07, 0.008780089, NaN, NaN, NaN, 0.0274675, "- N/A -   "
5.2, 166.542, 0.008796751, NaN, NaN, NaN, 0.0262467, "- N/A -   "
5.21, 166.66, 0.008813411, NaN, NaN, NaN, 0.0274675, "- N/A -   "
5.22, 166.896, 0.008827294, NaN, NaN, NaN, 0.0274675, "- N/A -   "
5.23, 167.25, 0.008841178, NaN, NaN, NaN, 0.0286883, "- N/A -   "
5.24, 167.485, 0.008857839, NaN, NaN, NaN, 0.0286883, "- N/A -   "
5.25, 167.7213, 0.008874499, NaN, NaN, NaN, 0.0286883, "- N/A -   "
5.26, 167.9572, 0.00889116, NaN, NaN, NaN, 0.0299091, "- N/A -   "
5.27, 168.193, 0.008905044, NaN, NaN, NaN, 0.0299091, "- N/A -   "
5.28, 168.429, 0.008921703, NaN, NaN, NaN, 0.03112983, "- N/A -   "
5.29, 168.665, 0.00893559, NaN, NaN, NaN, 0.03112983, "- N/A -   "
5.3, 168.901, 0.008949472, NaN, NaN, NaN, 0.0323506, "- N/A -   "
5.31, 169.255, 0.008966132, NaN, NaN, NaN, 0.0323506, "- N/A -   "
5.32, 169.608, 0.00898279, NaN, NaN, NaN, 0.0335714, "- N/A -   "
5.33, 169.844, 0.008996677, NaN, NaN, NaN, 0.0335714, "- N/A -   "
5.34, 170.1982, 0.009013337, NaN, NaN, NaN, 0.0335714, "- N/A -   "
5.35, 170.316, 0.00903, NaN, NaN, NaN, 0.0335714, "- N/A -   "
5.36, 170.67, 0.009046658, NaN, NaN, NaN, 0.0335714, "- N/A -   "
5.37, 170.906, 0.009063318, NaN, NaN, NaN, 0.0347922, "- N/A -   "
5.38, 171.26, 0.009077202, NaN, NaN, NaN, 0.0347922, "- N/A -   "
5.39, 171.496, 0.009093863, NaN, NaN, NaN, 0.0347922, "- N/A -   "
5.4, 171.849, 0.009110522, NaN, NaN, NaN, 0.0347922, "- N/A -   "
5.41, 172.085, 0.009127184, NaN, NaN, NaN, 0.0347922, "- N/A -   "
5.42, 172.321, 0.009143844, NaN, NaN, NaN, 0.0347922, "- N/A -   "
5.43, 172.6751, 0.009160505, NaN, NaN, NaN, 0.0347922, "- N/A -   "
5.44, 172.911, 0.009174389, NaN, NaN, NaN, 0.03601294, "- N/A -   "
5.45, 173.1469, 0.009191048, NaN, NaN, NaN, 0.03601294, "- N/A -   "
5.46, 173.383, 0.00920771, NaN, NaN, NaN, 0.03601294, "- N/A -   "
5.47, 173.737, 0.009221593, NaN, NaN, NaN, 0.0372337, "- N/A -   "
5.48, 173.973, 0.009238253, NaN, NaN, NaN, 0.0372337, "- N/A -   "
5.49, 174.208, 0.00925214, NaN, NaN, NaN, 0.0384545, "- N/A -   "
5.5, 174.562, 0.009266021, NaN, NaN, NaN, 0.0396753, "- N/A -   "
5.51, 174.6802, 0.009282682, NaN, NaN, NaN, 0.0396753, "- N/A -   "
5.52, 174.9161, 0.009296565, NaN, NaN, NaN, 0.04089605, "- N/A -   "
5.53, 175.27, 0.009310449, NaN, NaN, NaN, 0.04211683, "- N/A -   "
5.54, 175.388, 0.00932711, NaN, NaN, NaN, 0.0433376, "- N/A -   "
5.55, 175.624, 0.009340994, NaN, NaN, NaN, 0.0433376, "- N/A -   "
5.56, 175.978, 0.009357654, NaN, NaN, NaN, 0.0433376, "- N/A -   "
5.57, 176.331, 0.009374315, NaN, NaN, NaN, 0.0445584, "- N/A -   "
5.58, 176.567, 0.009390975, NaN, NaN, NaN, 0.0445584, "- N/A -   "
5.59, 176.9212, 0.009404859, NaN, NaN, NaN, 0.0445584, "- N/A -   "
5.6, 177.039, 0.009421519, NaN, NaN, NaN, 0.0445584, "- N/A -   "
5.61, 177.393, 0.009435403, NaN, NaN, NaN, 0.04577916, "- N/A -   "
5.62, 177.511, 0.009449286, NaN, NaN, NaN, 0.04699994, "- N/A -   "
5.63, 177.865, 0.009465947, NaN, NaN, NaN, 0.04699994, "- N/A -   "
5.64, 178.1007, 0.009485384, NaN, NaN, NaN, 0.04699994, "- N/A -   "
5.65, 178.455, 0.009502045, NaN, NaN, NaN, 0.04577916, "- N/A -   "
5.66, 178.808, 0.00952148, NaN, NaN, NaN, 0.0445584, "- N/A -   "
5.67, 179.162, 0.00954092, NaN, NaN, NaN, 0.0433376, "- N/A -   "
5.68, 179.634, 0.009563134, NaN, NaN, NaN, 0.04211683, "- N/A -   "
5.69, 179.988, 0.009582571, NaN, NaN, NaN, 0.0396753, "- N/A -   "
5.7, 180.342, 0.009602008, NaN, NaN, NaN, 0.0384545, "- N/A -   "
5.71, 180.696, 0.009624222, NaN, NaN, NaN, 0.0372337, "- N/A -   "
5.72, 181.049, 0.009643659, NaN, NaN, NaN, 0.0347922, "- N/A -   "
5.73, 181.403, 0.00966032, NaN, NaN, NaN, 0.0347922, "- N/A -   "
5.74, 181.757, 0.009679758, NaN, NaN, NaN, 0.0335714, "- N/A -   "
5.75, 181.993, 0.009699194, NaN, NaN, NaN, 0.0323506, "- N/A -   "
5.76, 182.3468, 0.009715854, NaN, NaN, NaN, 0.0323506, "- N/A -   "
5.77, 182.701, 0.009732516, NaN, NaN, NaN, 0.0323506, "- N/A -   "
5.78, 183.054, 0.009751952, NaN, NaN, NaN, 0.0323506, "- N/A -   "
5.79, 183.408, 0.009768614, NaN, NaN, NaN, 0.03112983, "- N/A -   "
5.8, 183.644, 0.00978805, NaN, NaN, NaN, 0.03112983, "- N/A -   "
5.81, 183.998, 0.00980193, NaN, NaN, NaN, 0.03112983, "- N/A -   "
5.82, 184.234, 0.009818594, NaN, NaN, NaN, 0.03112983, "- N/A -   "
5.83, 184.47, 0.009835255, NaN, NaN, NaN, 0.03112983, "- N/A -   "
5.84, 184.706, 0.009851916, NaN, NaN, NaN, 0.03112983, "- N/A -   "
5.85, 184.942, 0.009868576, NaN, NaN, NaN, 0.0323506, "- N/A -   "
5.86, 185.295, 0.00988246, NaN, NaN, NaN, 0.0323506, "- N/A -   "
5.87, 185.531, 0.009899121, NaN, NaN, NaN, 0.0335714, "- N/A -   "
5.88, 185.767, 0.009913004, NaN, NaN, NaN, 0.0335714, "- N/A -   "
5.89, 186.003, 0.009929664, NaN, NaN, NaN, 0.0347922, "- N/A -   "
5.9, 186.239, 0.009943549, NaN, NaN, NaN, 0.0347922, "- N/A -   "
5.91, 186.475, 0.009957432, NaN, NaN, NaN, 0.03601294, "- N/A -   "
5.92, 186.711, 0.009974092, NaN, NaN, NaN, 0.03601294, "- N/A -   "
5.93, 186.947, 0.009990754, NaN, NaN, NaN, 0.03601294, "- N/A -   "
5.94, 187.301, 0.0100074, NaN, NaN, NaN, 0.03601294, "- N/A -   "
5.95, 187.654, 0.0100241, NaN, NaN, NaN, 0.0372337, "- N/A -   "
5.96, 188.008, 0.0100407, NaN, NaN, NaN, 0.0372337, "- N/A -   "
[...]
26.42, 1001.29, 0.04413925, NaN, NaN, NaN, 0.0372337, "- N/A -   "
26.46, 1003.06, 0.0442114, NaN, NaN, NaN, 0.03601294, "- N/A -   "
26.5, 1004.96, 0.0442836, NaN, NaN, NaN, 0.0335714, "- N/A -   "
26.54, 1006.73, 0.0443447, NaN, NaN, NaN, 0.0347922, "- N/A -   "
26.58, 1008.39, 0.0444086, NaN, NaN, NaN, 0.03601294, "- N/A -   "
26.62, 1010.16, 0.04447246, NaN, NaN, NaN, 0.0372337, "- N/A -   "
26.66, 1011.82, 0.04453077, NaN, NaN, NaN, 0.04089605, "- N/A -   "
26.7, 1013.477, 0.0445946, NaN, NaN, NaN, 0.04211683, "- N/A -   "
26.74, 1015.5, 0.04466683, NaN, NaN, NaN, 0.0396753, "- N/A -   "
26.78, 1017.17, 0.0447335, NaN, NaN, NaN, 0.0396753, "- N/A -   "
26.82, 1019.08, 0.0448001, NaN, NaN, NaN, 0.0396753, "- N/A -   "
26.86, 1020.99, 0.04487231, NaN, NaN, NaN, 0.0372337, "- N/A -   "
26.9, 1022.78, 0.044939, NaN, NaN, NaN, 0.0372337, "- N/A -   "
26.94, 1024.69, 0.0450056, NaN, NaN, NaN, 0.0372337, "- N/A -   "
26.98, 1026.48, 0.045075, NaN, NaN, NaN, 0.03601294, "- N/A -   "
27.02, 1028.5, 0.04514721, NaN, NaN, NaN, 0.0335714, "- N/A -   "
27.06, 1030.29, 0.0452111, NaN, NaN, NaN, 0.0347922, "- N/A -   "
27.1, 1032.08, 0.04527772, NaN, NaN, NaN, 0.0347922, "- N/A -   "
27.14, 1033.869, 0.04534158, NaN, NaN, NaN, 0.03601294, "- N/A -   "
27.18, 1035.9, 0.0454138, NaN, NaN, NaN, 0.0335714, "- N/A -   "
27.22, 1037.69, 0.04548042, NaN, NaN, NaN, 0.0335714, "- N/A -   "
27.26, 1039.59, 0.04555539, NaN, NaN, NaN, 0.03112983, "- N/A -   "
27.3, 1041.5, 0.045622, NaN, NaN, NaN, 0.0299091, "- N/A -   "
27.34, 1042.93, 0.045672, NaN, NaN, NaN, 0.0372337, "- N/A -   "
27.38, 1044.36, 0.04572755, NaN, NaN, NaN, 0.04211683, "- N/A -   "
27.42, 1046.03, 0.0457914, NaN, NaN, NaN, 0.0433376, "- N/A -   "
27.46, 1047.7, 0.0458525, NaN, NaN, NaN, 0.04577916, "- N/A -   "
27.5, 1049.73, 0.04591915, NaN, NaN, NaN, 0.04577916, "- N/A -   "
27.54, 1051.4, 0.0459886, NaN, NaN, NaN, 0.0445584, "- N/A -   "
27.58, 1053.43, 0.046058, NaN, NaN, NaN, 0.0433376, "- N/A -   "
27.62, 1055.45, 0.04613296, NaN, NaN, NaN, 0.04089605, "- N/A -   "
27.66, 1057.6, 0.0462079, NaN, NaN, NaN, 0.03601294, "- N/A -   "
27.7, 1059.51, 0.0462801, NaN, NaN, NaN, 0.0335714, "- N/A -   "
27.74, 1061.42, 0.04634677, NaN, NaN, NaN, 0.0335714, "- N/A -   "
27.78, 1063.21, 0.0464162, NaN, NaN, NaN, 0.0323506, "- N/A -   "
27.82, 1065.11, 0.0464856, NaN, NaN, NaN, 0.0323506, "- N/A -   "
27.86, 1067.14, 0.0465578, NaN, NaN, NaN, 0.0286883, "- N/A -   "
27.9, 1068.81, 0.0466189, NaN, NaN, NaN, 0.03112983, "- N/A -   "
27.94, 1070.36, 0.04668, NaN, NaN, NaN, 0.0335714, "- N/A -   "
27.98, 1072.03, 0.04674384, NaN, NaN, NaN, 0.0347922, "- N/A -   "
28.02, 1073.46, 0.0468022, NaN, NaN, NaN, 0.0396753, "- N/A -   "
28.06, 1075.13, 0.04685769, NaN, NaN, NaN, 0.0433376, "- N/A -   "
28.1, 1076.68, 0.0469188, NaN, NaN, NaN, 0.04577916, "- N/A -   "
28.14, 1078.59, 0.0469826, NaN, NaN, NaN, 0.04699994, "- N/A -   "
28.18, 1080.5, 0.04705484, NaN, NaN, NaN, 0.0445584, "- N/A -   "
28.22, 1082.76, 0.0471326, NaN, NaN, NaN, 0.04089605, "- N/A -   "
28.26, 1084.67, 0.04720478, NaN, NaN, NaN, 0.0372337, "- N/A -   "
28.3, 1086.7, 0.0472798, NaN, NaN, NaN, 0.0347922, "- N/A -   "
28.34, 1088.61, 0.0473464, NaN, NaN, NaN, 0.0335714, "- N/A -   "
28.38, 1090.51, 0.0474158, NaN, NaN, NaN, 0.0323506, "- N/A -   "
28.42, 1092.541, 0.04748801, NaN, NaN, NaN, 0.0299091, "- N/A -   "
28.46, 1094.57, 0.04755743, NaN, NaN, NaN, 0.0286883, "- N/A -   "
28.5, 1096.36, 0.0476241, NaN, NaN, NaN, 0.0286883, "- N/A -   "
28.54, 1098.03, 0.0476907, NaN, NaN, NaN, 0.0286883, "- N/A -   "
28.58, 1099.7, 0.0477518, NaN, NaN, NaN, 0.03112983, "- N/A -   "
28.62, 1101.25, 0.0478101, NaN, NaN, NaN, 0.0347922, "- N/A -   "
28.66, 1102.8, 0.0478712, NaN, NaN, NaN, 0.0372337, "- N/A -   "
28.7, 1104.23, 0.04792674, NaN, NaN, NaN, 0.04211683, "- N/A -   "
28.74, 1105.9, 0.047985, NaN, NaN, NaN, 0.04577916, "- N/A -   "
28.78, 1107.686, 0.0480517, NaN, NaN, NaN, 0.04577916, "- N/A -   "
28.82, 1109.71, 0.0481183, NaN, NaN, NaN, 0.04577916, "- N/A -   "
28.86, 1111.5, 0.04819053, NaN, NaN, NaN, 0.0445584, "- N/A -   "
28.9, 1113.53, 0.04825995, NaN, NaN, NaN, 0.04211683, "- N/A -   "
28.94, 1115.44, 0.04832937, NaN, NaN, NaN, 0.04089605, "- N/A -   "
28.98, 1117.7, 0.04840712, NaN, NaN, NaN, 0.03601294, "- N/A -   "
29.02, 1119.73, 0.0484849, NaN, NaN, NaN, 0.03112983, "- N/A -   "
29.06, 1121.76, 0.0485543, NaN, NaN, NaN, 0.0299091, "- N/A -   "
29.1, 1123.55, 0.0486209, NaN, NaN, NaN, 0.0299091, "- N/A -   "
29.14, 1125.22, 0.04868479, NaN, NaN, NaN, 0.03112983, "- N/A -   "
29.18, 1127, 0.0487487, NaN, NaN, NaN, 0.0323506, "- N/A -   "
29.22, 1128.67, 0.0488097, NaN, NaN, NaN, 0.0347922, "- N/A -   "
29.26, 1130.344, 0.04887361, NaN, NaN, NaN, 0.03601294, "- N/A -   "
29.3, 1132.25, 0.048943, NaN, NaN, NaN, 0.0347922, "- N/A -   "
29.34, 1134.16, 0.0490125, NaN, NaN, NaN, 0.0347922, "- N/A -   "
29.38, 1135.83, 0.04907076, NaN, NaN, NaN, 0.0372337, "- N/A -   "
29.42, 1137.26, 0.0491291, NaN, NaN, NaN, 0.04089605, "- N/A -   "
29.46, 1139.05, 0.0491902, NaN, NaN, NaN, 0.0433376, "- N/A -   "
29.5, 1140.6, 0.0492512, NaN, NaN, NaN, 0.04577916, "- N/A -   "
29.54, 1142.63, 0.0493207, NaN, NaN, NaN, 0.0445584, "- N/A -   "
29.58, 1144.654, 0.04939564, NaN, NaN, NaN, 0.04089605, "- N/A -   "
29.62, 1146.8, 0.04947339, NaN, NaN, NaN, 0.03601294, "- N/A -   "
29.66, 1148.95, 0.04954836, NaN, NaN, NaN, 0.0335714, "- N/A -   "
29.7, 1150.86, 0.04961778, NaN, NaN, NaN, 0.03112983, "- N/A -   "
29.74, 1152.52, 0.0496816, NaN, NaN, NaN, 0.0335714, "- N/A -   "
29.78, 1154.19, 0.0497427, NaN, NaN, NaN, 0.0347922, "- N/A -   "
29.82, 1156.1, 0.0498094, NaN, NaN, NaN, 0.0347922, "- N/A -   "
29.86, 1158.13, 0.0498843, NaN, NaN, NaN, 0.03112983, "- N/A -   "
29.9, 1160.157, 0.04995654, NaN, NaN, NaN, 0.0286883, "- N/A -   "
29.94, 1161.95, 0.05002041, NaN, NaN, NaN, 0.0299091, "- N/A -   "
29.98, 1163.26, 0.05007317, NaN, NaN, NaN, 0.03601294, "- N/A -   "
30.02, 1164.927, 0.05013703, NaN, NaN, NaN, 0.0372337, "- N/A -   "
30.06, 1166.84, 0.0502009, NaN, NaN, NaN, 0.0384545, "- N/A -   "
30.1, 1168.5, 0.0502648, NaN, NaN, NaN, 0.0396753, "- N/A -   "
30.14, 1170.29, 0.0503314, NaN, NaN, NaN, 0.04089605, "- N/A -   "
30.18, 1171.84, 0.0503925, NaN, NaN, NaN, 0.04211683, "- N/A -   "
30.22, 1173.75, 0.0504591, NaN, NaN, NaN, 0.04211683, "- N/A -   "
30.26, 1175.78, 0.05053411, NaN, NaN, NaN, 0.0384545, "- N/A -   "
30.3, 1177.81, 0.0506063, NaN, NaN, NaN, 0.03601294, "- N/A -   "
30.34, 1179.6, 0.0506729, NaN, NaN, NaN, 0.0372337, "- N/A -   "
30.38, 1181.26, 0.050734, NaN, NaN, NaN, 0.0384545, "- N/A -   "
30.42, 1183.29, 0.05080623, NaN, NaN, NaN, 0.0372337, "- N/A -   "
30.46, 1185.32, 0.05087565, NaN, NaN, NaN, 0.0347922, "- N/A -   "
30.5, 1187.11, 0.05094507, NaN, NaN, NaN, 0.0335714, "- N/A -   "
30.54, 1189.016, 0.05101171, NaN, NaN, NaN, 0.0335714, "- N/A -   "
30.58, 1190.69, 0.0510756, NaN, NaN, NaN, 0.0347922, "- N/A -   "
30.62, 1192.47, 0.051145, NaN, NaN, NaN, 0.0347922, "- N/A -   "
30.66, 1194.38, 0.0512144, NaN, NaN, NaN, 0.0335714, "- N/A -   "
30.7, 1196.29, 0.0512811, NaN, NaN, NaN, 0.0323506, "- N/A -   "
30.74, 1197.84, 0.05133937, NaN, NaN, NaN, 0.03601294, "- N/A -   "
30.78, 1199.39, 0.0513977, NaN, NaN, NaN, 0.04089605, "- N/A -   "
30.82, 1201.18, 0.0514643, NaN, NaN, NaN, 0.04089605, "- N/A -   "
30.86, 1202.85, 0.0515254, NaN, NaN, NaN, 0.0433376, "- N/A -   "
30.9, 1204.638, 0.0515893, NaN, NaN, NaN, 0.0445584, "- N/A -   "
30.94, 1206.78, 0.0516642, NaN, NaN, NaN, 0.04089605, "- N/A -   "
30.98, 1208.69, 0.0517337, NaN, NaN, NaN, 0.0396753, "- N/A -   "
31.02, 1210.84, 0.0518114, NaN, NaN, NaN, 0.0347922, "- N/A -   "
31.06, 1212.747, 0.0518808, NaN, NaN, NaN, 0.0335714, "- N/A -   "
31.1, 1214.655, 0.0519475, NaN, NaN, NaN, 0.0335714, "- N/A -   "
31.14, 1216.44, 0.05201689, NaN, NaN, NaN, 0.0335714, "- N/A -   "
31.18, 1217.87, 0.05207243, NaN, NaN, NaN, 0.0372337, "- N/A -   "
31.22, 1219.783, 0.0521446, NaN, NaN, NaN, 0.03601294, "- N/A -   "
31.26, 1221.93, 0.0522196, NaN, NaN, NaN, 0.03112983, "- N/A -   "
31.3, 1223.96, 0.0522918, NaN, NaN, NaN, 0.0286883, "- N/A -   "
31.34, 1225.75, 0.0523557, NaN, NaN, NaN, 0.0299091, "- N/A -   "
31.38, 1227.3, 0.0524167, NaN, NaN, NaN, 0.0323506, "- N/A -   "
31.42, 1228.73, 0.0524723, NaN, NaN, NaN, 0.0372337, "- N/A -   "
31.46, 1230.28, 0.0525306, NaN, NaN, NaN, 0.04211683, "- N/A -   "
31.5, 1231.708, 0.0525861, NaN, NaN, NaN, 0.04577916, "- N/A -   "
31.54, 1233.38, 0.05264444, NaN, NaN, NaN, 0.0494415, "- N/A -   "
31.58, 1235.4, 0.0527139, NaN, NaN, NaN, 0.0494415, "- N/A -   "
31.62, 1237.43, 0.0527916, NaN, NaN, NaN, 0.0445584, "- N/A -   "
31.66, 1239.58, 0.05286658, NaN, NaN, NaN, 0.0396753, "- N/A -   "
31.7, 1241.606, 0.05294433, NaN, NaN, NaN, 0.0347922, "- N/A -   "
31.74, 1243.39, 0.0530082, NaN, NaN, NaN, 0.0372337, "- N/A -   "
31.78, 1245.18, 0.0530776, NaN, NaN, NaN, 0.03601294, "- N/A -   "
31.82, 1247.33, 0.05314981, NaN, NaN, NaN, 0.0323506, "- N/A -   "
31.86, 1249.36, 0.053222, NaN, NaN, NaN, 0.0299091, "- N/A -   "
31.9, 1251.27, 0.0532914, NaN, NaN, NaN, 0.0286883, "- N/A -   "
31.94, 1253.05, 0.0533608, NaN, NaN, NaN, 0.0286883, "- N/A -   "
31.98, 1254.72, 0.05342193, NaN, NaN, NaN, 0.03112983, "- N/A -   "
32.02, 1256.15, 0.0534775, NaN, NaN, NaN, 0.03601294, "- N/A -   "
32.06, 1257.82, 0.0535358, NaN, NaN, NaN, 0.0384545, "- N/A -   "
32.1, 1259.26, 0.05359131, NaN, NaN, NaN, 0.0433376, "- N/A -   "
32.14, 1260.92, 0.0536524, NaN, NaN, NaN, 0.04577916, "- N/A -   "
32.18, 1262.952, 0.0537274, NaN, NaN, NaN, 0.0433376, "- N/A -   "
32.22, 1264.741, 0.05379124, NaN, NaN, NaN, 0.0433376, "- N/A -   "
32.26, 1266.53, 0.0538607, NaN, NaN, NaN, 0.04211683, "- N/A -   "
32.3, 1268.44, 0.0539329, NaN, NaN, NaN, 0.04089605, "- N/A -   "
32.34, 1270.58, 0.05400505, NaN, NaN, NaN, 0.0372337, "- N/A -   "
32.38, 1272.49, 0.05408002, NaN, NaN, NaN, 0.0335714, "- N/A -   "
32.42, 1274.88, 0.0541605, NaN, NaN, NaN, 0.0286883, "- N/A -   "
32.46, 1276.67, 0.05423, NaN, NaN, NaN, 0.0274675, "- N/A -   "
32.5, 1278.45, 0.0542911, NaN, NaN, NaN, 0.0286883, "- N/A -   "
32.54, 1280.24, 0.0543577, NaN, NaN, NaN, 0.0286883, "- N/A -   "
32.58, 1281.794, 0.0544188, NaN, NaN, NaN, 0.03112983, "- N/A -   "
32.62, 1283.34, 0.05447432, NaN, NaN, NaN, 0.03601294, "- N/A -   "
32.66, 1285.133, 0.05454096, NaN, NaN, NaN, 0.0372337, "- N/A -   "
32.7, 1286.92, 0.05460483, NaN, NaN, NaN, 0.0372337, "- N/A -   "
32.74, 1288.71, 0.0546742, NaN, NaN, NaN, 0.0372337, "- N/A -   "
32.78, 1290.5, 0.0547381, NaN, NaN, NaN, 0.0372337, "- N/A -   "
32.82, 1292.17, 0.0547964, NaN, NaN, NaN, 0.04089605, "- N/A -   "
32.86, 1293.72, 0.05485751, NaN, NaN, NaN, 0.0433376, "- N/A -   "
32.9, 1295.27, 0.0549158, NaN, NaN, NaN, 0.04699994, "- N/A -   "
32.94, 1297.3, 0.05498524, NaN, NaN, NaN, 0.04699994, "- N/A -   "
32.98, 1299.324, 0.05506021, NaN, NaN, NaN, 0.04211683, "- N/A -   "
33.02, 1301.709, 0.05514352, NaN, NaN, NaN, 0.03601294, "- N/A -   "
33.06, 1303.62, 0.0552157, NaN, NaN, NaN, 0.0323506, "- N/A -   "
33.1, 1305.64, 0.0552851, NaN, NaN, NaN, 0.03112983, "- N/A -   "
33.14, 1307.31, 0.055349, NaN, NaN, NaN, 0.0335714, "- N/A -   "
33.18, 1308.86, 0.0554101, NaN, NaN, NaN, 0.03601294, "- N/A -   "
33.22, 1310.77, 0.05547673, NaN, NaN, NaN, 0.0347922, "- N/A -   "
33.26, 1312.56, 0.0555434, NaN, NaN, NaN, 0.0347922, "- N/A -   "
33.3, 1314.469, 0.0556156, NaN, NaN, NaN, 0.0335714, "- N/A -   "
33.34, 1316.38, 0.055685, NaN, NaN, NaN, 0.03112983, "- N/A -   "
33.38, 1318.17, 0.0557461, NaN, NaN, NaN, 0.0335714, "- N/A -   "
33.42, 1319.6, 0.05580716, NaN, NaN, NaN, 0.0372337, "- N/A -   "
33.46, 1321.27, 0.0558655, NaN, NaN, NaN, 0.0396753, "- N/A -   "
33.5, 1322.94, 0.0559293, NaN, NaN, NaN, 0.04211683, "- N/A -   "
33.54, 1324.72, 0.0559932, NaN, NaN, NaN, 0.04211683, "- N/A -   "
33.58, 1326.752, 0.0560654, NaN, NaN, NaN, 0.0396753, "- N/A -   "
33.62, 1328.66, 0.0561348, NaN, NaN, NaN, 0.0384545, "- N/A -   "
33.66, 1330.45, 0.0562015, NaN, NaN, NaN, 0.0384545, "- N/A -   "
33.7, 1332.48, 0.0562764, NaN, NaN, NaN, 0.03601294, "- N/A -   "
33.74, 1334.15, 0.0563403, NaN, NaN, NaN, 0.0372337, "- N/A -   "
33.78, 1336.17, 0.0564097, NaN, NaN, NaN, 0.0347922, "- N/A -   "
33.82, 1337.96, 0.05647636, NaN, NaN, NaN, 0.0347922, "- N/A -   "
33.86, 1339.75, 0.056543, NaN, NaN, NaN, 0.0347922, "- N/A -   "
33.9, 1341.897, 0.056618, NaN, NaN, NaN, 0.03112983, "- N/A -   "
33.94, 1343.57, 0.0566818, NaN, NaN, NaN, 0.0323506, "- N/A -   "
33.98, 1345.47, 0.05674848, NaN, NaN, NaN, 0.0335714, "- N/A -   "
34.02, 1347.02, 0.0568096, NaN, NaN, NaN, 0.0347922, "- N/A -   "
34.06, 1348.93, 0.056879, NaN, NaN, NaN, 0.0347922, "- N/A -   "
34.1, 1350.96, 0.0569484, NaN, NaN, NaN, 0.0335714, "- N/A -   "
34.14, 1352.39, 0.0570095, NaN, NaN, NaN, 0.0347922, "- N/A -   "
34.18, 1354.06, 0.0570678, NaN, NaN, NaN, 0.0384545, "- N/A -   "
34.22, 1355.73, 0.0571289, NaN, NaN, NaN, 0.04089605, "- N/A -   "
34.26, 1357.4, 0.05719, NaN, NaN, NaN, 0.0445584, "- N/A -   "
34.3, 1358.95, 0.05725385, NaN, NaN, NaN, 0.04577916, "- N/A -   "
34.34, 1360.74, 0.0573149, NaN, NaN, NaN, 0.04699994, "- N/A -   "
34.38, 1362.65, 0.0573844, NaN, NaN, NaN, 0.04577916, "- N/A -   "
34.42, 1365.03, 0.0574677, NaN, NaN, NaN, 0.0384545, "- N/A -   "
34.46, 1367.18, 0.0575454, NaN, NaN, NaN, 0.0335714, "- N/A -   "
34.5, 1368.967, 0.05761205, NaN, NaN, NaN, 0.0347922, "- N/A -   "
34.54, 1370.76, 0.0576759, NaN, NaN, NaN, 0.0347922, "- N/A -   "
34.58, 1372.664, 0.05774811, NaN, NaN, NaN, 0.0323506, "- N/A -   "
34.62, 1374.572, 0.05781475, NaN, NaN, NaN, 0.0323506, "- N/A -   "
34.66, 1376.72, 0.0578925, NaN, NaN, NaN, 0.0286883, "- N/A -   "
34.7, 1378.51, 0.0579591, NaN, NaN, NaN, 0.0274675, "- N/A -   "
34.74, 1380.42, 0.05802301, NaN, NaN, NaN, 0.0286883, "- N/A -   "
34.78, 1381.97, 0.0580841, NaN, NaN, NaN, 0.03112983, "- N/A -   "
34.82, 1383.4, 0.0581396, NaN, NaN, NaN, 0.03601294, "- N/A -   "
34.86, 1384.83, 0.0581952, NaN, NaN, NaN, 0.04089605, "- N/A -   "
34.9, 1386.38, 0.0582535, NaN, NaN, NaN, 0.0445584, "- N/A -   "
34.94, 1388.17, 0.0583146, NaN, NaN, NaN, 0.0482207, "- N/A -   "
34.98, 1389.96, 0.058384, NaN, NaN, NaN, 0.04577916, "- N/A -   "
35.02, 1392.102, 0.0584617, NaN, NaN, NaN, 0.04089605, "- N/A -   "
35.06, 1394.25, 0.05853671, NaN, NaN, NaN, 0.0384545, "- N/A -   "
35.1, 1396.16, 0.05860613, NaN, NaN, NaN, 0.03601294, "- N/A -   "
35.14, 1398.18, 0.0586811, NaN, NaN, NaN, 0.0335714, "- N/A -   "
35.18, 1399.97, 0.0587477, NaN, NaN, NaN, 0.0323506, "- N/A -   "
35.22, 1402.0, 0.05881716, NaN, NaN, NaN, 0.0323506, "- N/A -   "
35.26, 1404.03, 0.0588894, NaN, NaN, NaN, 0.0286883, "- N/A -   "
35.3, 1405.7, 0.058956, NaN, NaN, NaN, 0.0299091, "- N/A -   "
35.34, 1407.724, 0.05902264, NaN, NaN, NaN, 0.0299091, "- N/A -   "
35.38, 1409.27, 0.0590865, NaN, NaN, NaN, 0.03112983, "- N/A -   "
35.42, 1410.94, 0.0591504, NaN, NaN, NaN, 0.0335714, "- N/A -   "
35.46, 1412.61, 0.0592031, NaN, NaN, NaN, 0.0384545, "- N/A -   "
35.5, 1414.04, 0.05926144, NaN, NaN, NaN, 0.04211683, "- N/A -   "
35.54, 1415.71, 0.0593225, NaN, NaN, NaN, 0.0445584, "- N/A -   "
35.58, 1417.38, 0.05938917, NaN, NaN, NaN, 0.04577916, "- N/A -   "
35.62, 1419.41, 0.05945859, NaN, NaN, NaN, 0.0433376, "- N/A -   "
35.66, 1420.96, 0.0595225, NaN, NaN, NaN, 0.04577916, "- N/A -   "
35.7, 1422.75, 0.0595835, NaN, NaN, NaN, 0.04699994, "- N/A -   "
35.74, 1424.66, 0.05965574, NaN, NaN, NaN, 0.04577916, "- N/A -   "
35.78, 1426.92, 0.0597335, NaN, NaN, NaN, 0.0396753, "- N/A -   "
35.82, 1429.43, 0.0598223, NaN, NaN, NaN, 0.03112983, "- N/A -   "
35.86, 1431.34, 0.05989454, NaN, NaN, NaN, 0.0286883, "- N/A -   "
35.9, 1433.01, 0.0599584, NaN, NaN, NaN, 0.0286883, "- N/A -   "
35.94, 1434.79, 0.0600195, NaN, NaN, NaN, 0.03112983, "- N/A -   "
35.98, 1436.23, 0.0600806, NaN, NaN, NaN, 0.0335714, "- N/A -   "
36.02, 1437.89, 0.0601389, NaN, NaN, NaN, 0.0372337, "- N/A -   "
36.06, 1439.68, 0.0602055, NaN, NaN, NaN, 0.0372337, "- N/A -   "
36.1, 1441.71, 0.060275, NaN, NaN, NaN, 0.0372337, "- N/A -   "
36.14, 1443.5, 0.0603416, NaN, NaN, NaN, 0.03601294, "- N/A -   "
36.18, 1445.17, 0.0604055, NaN, NaN, NaN, 0.0384545, "- N/A -   "
36.22, 1446.72, 0.06046377, NaN, NaN, NaN, 0.04211683, "- N/A -   "
36.26, 1448.27, 0.0605249, NaN, NaN, NaN, 0.0445584, "- N/A -   "
36.3, 1449.94, 0.06058595, NaN, NaN, NaN, 0.04699994, "- N/A -   "
36.34, 1451.728, 0.0606526, NaN, NaN, NaN, 0.04577916, "- N/A -   "
36.38, 1453.99, 0.06073034, NaN, NaN, NaN, 0.04211683, "- N/A -   "
36.42, 1456.021, 0.0608053, NaN, NaN, NaN, 0.0372337, "- N/A -   "
36.46, 1458.17, 0.06088029, NaN, NaN, NaN, 0.0335714, "- N/A -   "
36.5, 1460.195, 0.06095526, NaN, NaN, NaN, 0.03112983, "- N/A -   "
36.54, 1461.86, 0.0610219, NaN, NaN, NaN, 0.03112983, "- N/A -   "
36.58, 1463.41, 0.0610802, NaN, NaN, NaN, 0.0335714, "- N/A -   "
36.62, 1465.2, 0.0611469, NaN, NaN, NaN, 0.0335714, "- N/A -   "
36.66, 1467.11, 0.0612135, NaN, NaN, NaN, 0.0347922, "- N/A -   "
36.7, 1469.02, 0.0612829, NaN, NaN, NaN, 0.0335714, "- N/A -   "
36.74, 1470.81, 0.0613468, NaN, NaN, NaN, 0.0335714, "- N/A -   "
36.78, 1472.48, 0.0614106, NaN, NaN, NaN, 0.0347922, "- N/A -   "
36.82, 1474.03, 0.06146896, NaN, NaN, NaN, 0.0384545, "- N/A -   "
36.86, 1475.7, 0.06153, NaN, NaN, NaN, 0.04089605, "- N/A -   "
36.9, 1477.37, 0.0615939, NaN, NaN, NaN, 0.04211683, "- N/A -   "
36.94, 1479.156, 0.06166333, NaN, NaN, NaN, 0.04211683, "- N/A -   "
36.98, 1480.94, 0.06172997, NaN, NaN, NaN, 0.04089605, "- N/A -   "
37.02, 1482.73, 0.0617966, NaN, NaN, NaN, 0.04089605, "- N/A -   "
37.06, 1484.52, 0.0618633, NaN, NaN, NaN, 0.04211683, "- N/A -   "
37.1, 1486.311, 0.0619299, NaN, NaN, NaN, 0.04211683, "- N/A -   "
37.14, 1488.34, 0.0619993, NaN, NaN, NaN, 0.04089605, "- N/A -   "
37.18, 1490.37, 0.0620715, NaN, NaN, NaN, 0.0372337, "- N/A -   "
37.22, 1492.27, 0.06214371, NaN, NaN, NaN, 0.0347922, "- N/A -   "
37.26, 1494.06, 0.0622131, NaN, NaN, NaN, 0.0335714, "- N/A -   "
37.3, 1495.85, 0.06227977, NaN, NaN, NaN, 0.0347922, "- N/A -   "
37.34, 1497.52, 0.06234363, NaN, NaN, NaN, 0.0347922, "- N/A -   "
37.38, 1499.43, 0.0624158, NaN, NaN, NaN, 0.0323506, "- N/A -   "
37.42, 1501.456, 0.0624825, NaN, NaN, NaN, 0.0323506, "- N/A -   "
37.46, 1503.13, 0.0625491, NaN, NaN, NaN, 0.0323506, "- N/A -   "
37.5, 1504.91, 0.06262131, NaN, NaN, NaN, 0.03112983, "- N/A -   "
37.54, 1506.7, 0.0626824, NaN, NaN, NaN, 0.0323506, "- N/A -   "
37.58, 1508.25, 0.0627407, NaN, NaN, NaN, 0.03601294, "- N/A -   "
37.62, 1509.923, 0.06280458, NaN, NaN, NaN, 0.0384545, "- N/A -   "
37.66, 1511.59, 0.06286289, NaN, NaN, NaN, 0.04089605, "- N/A -   "
37.7, 1513.26, 0.062924, NaN, NaN, NaN, 0.0433376, "- N/A -   "
37.74, 1514.93, 0.06299062, NaN, NaN, NaN, 0.0433376, "- N/A -   "
37.78, 1516.72, 0.06305726, NaN, NaN, NaN, 0.0445584, "- N/A -   "
37.82, 1518.63, 0.0631267, NaN, NaN, NaN, 0.04211683, "- N/A -   "
37.86, 1520.89, 0.06320998, NaN, NaN, NaN, 0.03601294, "- N/A -   "
37.9, 1522.92, 0.06328218, NaN, NaN, NaN, 0.0323506, "- N/A -   "
37.94, 1524.71, 0.0633516, NaN, NaN, NaN, 0.0323506, "- N/A -   "
37.98, 1526.38, 0.06341824, NaN, NaN, NaN, 0.0323506, "- N/A -   "
38.02, 1528.17, 0.06348488, NaN, NaN, NaN, 0.0323506, "- N/A -   "
38.06, 1530.08, 0.0635543, NaN, NaN, NaN, 0.0299091, "- N/A -   "
38.1, 1531.98, 0.06362649, NaN, NaN, NaN, 0.0286883, "- N/A -   "
38.14, 1533.77, 0.0636876, NaN, NaN, NaN, 0.0299091, "- N/A -   "
38.18, 1535.32, 0.06374867, NaN, NaN, NaN, 0.0323506, "- N/A -   "
38.22, 1536.87, 0.06380976, NaN, NaN, NaN, 0.0347922, "- N/A -   "
38.26, 1538.42, 0.0638681, NaN, NaN, NaN, 0.0384545, "- N/A -   "
38.3, 1539.97, 0.0639292, NaN, NaN, NaN, 0.04089605, "- N/A -   "
38.34, 1541.644, 0.06399025, NaN, NaN, NaN, 0.0433376, "- N/A -   "
38.38, 1543.19, 0.06405134, NaN, NaN, NaN, 0.04577916, "- N/A -   "
38.383, 1543.31, 0.06405689, NaN, NaN, NaN, 0.04577916, "- N/A -   "