File: 2_Tensile_Data/Hamel_ForceTest_Bolt3_Test3.csv
Time, Load (lb), Position (in), AxialStrain (in), TransverseStrain (in), Auxiliary (), Control Out (V), Stress (psi)
0.0, 1.29742, 0.0, NaN, NaN, NaN, 0.09461027, "- N/A -   "
0.01, 1.65126, 3.054427E-5, NaN, NaN, NaN, 0.0897272, "- N/A -   "
0.02, 1.76921, 5.83118e-05, NaN, NaN, NaN, 0.08362327, "- N/A -   "
0.03, 2.12305, 8.607931E-5, NaN, NaN, NaN, 0.0799609, "- N/A -   "
0.04, 2.35895, 0.000113847, NaN, NaN, NaN, 0.0750778, "- N/A -   "
0.05, 2.712792, 0.000141614, NaN, NaN, NaN, 0.0701947, "- N/A -   "
0.06, 2.83074, 0.000166605, NaN, NaN, NaN, 0.0653116, "- N/A -   "
0.07, 3.06663, 0.000191596, NaN, NaN, NaN, 0.06287005, "- N/A -   "
0.08, 3.30253, 0.000216587, NaN, NaN, NaN, 0.0592077, "- N/A -   "
0.09, 3.53842, 0.000238801, NaN, NaN, NaN, 0.0555454, "- N/A -   "
0.1, 3.774319, 0.000263791, NaN, NaN, NaN, 0.05188305, "- N/A -   "
0.11, 4.010214, 0.000288782, NaN, NaN, NaN, 0.0494415, "- N/A -   "
0.12, 4.12816, 3.109962E-4, NaN, NaN, NaN, 0.04699994, "- N/A -   "
0.13, 4.482, 0.000330433, NaN, NaN, NaN, 0.0445584, "- N/A -   "
0.14, 4.59995, 0.000355424, NaN, NaN, NaN, 0.04211683, "- N/A -   "
0.15, 4.83585, 3.748615E-4, NaN, NaN, NaN, 0.0396753, "- N/A -   "
0.16, 4.953794, 0.000397076, NaN, NaN, NaN, 0.0372337, "- N/A -   "
0.17, 5.18969, 0.000416513, NaN, NaN, NaN, 0.03601294, "- N/A -   "
0.18, 5.307636, 0.00043595, NaN, NaN, NaN, 0.0347922, "- N/A -   "
0.19, 5.54353, 4.553873E-4, NaN, NaN, NaN, 0.0335714, "- N/A -   "
0.2, 5.66148, 4.720478E-4, NaN, NaN, NaN, 0.0335714, "- N/A -   "
0.21, 5.779426, 4.887083E-4, NaN, NaN, NaN, 0.0335714, "- N/A -   "
0.23, 6.13327, 5.248061E-4, NaN, NaN, NaN, 0.0335714, "- N/A -   "
0.25, 6.487111, 5.553504E-4, NaN, NaN, NaN, 0.0335714, "- N/A -   "
0.27, 6.84095, 0.000588671, NaN, NaN, NaN, 0.0347922, "- N/A -   "
0.29, 7.1948, 6.164389E-4, NaN, NaN, NaN, 0.03601294, "- N/A -   "
0.31, 7.548638, 6.442064E-4, NaN, NaN, NaN, 0.0384545, "- N/A -   "
0.33, 8.020428, 6.747507E-4, NaN, NaN, NaN, 0.0396753, "- N/A -   "
0.35, 8.256323, 0.000705295, NaN, NaN, NaN, 0.04211683, "- N/A -   "
0.37, 8.610166, 0.000733062, NaN, NaN, NaN, 0.0433376, "- N/A -   "
0.39, 8.964007, 0.000763607, NaN, NaN, NaN, 0.0445584, "- N/A -   "
0.41, 9.31785, 0.000794151, NaN, NaN, NaN, 0.04577916, "- N/A -   "
0.43, 9.907588, 8.302488E-4, NaN, NaN, NaN, 0.04577916, "- N/A -   "
0.45, 10.26143, 8.635698E-4, NaN, NaN, NaN, 0.0445584, "- N/A -   "
0.47, 10.8512, 8.968908E-4, NaN, NaN, NaN, 0.0445584, "- N/A -   "
0.49, 11.205, 0.000930212, NaN, NaN, NaN, 0.0445584, "- N/A -   "
0.51, 11.6768, 0.000960756, NaN, NaN, NaN, 0.04577916, "- N/A -   "
0.53, 12.0306, 9.940772E-4, NaN, NaN, NaN, 0.04699994, "- N/A -   "
0.55, 12.5024, 0.00103017, NaN, NaN, NaN, 0.0445584, "- N/A -   "
0.57, 12.9742, 0.00106627, NaN, NaN, NaN, 0.0433376, "- N/A -   "
0.59, 13.446, 0.00110237, NaN, NaN, NaN, 0.04211683, "- N/A -   "
0.61, 13.9178, 0.00113569, NaN, NaN, NaN, 0.04211683, "- N/A -   "
0.63, 14.5075, 0.001174566, NaN, NaN, NaN, 0.0396753, "- N/A -   "
0.65, 14.9793, 0.00121344, NaN, NaN, NaN, 0.0372337, "- N/A -   "
0.67, 15.5691, 0.00125509, NaN, NaN, NaN, 0.0347922, "- N/A -   "
0.69, 16.0409, 0.00129397, NaN, NaN, NaN, 0.03112983, "- N/A -   "
0.71, 16.6306, 0.00133284, NaN, NaN, NaN, 0.0299091, "- N/A -   "
0.73, 17.1024, 0.00136616, NaN, NaN, NaN, 0.0286883, "- N/A -   "
0.75, 17.5742, 0.001399483, NaN, NaN, NaN, 0.0299091, "- N/A -   "
0.77, 18.046, 0.00143003, NaN, NaN, NaN, 0.0299091, "- N/A -   "
0.79, 18.5178, 0.00146335, NaN, NaN, NaN, 0.03112983, "- N/A -   "
0.81, 18.8716, 0.00149389, NaN, NaN, NaN, 0.0323506, "- N/A -   "
0.83, 19.3434, 0.00152444, NaN, NaN, NaN, 0.0323506, "- N/A -   "
0.85, 19.8152, 0.001554981, NaN, NaN, NaN, 0.0335714, "- N/A -   "
0.87, 20.287, 0.0015883, NaN, NaN, NaN, 0.0335714, "- N/A -   "
0.89, 20.7588, 0.001621623, NaN, NaN, NaN, 0.0335714, "- N/A -   "
0.91, 21.2305, 0.00165217, NaN, NaN, NaN, 0.0347922, "- N/A -   "
0.93, 21.7023, 0.00168549, NaN, NaN, NaN, 0.0347922, "- N/A -   "
0.95, 22.0562, 0.00171881, NaN, NaN, NaN, 0.03601294, "- N/A -   "
0.97, 22.528, 0.00174935, NaN, NaN, NaN, 0.03601294, "- N/A -   "
0.99, 23.1177, 0.001779898, NaN, NaN, NaN, 0.0372337, "- N/A -   "
1.01, 23.5895, 0.00181322, NaN, NaN, NaN, 0.0372337, "- N/A -   "
1.03, 23.82539, 0.00184376, NaN, NaN, NaN, 0.0396753, "- N/A -   "
1.05, 24.4151, 0.00187431, NaN, NaN, NaN, 0.0396753, "- N/A -   "
1.07, 24.8869, 0.001902075, NaN, NaN, NaN, 0.04211683, "- N/A -   "
1.09, 25.3587, 0.00193262, NaN, NaN, NaN, 0.0433376, "- N/A -   "
1.11, 25.8305, 0.00196594, NaN, NaN, NaN, 0.0445584, "- N/A -   "
1.13, 26.3023, 0.00199926, NaN, NaN, NaN, 0.0433376, "- N/A -   "
1.15, 26.7741, 0.00202981, NaN, NaN, NaN, 0.0445584, "- N/A -   "
1.17, 27.2459, 0.00206313, NaN, NaN, NaN, 0.0445584, "- N/A -   "
1.19, 27.8356, 0.00209645, NaN, NaN, NaN, 0.0445584, "- N/A -   "
1.21, 28.3074, 0.00213532, NaN, NaN, NaN, 0.0433376, "- N/A -   "
1.23, 29.0151, 0.0021742, NaN, NaN, NaN, 0.0396753, "- N/A -   "
1.25, 29.7228, 0.00221585, NaN, NaN, NaN, 0.0372337, "- N/A -   "
1.27, 30.3125, 0.002251946, NaN, NaN, NaN, 0.0347922, "- N/A -   "
1.29, 30.9022, 0.00229082, NaN, NaN, NaN, 0.0335714, "- N/A -   "
1.31, 31.492, 0.00232969, NaN, NaN, NaN, 0.03112983, "- N/A -   "
1.33, 32.08171, 0.002363016, NaN, NaN, NaN, 0.0299091, "- N/A -   "
1.35, 32.5535, 0.00239911, NaN, NaN, NaN, 0.0299091, "- N/A -   "
1.37, 33.02529, 0.002429658, NaN, NaN, NaN, 0.0299091, "- N/A -   "
1.39, 33.49708, 0.002462979, NaN, NaN, NaN, 0.03112983, "- N/A -   "
1.41, 33.9689, 0.002493523, NaN, NaN, NaN, 0.0323506, "- N/A -   "
1.43, 34.4407, 0.00252407, NaN, NaN, NaN, 0.0335714, "- N/A -   "
1.45, 35.0304, 0.00255461, NaN, NaN, NaN, 0.0347922, "- N/A -   "
1.47, 35.3842, 0.00258516, NaN, NaN, NaN, 0.03601294, "- N/A -   "
1.49, 35.97398, 0.0026157, NaN, NaN, NaN, 0.0372337, "- N/A -   "
1.51, 36.44577, 0.00264902, NaN, NaN, NaN, 0.0372337, "- N/A -   "
1.53, 37.0355, 0.00268234, NaN, NaN, NaN, 0.03601294, "- N/A -   "
1.55, 37.74319, 0.00271844, NaN, NaN, NaN, 0.0347922, "- N/A -   "
1.57, 38.3329, 0.00275731, NaN, NaN, NaN, 0.0335714, "- N/A -   "
1.59, 38.9227, 0.00279064, NaN, NaN, NaN, 0.0323506, "- N/A -   "
1.61, 39.3945, 0.00282396, NaN, NaN, NaN, 0.0323506, "- N/A -   "
1.63, 39.98419, 0.002854501, NaN, NaN, NaN, 0.0335714, "- N/A -   "
1.65, 40.456, 0.002887822, NaN, NaN, NaN, 0.0335714, "- N/A -   "
1.67, 40.9278, 0.00291559, NaN, NaN, NaN, 0.03601294, "- N/A -   "
1.69, 41.39956, 0.00294891, NaN, NaN, NaN, 0.0372337, "- N/A -   "
1.71, 41.8714, 0.00297668, NaN, NaN, NaN, 0.0384545, "- N/A -   "
1.73, 42.3431, 0.00300445, NaN, NaN, NaN, 0.04089605, "- N/A -   "
1.75, 42.8149, 0.00303499, NaN, NaN, NaN, 0.04211683, "- N/A -   "
1.77, 43.2867, 0.003065534, NaN, NaN, NaN, 0.0433376, "- N/A -   "
1.79, 43.87646, 0.003101632, NaN, NaN, NaN, 0.0433376, "- N/A -   "
1.81, 44.58414, 0.00313773, NaN, NaN, NaN, 0.04089605, "- N/A -   "
1.83, 45.17388, 0.00317383, NaN, NaN, NaN, 0.0396753, "- N/A -   "
1.85, 45.6457, 0.00320437, NaN, NaN, NaN, 0.04089605, "- N/A -   "
1.87, 46.11746, 0.00323769, NaN, NaN, NaN, 0.04089605, "- N/A -   "
1.89, 46.7072, 0.00327379, NaN, NaN, NaN, 0.04089605, "- N/A -   "
1.91, 47.2969, 0.00330711, NaN, NaN, NaN, 0.04089605, "- N/A -   "
1.93, 47.8867, 0.00334043, NaN, NaN, NaN, 0.0396753, "- N/A -   "
1.95, 48.3585, 0.00337375, NaN, NaN, NaN, 0.0396753, "- N/A -   "
1.97, 49.0661, 0.003412628, NaN, NaN, NaN, 0.0384545, "- N/A -   "
1.99, 49.6559, 0.00344873, NaN, NaN, NaN, 0.03601294, "- N/A -   "
2.01, 50.2456, 0.00348205, NaN, NaN, NaN, 0.03601294, "- N/A -   "
2.03, 50.83536, 0.00351814, NaN, NaN, NaN, 0.0347922, "- N/A -   "
2.05, 51.1892, 0.00354869, NaN, NaN, NaN, 0.03601294, "- N/A -   "
2.07, 51.7789, 0.00358479, NaN, NaN, NaN, 0.03601294, "- N/A -   "
2.09, 52.48662, 0.00362088, NaN, NaN, NaN, 0.0347922, "- N/A -   "
2.11, 52.9584, 0.00365698, NaN, NaN, NaN, 0.0323506, "- N/A -   "
2.13, 53.54815, 0.0036903, NaN, NaN, NaN, 0.0323506, "- N/A -   "
2.15, 54.0199, 0.00372362, NaN, NaN, NaN, 0.0323506, "- N/A -   "
2.17, 54.6097, 0.00375695, NaN, NaN, NaN, 0.0323506, "- N/A -   "
2.19, 55.0815, 0.00379027, NaN, NaN, NaN, 0.0323506, "- N/A -   "
2.21, 55.55326, 0.00382081, NaN, NaN, NaN, 0.0335714, "- N/A -   "
2.23, 56.02505, 0.00385135, NaN, NaN, NaN, 0.0347922, "- N/A -   "
2.25, 56.4968, 0.003884676, NaN, NaN, NaN, 0.0347922, "- N/A -   "
2.27, 57.08658, 0.003917997, NaN, NaN, NaN, 0.0347922, "- N/A -   "
2.29, 57.5584, 0.003951318, NaN, NaN, NaN, 0.0347922, "- N/A -   "
2.31, 58.1481, 0.00398742, NaN, NaN, NaN, 0.0335714, "- N/A -   "
2.33, 58.6199, 0.00402351, NaN, NaN, NaN, 0.0323506, "- N/A -   "
2.35, 59.0917, 0.00405683, NaN, NaN, NaN, 0.0323506, "- N/A -   "
2.37, 59.5635, 0.00409016, NaN, NaN, NaN, 0.0323506, "- N/A -   "
2.39, 60.0353, 0.0041207, NaN, NaN, NaN, 0.0335714, "- N/A -   "
2.41, 60.5071, 0.004148467, NaN, NaN, NaN, 0.03601294, "- N/A -   "
2.43, 60.8609, 0.00417901, NaN, NaN, NaN, 0.0372337, "- N/A -   "
2.45, 61.2147, 0.00421233, NaN, NaN, NaN, 0.0372337, "- N/A -   "
2.47, 61.8045, 0.00424565, NaN, NaN, NaN, 0.0372337, "- N/A -   "
2.49, 62.2763, 0.00427897, NaN, NaN, NaN, 0.0384545, "- N/A -   "
2.51, 62.6301, 0.00430952, NaN, NaN, NaN, 0.0384545, "- N/A -   "
2.53, 63.1019, 0.00434006, NaN, NaN, NaN, 0.0396753, "- N/A -   "
2.55, 63.45574, 0.004373384, NaN, NaN, NaN, 0.0396753, "- N/A -   "
2.57, 64.04548, 0.00440393, NaN, NaN, NaN, 0.04211683, "- N/A -   "
2.59, 64.5173, 0.00443725, NaN, NaN, NaN, 0.04211683, "- N/A -   "
2.61, 64.98906, 0.00447057, NaN, NaN, NaN, 0.04089605, "- N/A -   "
2.63, 65.4608, 0.00450667, NaN, NaN, NaN, 0.0396753, "- N/A -   "
2.65, 66.05058, 0.00453999, NaN, NaN, NaN, 0.0396753, "- N/A -   "
2.67, 66.52237, 0.004576087, NaN, NaN, NaN, 0.0384545, "- N/A -   "
2.69, 66.99416, 0.00461496, NaN, NaN, NaN, 0.03601294, "- N/A -   "
2.71, 67.70185, 0.004653836, NaN, NaN, NaN, 0.0335714, "- N/A -   "
2.73, 68.17364, 0.00468716, NaN, NaN, NaN, 0.0335714, "- N/A -   "
2.75, 68.6454, 0.00472325, NaN, NaN, NaN, 0.0323506, "- N/A -   "
2.77, 68.9993, 0.004756576, NaN, NaN, NaN, 0.0323506, "- N/A -   "
2.79, 69.589, 0.004789897, NaN, NaN, NaN, 0.0323506, "- N/A -   "
2.81, 70.0608, 0.004825995, NaN, NaN, NaN, 0.03112983, "- N/A -   "
2.83, 70.41464, 0.004856539, NaN, NaN, NaN, 0.0323506, "- N/A -   "
2.85, 70.88643, 0.004887083, NaN, NaN, NaN, 0.0335714, "- N/A -   "
2.87, 71.3582, 0.004920405, NaN, NaN, NaN, 0.0347922, "- N/A -   "
2.89, 71.83001, 0.00495373, NaN, NaN, NaN, 0.0347922, "- N/A -   "
2.91, 72.3018, 0.00498982, NaN, NaN, NaN, 0.0323506, "- N/A -   "
2.93, 73.00948, 0.005028697, NaN, NaN, NaN, 0.0299091, "- N/A -   "
2.95, 73.48127, 0.0050648, NaN, NaN, NaN, 0.0286883, "- N/A -   "
2.97, 73.83511, 0.005098117, NaN, NaN, NaN, 0.0286883, "- N/A -   "
2.99, 74.42485, 0.00513144, NaN, NaN, NaN, 0.0286883, "- N/A -   "
3.01, 74.8966, 0.00516198, NaN, NaN, NaN, 0.0299091, "- N/A -   "
3.03, 75.25049, 0.00519253, NaN, NaN, NaN, 0.0323506, "- N/A -   "
3.05, 75.7223, 0.00522307, NaN, NaN, NaN, 0.0323506, "- N/A -   "
3.07, 76.19407, 0.00525084, NaN, NaN, NaN, 0.0347922, "- N/A -   "
3.09, 76.5479, 0.005281382, NaN, NaN, NaN, 0.03601294, "- N/A -   "
3.11, 76.7838, 0.00530915, NaN, NaN, NaN, 0.0384545, "- N/A -   "
3.13, 77.37354, 0.00533969, NaN, NaN, NaN, 0.04089605, "- N/A -   "
3.15, 77.72738, 0.00536746, NaN, NaN, NaN, 0.04211683, "- N/A -   "
3.17, 78.08122, 0.00539801, NaN, NaN, NaN, 0.0433376, "- N/A -   "
3.19, 78.55301, 0.005425773, NaN, NaN, NaN, 0.04577916, "- N/A -   "
3.21, 79.0248, 0.005453541, NaN, NaN, NaN, 0.0482207, "- N/A -   "
3.23, 79.61454, 0.005489638, NaN, NaN, NaN, 0.04699994, "- N/A -   "
3.25, 79.96838, 0.00552296, NaN, NaN, NaN, 0.04699994, "- N/A -   "
3.27, 80.55813, 0.00556183, NaN, NaN, NaN, 0.0445584, "- N/A -   "
3.29, 81.14786, 0.005600708, NaN, NaN, NaN, 0.04211683, "- N/A -   "
3.31, 81.7376, 0.00563958, NaN, NaN, NaN, 0.0396753, "- N/A -   "
3.33, 82.32734, 0.00567568, NaN, NaN, NaN, 0.0384545, "- N/A -   "
3.35, 82.91707, 0.005711778, NaN, NaN, NaN, 0.0372337, "- N/A -   "
3.37, 83.38886, 0.00575065, NaN, NaN, NaN, 0.0347922, "- N/A -   "
3.39, 83.9786, 0.00578675, NaN, NaN, NaN, 0.0335714, "- N/A -   "
3.41, 84.45039, 0.005822848, NaN, NaN, NaN, 0.0335714, "- N/A -   "
3.43, 84.92217, 0.00585617, NaN, NaN, NaN, 0.0323506, "- N/A -   "
3.45, 85.51192, 0.00588949, NaN, NaN, NaN, 0.0323506, "- N/A -   "
3.47, 85.9837, 0.00592281, NaN, NaN, NaN, 0.0323506, "- N/A -   "
3.49, 86.57345, 0.005961686, NaN, NaN, NaN, 0.0299091, "- N/A -   "
3.51, 87.04523, 0.005997784, NaN, NaN, NaN, 0.0299091, "- N/A -   "
3.53, 87.51702, 0.006033882, NaN, NaN, NaN, 0.0286883, "- N/A -   "
3.55, 88.10676, 0.006064426, NaN, NaN, NaN, 0.0299091, "- N/A -   "
3.57, 88.4606, 0.00609497, NaN, NaN, NaN, 0.03112983, "- N/A -   "
3.59, 88.9324, 0.00612829, NaN, NaN, NaN, 0.03112983, "- N/A -   "
3.61, 89.40418, 0.006161612, NaN, NaN, NaN, 0.03112983, "- N/A -   "
3.63, 89.99392, 0.00619771, NaN, NaN, NaN, 0.0299091, "- N/A -   "
3.65, 90.4657, 0.006231032, NaN, NaN, NaN, 0.0299091, "- N/A -   "
3.67, 90.9375, 0.006261576, NaN, NaN, NaN, 0.03112983, "- N/A -   "
3.69, 91.2913, 0.00628934, NaN, NaN, NaN, 0.0335714, "- N/A -   "
3.71, 91.64519, 0.00631989, NaN, NaN, NaN, 0.03601294, "- N/A -   "
3.73, 92.23492, 0.00635043, NaN, NaN, NaN, 0.0372337, "- N/A -   "
3.75, 92.47082, 0.0063782, NaN, NaN, NaN, 0.0384545, "- N/A -   "
3.77, 92.94261, 0.00640874, NaN, NaN, NaN, 0.04089605, "- N/A -   "
3.79, 93.2965, 0.006433734, NaN, NaN, NaN, 0.0433376, "- N/A -   "
3.81, 93.65029, 0.00646428, NaN, NaN, NaN, 0.0445584, "- N/A -   "
3.83, 94.35797, 0.0064976, NaN, NaN, NaN, 0.0445584, "- N/A -   "
3.85, 94.8298, 0.0065337, NaN, NaN, NaN, 0.0433376, "- N/A -   "
3.87, 95.30156, 0.006567018, NaN, NaN, NaN, 0.0433376, "- N/A -   "
3.89, 95.8913, 0.006603116, NaN, NaN, NaN, 0.0433376, "- N/A -   "
3.91, 96.481, 0.00663366, NaN, NaN, NaN, 0.0433376, "- N/A -   "
3.93, 96.83487, 0.00666698, NaN, NaN, NaN, 0.0433376, "- N/A -   "
3.95, 97.30666, 0.00669753, NaN, NaN, NaN, 0.0445584, "- N/A -   "
3.97, 97.77845, 0.00673085, NaN, NaN, NaN, 0.0445584, "- N/A -   "
3.99, 98.3682, 0.00676972, NaN, NaN, NaN, 0.04211683, "- N/A -   "
4.01, 98.83998, 0.00680582, NaN, NaN, NaN, 0.04089605, "- N/A -   "
4.03, 99.54767, 0.006844694, NaN, NaN, NaN, 0.0384545, "- N/A -   "
4.05, 100.137, 0.006883568, NaN, NaN, NaN, 0.03601294, "- N/A -   "
4.07, 100.845, 0.00692522, NaN, NaN, NaN, 0.0323506, "- N/A -   "
4.09, 101.317, 0.006964094, NaN, NaN, NaN, 0.0299091, "- N/A -   "
4.11, 101.907, 0.007000192, NaN, NaN, NaN, 0.0286883, "- N/A -   "
4.13, 102.3784, 0.007030736, NaN, NaN, NaN, 0.0299091, "- N/A -   "
4.15, 102.85, 0.00706406, NaN, NaN, NaN, 0.0299091, "- N/A -   "
4.17, 103.204, 0.00709738, NaN, NaN, NaN, 0.0299091, "- N/A -   "
4.19, 103.794, 0.0071307, NaN, NaN, NaN, 0.0299091, "- N/A -   "
4.21, 104.266, 0.00716402, NaN, NaN, NaN, 0.0299091, "- N/A -   "
4.23, 104.855, 0.007194564, NaN, NaN, NaN, 0.03112983, "- N/A -   "
4.25, 105.209, 0.00722788, NaN, NaN, NaN, 0.03112983, "- N/A -   "
4.27, 105.799, 0.00725565, NaN, NaN, NaN, 0.0335714, "- N/A -   "
4.29, 106.153, 0.00729175, NaN, NaN, NaN, 0.0335714, "- N/A -   "
4.31, 106.625, 0.00732229, NaN, NaN, NaN, 0.0335714, "- N/A -   "
4.33, 107.0963, 0.00735284, NaN, NaN, NaN, 0.0347922, "- N/A -   "
4.35, 107.568, 0.00738616, NaN, NaN, NaN, 0.03601294, "- N/A -   "
4.37, 108.158, 0.0074167, NaN, NaN, NaN, 0.03601294, "- N/A -   "
4.39, 108.63, 0.007450025, NaN, NaN, NaN, 0.03601294, "- N/A -   "
4.41, 108.983, 0.007480569, NaN, NaN, NaN, 0.0372337, "- N/A -   "
4.43, 109.5732, 0.00751389, NaN, NaN, NaN, 0.0372337, "- N/A -   "
4.45, 109.927, 0.007547211, NaN, NaN, NaN, 0.0372337, "- N/A -   "
4.47, 110.399, 0.0075722, NaN, NaN, NaN, 0.04089605, "- N/A -   "
4.49, 110.871, 0.00759997, NaN, NaN, NaN, 0.0433376, "- N/A -   "
4.51, 111.224, 0.00763051, NaN, NaN, NaN, 0.0445584, "- N/A -   "
4.53, 111.696, 0.007663835, NaN, NaN, NaN, 0.0445584, "- N/A -   "
4.55, 112.286, 0.00769716, NaN, NaN, NaN, 0.04577916, "- N/A -   "
4.57, 112.758, 0.0077277, NaN, NaN, NaN, 0.04577916, "- N/A -   "
4.59, 113.348, 0.007761021, NaN, NaN, NaN, 0.04577916, "- N/A -   "
4.61, 113.819, 0.007794343, NaN, NaN, NaN, 0.04577916, "- N/A -   "
4.63, 114.409, 0.007830441, NaN, NaN, NaN, 0.0445584, "- N/A -   "
4.65, 115.117, 0.007869315, NaN, NaN, NaN, 0.04211683, "- N/A -   "
4.67, 115.824, 0.007910967, NaN, NaN, NaN, 0.0396753, "- N/A -   "
4.69, 116.414, 0.007949841, NaN, NaN, NaN, 0.0372337, "- N/A -   "
4.71, 116.886, 0.007985938, NaN, NaN, NaN, 0.0347922, "- N/A -   "
4.73, 117.594, 0.008022036, NaN, NaN, NaN, 0.0335714, "- N/A -   "
4.75, 118.065, 0.008063687, NaN, NaN, NaN, 0.03112983, "- N/A -   "
4.77, 118.655, 0.008094232, NaN, NaN, NaN, 0.03112983, "- N/A -   "
4.79, 119.127, 0.008127553, NaN, NaN, NaN, 0.03112983, "- N/A -   "
4.81, 119.481, 0.008160873, NaN, NaN, NaN, 0.03112983, "- N/A -   "
4.83, 119.953, 0.008188642, NaN, NaN, NaN, 0.0335714, "- N/A -   "
4.85, 120.424, 0.00822196, NaN, NaN, NaN, 0.0347922, "- N/A -   "
4.87, 121.014, 0.008252507, NaN, NaN, NaN, 0.0347922, "- N/A -   "
4.89, 121.486, 0.008288605, NaN, NaN, NaN, 0.0347922, "- N/A -   "
4.91, 122.076, 0.008321925, NaN, NaN, NaN, 0.0335714, "- N/A -   "
4.93, 122.547, 0.008355247, NaN, NaN, NaN, 0.0335714, "- N/A -   "
4.95, 123.137, 0.008391344, NaN, NaN, NaN, 0.0323506, "- N/A -   "
4.97, 123.609, 0.008424665, NaN, NaN, NaN, 0.0335714, "- N/A -   "
4.99, 124.081, 0.008457986, NaN, NaN, NaN, 0.0323506, "- N/A -   "
5.01, 124.67, 0.008494084, NaN, NaN, NaN, 0.03112983, "- N/A -   "
5.03, 125.26, 0.008524627, NaN, NaN, NaN, 0.0323506, "- N/A -   "
5.05, 125.614, 0.008555173, NaN, NaN, NaN, 0.0335714, "- N/A -   "
5.07, 126.086, 0.008588494, NaN, NaN, NaN, 0.0347922, "- N/A -   "
5.09, 126.558, 0.008619037, NaN, NaN, NaN, 0.03601294, "- N/A -   "
5.11, 127.029, 0.008646806, NaN, NaN, NaN, 0.0372337, "- N/A -   "
5.13, 127.501, 0.008680126, NaN, NaN, NaN, 0.0384545, "- N/A -   "
5.15, 127.855, 0.008707894, NaN, NaN, NaN, 0.04089605, "- N/A -   "
5.17, 128.4448, 0.008738438, NaN, NaN, NaN, 0.04089605, "- N/A -   "
5.19, 128.917, 0.008768982, NaN, NaN, NaN, 0.04211683, "- N/A -   "
5.21, 129.506, 0.008805079, NaN, NaN, NaN, 0.04089605, "- N/A -   "
5.23, 129.86, 0.008838401, NaN, NaN, NaN, 0.04089605, "- N/A -   "
5.25, 130.568, 0.008874499, NaN, NaN, NaN, 0.0396753, "- N/A -   "
5.27, 131.1576, 0.00890782, NaN, NaN, NaN, 0.0396753, "- N/A -   "
5.29, 131.629, 0.008941141, NaN, NaN, NaN, 0.0396753, "- N/A -   "
5.31, 132.219, 0.008974462, NaN, NaN, NaN, 0.0396753, "- N/A -   "
5.33, 132.809, 0.00901056, NaN, NaN, NaN, 0.0384545, "- N/A -   "
5.35, 133.281, 0.009046658, NaN, NaN, NaN, 0.0372337, "- N/A -   "
5.37, 133.87, 0.009079978, NaN, NaN, NaN, 0.0372337, "- N/A -   "
5.39, 134.342, 0.009116076, NaN, NaN, NaN, 0.03601294, "- N/A -   "
5.41, 134.932, 0.009149398, NaN, NaN, NaN, 0.03601294, "- N/A -   "
5.43, 135.286, 0.009182718, NaN, NaN, NaN, 0.0372337, "- N/A -   "
5.45, 135.875, 0.009216039, NaN, NaN, NaN, 0.0372337, "- N/A -   "
5.47, 136.347, 0.00924936, NaN, NaN, NaN, 0.03601294, "- N/A -   "
5.49, 136.937, 0.009282682, NaN, NaN, NaN, 0.03601294, "- N/A -   "
5.51, 137.527, 0.009318779, NaN, NaN, NaN, 0.03601294, "- N/A -   "
5.53, 137.999, 0.0093521, NaN, NaN, NaN, 0.0347922, "- N/A -   "
5.55, 138.588, 0.009385422, NaN, NaN, NaN, 0.0347922, "- N/A -   "
5.57, 139.178, 0.009424296, NaN, NaN, NaN, 0.0323506, "- N/A -   "
5.59, 139.65, 0.009457617, NaN, NaN, NaN, 0.0323506, "- N/A -   "
5.61, 140.24, 0.009493715, NaN, NaN, NaN, 0.03112983, "- N/A -   "
5.63, 140.829, 0.009527036, NaN, NaN, NaN, 0.03112983, "- N/A -   "
5.65, 141.183, 0.009560358, NaN, NaN, NaN, 0.03112983, "- N/A -   "
5.67, 141.773, 0.009590901, NaN, NaN, NaN, 0.0323506, "- N/A -   "
5.69, 142.245, 0.009621446, NaN, NaN, NaN, 0.0335714, "- N/A -   "
5.71, 142.716, 0.009657544, NaN, NaN, NaN, 0.0323506, "- N/A -   "
5.73, 143.306, 0.009693641, NaN, NaN, NaN, 0.0323506, "- N/A -   "
5.75, 143.896, 0.009724186, NaN, NaN, NaN, 0.0323506, "- N/A -   "
5.77, 144.25, 0.009754729, NaN, NaN, NaN, 0.0335714, "- N/A -   "
5.79, 144.722, 0.00979083, NaN, NaN, NaN, 0.0335714, "- N/A -   "
5.81, 145.311, 0.009821372, NaN, NaN, NaN, 0.0335714, "- N/A -   "
5.83, 145.783, 0.009851916, NaN, NaN, NaN, 0.0347922, "- N/A -   "
5.85, 146.255, 0.00988246, NaN, NaN, NaN, 0.0372337, "- N/A -   "
5.87, 146.6087, 0.00990745, NaN, NaN, NaN, 0.0396753, "- N/A -   "
5.89, 147.0805, 0.009940772, NaN, NaN, NaN, 0.0396753, "- N/A -   "
5.91, 147.67, 0.009974092, NaN, NaN, NaN, 0.0396753, "- N/A -   "
5.93, 148.142, 0.0100046, NaN, NaN, NaN, 0.04089605, "- N/A -   "
5.95, 148.732, 0.0100352, NaN, NaN, NaN, 0.04211683, "- N/A -   "
5.97, 149.0856, 0.0100657, NaN, NaN, NaN, 0.0433376, "- N/A -   "
5.99, 149.557, 0.0100935, NaN, NaN, NaN, 0.04577916, "- N/A -   "
6.01, 150.147, 0.0101296, NaN, NaN, NaN, 0.0445584, "- N/A -   "
6.03, 150.855, 0.0101657, NaN, NaN, NaN, 0.0445584, "- N/A -   "
6.05, 151.327, 0.01019901, NaN, NaN, NaN, 0.0433376, "- N/A -   "
6.07, 151.916, 0.0102351, NaN, NaN, NaN, 0.04211683, "- N/A -   "
6.09, 152.506, 0.010274, NaN, NaN, NaN, 0.0396753, "- N/A -   "
6.11, 153.096, 0.0103129, NaN, NaN, NaN, 0.0384545, "- N/A -   "
6.13, 153.568, 0.010349, NaN, NaN, NaN, 0.03601294, "- N/A -   "
6.15, 154.393, 0.0103878, NaN, NaN, NaN, 0.0347922, "- N/A -   "
6.17, 154.983, 0.01042115, NaN, NaN, NaN, 0.0335714, "- N/A -   "
6.19, 155.455, 0.0104572, NaN, NaN, NaN, 0.0323506, "- N/A -   "
6.21, 156.0445, 0.0104906, NaN, NaN, NaN, 0.0323506, "- N/A -   "
6.23, 156.5163, 0.0105267, NaN, NaN, NaN, 0.0323506, "- N/A -   "
6.25, 156.988, 0.01056, NaN, NaN, NaN, 0.0323506, "- N/A -   "
6.27, 157.578, 0.0105905, NaN, NaN, NaN, 0.0323506, "- N/A -   "
6.29, 158.2855, 0.01062663, NaN, NaN, NaN, 0.0323506, "- N/A -   "
6.31, 158.875, 0.0106627, NaN, NaN, NaN, 0.0299091, "- N/A -   "
6.33, 159.347, 0.0106988, NaN, NaN, NaN, 0.0299091, "- N/A -   "
6.35, 159.819, 0.0107294, NaN, NaN, NaN, 0.0299091, "- N/A -   "
6.37, 160.2906, 0.0107627, NaN, NaN, NaN, 0.0299091, "- N/A -   "
6.39, 160.88, 0.0107988, NaN, NaN, NaN, 0.0299091, "- N/A -   "
6.41, 161.588, 0.0108321, NaN, NaN, NaN, 0.0286883, "- N/A -   "
6.43, 162.06, 0.0108599, NaN, NaN, NaN, 0.03112983, "- N/A -   "
6.45, 162.414, 0.0108932, NaN, NaN, NaN, 0.0323506, "- N/A -   "
6.47, 162.885, 0.0109237, NaN, NaN, NaN, 0.0335714, "- N/A -   "
6.49, 163.357, 0.0109515, NaN, NaN, NaN, 0.0347922, "- N/A -   "
6.51, 163.829, 0.0109793, NaN, NaN, NaN, 0.0372337, "- N/A -   "
6.53, 164.183, 0.0110098, NaN, NaN, NaN, 0.0396753, "- N/A -   "
6.55, 164.655, 0.0110348, NaN, NaN, NaN, 0.04211683, "- N/A -   "
6.57, 165.126, 0.0110626, NaN, NaN, NaN, 0.0445584, "- N/A -   "
6.59, 165.7162, 0.0110931, NaN, NaN, NaN, 0.04577916, "- N/A -   "
6.61, 166.188, 0.0111264, NaN, NaN, NaN, 0.04699994, "- N/A -   "
6.63, 166.778, 0.011157, NaN, NaN, NaN, 0.04699994, "- N/A -   "
6.65, 167.132, 0.0111903, NaN, NaN, NaN, 0.04699994, "- N/A -   "
6.67, 167.839, 0.0112292, NaN, NaN, NaN, 0.04577916, "- N/A -   "
6.69, 168.429, 0.0112653, NaN, NaN, NaN, 0.0445584, "- N/A -   "
6.71, 169.137, 0.0113042, NaN, NaN, NaN, 0.04089605, "- N/A -   "
6.73, 169.844, 0.011343, NaN, NaN, NaN, 0.0384545, "- N/A -   "
6.75, 170.4341, 0.0113819, NaN, NaN, NaN, 0.03601294, "- N/A -   "
6.77, 171.142, 0.011418, NaN, NaN, NaN, 0.0347922, "- N/A -   "
6.79, 171.614, 0.0114541, NaN, NaN, NaN, 0.0335714, "- N/A -   "
6.81, 172.203, 0.0114874, NaN, NaN, NaN, 0.0347922, "- N/A -   "
6.83, 172.6751, 0.0115207, NaN, NaN, NaN, 0.0335714, "- N/A -   "
6.85, 173.383, 0.0115568, NaN, NaN, NaN, 0.0323506, "- N/A -   "
6.87, 173.855, 0.0115902, NaN, NaN, NaN, 0.0335714, "- N/A -   "
6.89, 174.4443, 0.0116235, NaN, NaN, NaN, 0.0323506, "- N/A -   "
6.91, 175.152, 0.0116624, NaN, NaN, NaN, 0.0299091, "- N/A -   "
6.93, 175.624, 0.0116957, NaN, NaN, NaN, 0.0299091, "- N/A -   "
6.95, 176.214, 0.0117318, NaN, NaN, NaN, 0.0286883, "- N/A -   "
6.97, 176.6853, 0.0117651, NaN, NaN, NaN, 0.0286883, "- N/A -   "
6.99, 177.1571, 0.0117984, NaN, NaN, NaN, 0.0299091, "- N/A -   "
7.01, 177.747, 0.01183174, NaN, NaN, NaN, 0.0286883, "- N/A -   "
7.03, 178.337, 0.0118623, NaN, NaN, NaN, 0.0299091, "- N/A -   "
7.05, 178.808, 0.0118956, NaN, NaN, NaN, 0.0299091, "- N/A -   "
7.07, 179.3981, 0.0119261, NaN, NaN, NaN, 0.03112983, "- N/A -   "
7.09, 179.87, 0.0119539, NaN, NaN, NaN, 0.0335714, "- N/A -   "
7.11, 180.224, 0.0119845, NaN, NaN, NaN, 0.0347922, "- N/A -   "
7.13, 180.696, 0.0120122, NaN, NaN, NaN, 0.0372337, "- N/A -   "
7.15, 181.167, 0.0120428, NaN, NaN, NaN, 0.0396753, "- N/A -   "
7.17, 181.757, 0.0120733, NaN, NaN, NaN, 0.04089605, "- N/A -   "
7.19, 182.229, 0.0121039, NaN, NaN, NaN, 0.04089605, "- N/A -   "
7.21, 182.819, 0.0121344, NaN, NaN, NaN, 0.04211683, "- N/A -   "
7.23, 183.29, 0.0121677, NaN, NaN, NaN, 0.0433376, "- N/A -   "
7.25, 183.8801, 0.012201, NaN, NaN, NaN, 0.04211683, "- N/A -   "
7.27, 184.47, 0.0122344, NaN, NaN, NaN, 0.04211683, "- N/A -   "
7.29, 185.06, 0.01226769, NaN, NaN, NaN, 0.04211683, "- N/A -   "
7.31, 185.531, 0.0122982, NaN, NaN, NaN, 0.0433376, "- N/A -   "
7.33, 186.003, 0.0123316, NaN, NaN, NaN, 0.0433376, "- N/A -   "
7.35, 186.593, 0.0123677, NaN, NaN, NaN, 0.0433376, "- N/A -   "
7.37, 187.183, 0.012401, NaN, NaN, NaN, 0.04211683, "- N/A -   "
7.39, 187.89, 0.0124371, NaN, NaN, NaN, 0.04089605, "- N/A -   "
7.41, 188.48, 0.01247317, NaN, NaN, NaN, 0.0396753, "- N/A -   "
7.43, 189.0698, 0.0125093, NaN, NaN, NaN, 0.0384545, "- N/A -   "
7.45, 189.66, 0.0125454, NaN, NaN, NaN, 0.0384545, "- N/A -   "
7.47, 190.367, 0.01258424, NaN, NaN, NaN, 0.03601294, "- N/A -   "
7.49, 191.075, 0.0126259, NaN, NaN, NaN, 0.0323506, "- N/A -   "
7.51, 191.7826, 0.012662, NaN, NaN, NaN, 0.0299091, "- N/A -   "
7.53, 192.372, 0.0126981, NaN, NaN, NaN, 0.0299091, "- N/A -   "
7.55, 192.962, 0.0127314, NaN, NaN, NaN, 0.0286883, "- N/A -   "
7.57, 193.434, 0.0127647, NaN, NaN, NaN, 0.0286883, "- N/A -   "
7.59, 194.024, 0.012798, NaN, NaN, NaN, 0.0286883, "- N/A -   "
7.61, 194.495, 0.0128286, NaN, NaN, NaN, 0.0299091, "- N/A -   "
7.63, 195.085, 0.0128647, NaN, NaN, NaN, 0.0286883, "- N/A -   "
7.65, 195.675, 0.0128952, NaN, NaN, NaN, 0.0299091, "- N/A -   "
7.67, 196.147, 0.01292578, NaN, NaN, NaN, 0.03112983, "- N/A -   "
7.69, 196.736, 0.0129563, NaN, NaN, NaN, 0.0323506, "- N/A -   "
7.71, 197.208, 0.0129869, NaN, NaN, NaN, 0.0335714, "- N/A -   "
7.73, 197.68, 0.0130174, NaN, NaN, NaN, 0.0347922, "- N/A -   "
7.75, 198.27, 0.013048, NaN, NaN, NaN, 0.03601294, "- N/A -   "
7.77, 198.741, 0.0130785, NaN, NaN, NaN, 0.0384545, "- N/A -   "
7.79, 199.331, 0.013109, NaN, NaN, NaN, 0.0384545, "- N/A -   "
7.81, 199.803, 0.0131451, NaN, NaN, NaN, 0.0372337, "- N/A -   "
7.83, 200.5107, 0.013184, NaN, NaN, NaN, 0.03601294, "- N/A -   "
7.85, 201.1, 0.0132146, NaN, NaN, NaN, 0.03601294, "- N/A -   "
7.87, 201.572, 0.0132479, NaN, NaN, NaN, 0.03601294, "- N/A -   "
7.89, 202.162, 0.01327565, NaN, NaN, NaN, 0.0384545, "- N/A -   "
7.91, 202.516, 0.0133062, NaN, NaN, NaN, 0.04089605, "- N/A -   "
7.93, 203.106, 0.0133367, NaN, NaN, NaN, 0.04089605, "- N/A -   "
7.95, 203.577, 0.0133673, NaN, NaN, NaN, 0.0433376, "- N/A -   "
7.97, 204.167, 0.0133978, NaN, NaN, NaN, 0.0445584, "- N/A -   "
7.99, 204.521, 0.0134284, NaN, NaN, NaN, 0.0445584, "- N/A -   "
8.01, 205.111, 0.0134617, NaN, NaN, NaN, 0.0445584, "- N/A -   "
8.03, 205.818, 0.01349779, NaN, NaN, NaN, 0.0445584, "- N/A -   "
8.05, 206.644, 0.0135394, NaN, NaN, NaN, 0.04089605, "- N/A -   "
8.07, 207.352, 0.0135811, NaN, NaN, NaN, 0.0372337, "- N/A -   "
8.09, 208.059, 0.0136172, NaN, NaN, NaN, 0.03601294, "- N/A -   "
8.11, 208.649, 0.0136561, NaN, NaN, NaN, 0.0347922, "- N/A -   "
8.13, 209.239, 0.0136922, NaN, NaN, NaN, 0.0335714, "- N/A -   "
8.15, 209.946, 0.0137283, NaN, NaN, NaN, 0.0323506, "- N/A -   "
8.17, 210.536, 0.0137644, NaN, NaN, NaN, 0.03112983, "- N/A -   "
8.19, 211.126, 0.0137977, NaN, NaN, NaN, 0.0299091, "- N/A -   "
8.21, 211.716, 0.013831, NaN, NaN, NaN, 0.0299091, "- N/A -   "
8.23, 212.07, 0.0138615, NaN, NaN, NaN, 0.03112983, "- N/A -   "
8.25, 212.6593, 0.01389209, NaN, NaN, NaN, 0.0323506, "- N/A -   "
8.27, 213.131, 0.0139199, NaN, NaN, NaN, 0.0347922, "- N/A -   "
8.29, 213.603, 0.0139504, NaN, NaN, NaN, 0.03601294, "- N/A -   "
8.31, 214.1926, 0.0139809, NaN, NaN, NaN, 0.0372337, "- N/A -   "
8.33, 214.6644, 0.01401149, NaN, NaN, NaN, 0.0384545, "- N/A -   "
8.35, 215.254, 0.0140476, NaN, NaN, NaN, 0.0384545, "- N/A -   "
8.37, 215.962, 0.0140809, NaN, NaN, NaN, 0.0372337, "- N/A -   "
8.39, 216.67, 0.0141198, NaN, NaN, NaN, 0.0347922, "- N/A -   "
8.41, 217.259, 0.0141587, NaN, NaN, NaN, 0.0335714, "- N/A -   "
8.43, 217.849, 0.014192, NaN, NaN, NaN, 0.0335714, "- N/A -   "
8.45, 218.321, 0.0142225, NaN, NaN, NaN, 0.0335714, "- N/A -   "
8.47, 218.9105, 0.0142531, NaN, NaN, NaN, 0.0347922, "- N/A -   "
8.49, 219.5, 0.0142836, NaN, NaN, NaN, 0.03601294, "- N/A -   "
8.51, 220.09, 0.0143169, NaN, NaN, NaN, 0.03601294, "- N/A -   "
8.53, 220.562, 0.0143475, NaN, NaN, NaN, 0.0372337, "- N/A -   "
8.55, 221.034, 0.014378, NaN, NaN, NaN, 0.0384545, "- N/A -   "
8.57, 221.505, 0.0144086, NaN, NaN, NaN, 0.04089605, "- N/A -   "
8.59, 222.095, 0.0144419, NaN, NaN, NaN, 0.04089605, "- N/A -   "
8.61, 222.803, 0.0144724, NaN, NaN, NaN, 0.04089605, "- N/A -   "
8.63, 223.275, 0.0145085, NaN, NaN, NaN, 0.0396753, "- N/A -   "
8.65, 223.8643, 0.0145418, NaN, NaN, NaN, 0.0396753, "- N/A -   "
8.67, 224.454, 0.0145724, NaN, NaN, NaN, 0.04089605, "- N/A -   "
8.69, 225.044, 0.0146085, NaN, NaN, NaN, 0.04089605, "- N/A -   "
8.71, 225.6335, 0.0146418, NaN, NaN, NaN, 0.0396753, "- N/A -   "
8.73, 226.3412, 0.0146779, NaN, NaN, NaN, 0.0384545, "- N/A -   "
8.75, 226.931, 0.0147112, NaN, NaN, NaN, 0.0384545, "- N/A -   "
8.77, 227.521, 0.0147446, NaN, NaN, NaN, 0.0384545, "- N/A -   "
8.79, 228.11, 0.0147779, NaN, NaN, NaN, 0.0384545, "- N/A -   "
8.81, 228.7, 0.0148112, NaN, NaN, NaN, 0.0384545, "- N/A -   "
8.83, 229.408, 0.0148445, NaN, NaN, NaN, 0.0384545, "- N/A -   "
8.85, 229.88, 0.0148778, NaN, NaN, NaN, 0.0384545, "- N/A -   "
8.87, 230.469, 0.0149139, NaN, NaN, NaN, 0.0384545, "- N/A -   "
8.89, 231.177, 0.0149473, NaN, NaN, NaN, 0.0384545, "- N/A -   "
8.91, 231.767, 0.0149834, NaN, NaN, NaN, 0.03601294, "- N/A -   "
8.93, 232.474, 0.0150222, NaN, NaN, NaN, 0.0347922, "- N/A -   "
8.95, 233.0642, 0.0150555, NaN, NaN, NaN, 0.0335714, "- N/A -   "
8.97, 233.772, 0.0150916, NaN, NaN, NaN, 0.0323506, "- N/A -   "
8.99, 234.244, 0.0151222, NaN, NaN, NaN, 0.0335714, "- N/A -   "
9, 234.48, 0.0151389, NaN, NaN, NaN, 0.0335714, "- N/A -   "
9.01, 234.833, 0.0151583, NaN, NaN, NaN, 0.0335714, "- N/A -   "
9.04, 235.895, 0.015211, NaN, NaN, NaN, 0.03112983, "- N/A -   "
9.07, 236.721, 0.015261, NaN, NaN, NaN, 0.03112983, "- N/A -   "
9.1, 237.5462, 0.0153082, NaN, NaN, NaN, 0.0323506, "- N/A -   "
9.13, 238.254, 0.0153527, NaN, NaN, NaN, 0.0347922, "- N/A -   "
9.16, 239.197, 0.0154026, NaN, NaN, NaN, 0.03601294, "- N/A -   "
9.19, 240.141, 0.0154526, NaN, NaN, NaN, 0.0347922, "- N/A -   "
9.22, 240.849, 0.0155054, NaN, NaN, NaN, 0.0347922, "- N/A -   "
9.25, 241.792, 0.0155526, NaN, NaN, NaN, 0.03601294, "- N/A -   "
9.28, 242.5, 0.0155942, NaN, NaN, NaN, 0.0384545, "- N/A -   "
9.31, 243.443, 0.0156414, NaN, NaN, NaN, 0.0396753, "- N/A -   "
9.34, 244.2674, 0.0156886, NaN, NaN, NaN, 0.04089605, "- N/A -   "
9.37, 245.092, 0.0157359, NaN, NaN, NaN, 0.04211683, "- N/A -   "
9.4, 246.035, 0.0157858, NaN, NaN, NaN, 0.0433376, "- N/A -   "
9.43, 246.9774, 0.015833, NaN, NaN, NaN, 0.0433376, "- N/A -   "
9.46, 247.92, 0.0158858, NaN, NaN, NaN, 0.04211683, "- N/A -   "
9.49, 248.98, 0.0159413, NaN, NaN, NaN, 0.0396753, "- N/A -   "
9.52, 249.923, 0.0159996, NaN, NaN, NaN, 0.03601294, "- N/A -   "
9.55, 250.983, 0.01605518, NaN, NaN, NaN, 0.0335714, "- N/A -   "
9.58, 252.044, 0.0161052, NaN, NaN, NaN, 0.0335714, "- N/A -   "
9.61, 252.751, 0.0161551, NaN, NaN, NaN, 0.0347922, "- N/A -   "
9.64, 253.576, 0.0162023, NaN, NaN, NaN, 0.0347922, "- N/A -   "
9.67, 254.518, 0.0162496, NaN, NaN, NaN, 0.03601294, "- N/A -   "
9.7, 255.461, 0.01630231, NaN, NaN, NaN, 0.0347922, "- N/A -   "
9.73, 256.403, 0.0163523, NaN, NaN, NaN, 0.0347922, "- N/A -   "
9.76, 257.4639, 0.01641338, NaN, NaN, NaN, 0.03112983, "- N/A -   "
9.79, 258.407, 0.0164661, NaN, NaN, NaN, 0.0286883, "- N/A -   "
9.82, 259.349, 0.0165133, NaN, NaN, NaN, 0.0299091, "- N/A -   "
9.85, 260.174, 0.0165605, NaN, NaN, NaN, 0.03112983, "- N/A -   "
9.88, 260.9987, 0.0166078, NaN, NaN, NaN, 0.0323506, "- N/A -   "
9.91, 261.8235, 0.0166494, NaN, NaN, NaN, 0.03601294, "- N/A -   "
9.94, 262.53, 0.0166938, NaN, NaN, NaN, 0.0384545, "- N/A -   "
9.97, 263.2374, 0.01673826, NaN, NaN, NaN, 0.04089605, "- N/A -   "
10, 264.0622, 0.0167827, NaN, NaN, NaN, 0.0433376, "- N/A -   "
10.03, 265.0048, 0.0168299, NaN, NaN, NaN, 0.0445584, "- N/A -   "
10.06, 265.9474, 0.0168771, NaN, NaN, NaN, 0.04577916, "- N/A -   "
10.09, 266.89, 0.0169326, NaN, NaN, NaN, 0.0433376, "- N/A -   "
10.12, 268.068, 0.0169909, NaN, NaN, NaN, 0.0396753, "- N/A -   "
10.15, 269.1287, 0.01704648, NaN, NaN, NaN, 0.0384545, "- N/A -   "
10.18, 270.071, 0.0170965, NaN, NaN, NaN, 0.0372337, "- N/A -   "
10.21, 271.014, 0.0171492, NaN, NaN, NaN, 0.03601294, "- N/A -   "
10.24, 271.9565, 0.017202, NaN, NaN, NaN, 0.0347922, "- N/A -   "
10.27, 273.017, 0.01725196, NaN, NaN, NaN, 0.0347922, "- N/A -   "
10.3, 273.96, 0.0173047, NaN, NaN, NaN, 0.0335714, "- N/A -   "
10.33, 275.02, 0.0173603, NaN, NaN, NaN, 0.0323506, "- N/A -   "
10.36, 276.08, 0.0174158, NaN, NaN, NaN, 0.0286883, "- N/A -   "
10.39, 277.023, 0.017463, NaN, NaN, NaN, 0.0299091, "- N/A -   "
10.42, 277.8478, 0.01751575, NaN, NaN, NaN, 0.0286883, "- N/A -   "
10.45, 278.908, 0.0175657, NaN, NaN, NaN, 0.0286883, "- N/A -   "
10.48, 279.497, 0.01761016, NaN, NaN, NaN, 0.03112983, "- N/A -   "
10.51, 280.322, 0.0176518, NaN, NaN, NaN, 0.0347922, "- N/A -   "
10.54, 281.0291, 0.0176907, NaN, NaN, NaN, 0.04089605, "- N/A -   "
10.57, 281.8539, 0.0177351, NaN, NaN, NaN, 0.04211683, "- N/A -   "
10.6, 282.914, 0.0177851, NaN, NaN, NaN, 0.04211683, "- N/A -   "
10.63, 283.6213, 0.0178323, NaN, NaN, NaN, 0.0433376, "- N/A -   "
10.66, 284.682, 0.01788506, NaN, NaN, NaN, 0.04211683, "- N/A -   "
10.69, 285.7422, 0.017935, NaN, NaN, NaN, 0.04211683, "- N/A -   "
10.72, 286.685, 0.017985, NaN, NaN, NaN, 0.04211683, "- N/A -   "
10.75, 287.6274, 0.0180322, NaN, NaN, NaN, 0.0445584, "- N/A -   "
10.78, 288.452, 0.0180822, NaN, NaN, NaN, 0.0433376, "- N/A -   "
10.81, 289.63, 0.0181405, NaN, NaN, NaN, 0.04089605, "- N/A -   "
10.84, 290.6909, 0.0181933, NaN, NaN, NaN, 0.0384545, "- N/A -   "
10.87, 291.8691, 0.01825159, NaN, NaN, NaN, 0.0347922, "- N/A -   "
10.9, 293.0474, 0.01831268, NaN, NaN, NaN, 0.0299091, "- N/A -   "
10.93, 294.226, 0.018371, NaN, NaN, NaN, 0.0274675, "- N/A -   "
10.96, 295.168, 0.018421, NaN, NaN, NaN, 0.0262467, "- N/A -   "
10.99, 296.111, 0.018471, NaN, NaN, NaN, 0.0262467, "- N/A -   "
11.02, 297.0535, 0.0185154, NaN, NaN, NaN, 0.0286883, "- N/A -   "
11.05, 297.9961, 0.0185654, NaN, NaN, NaN, 0.0299091, "- N/A -   "
11.08, 298.703, 0.018607, NaN, NaN, NaN, 0.0323506, "- N/A -   "
11.11, 299.7635, 0.018657, NaN, NaN, NaN, 0.0323506, "- N/A -   "
11.14, 300.588, 0.0187014, NaN, NaN, NaN, 0.0347922, "- N/A -   "
11.17, 301.531, 0.01874863, NaN, NaN, NaN, 0.03601294, "- N/A -   "
11.2, 302.473, 0.0187958, NaN, NaN, NaN, 0.0372337, "- N/A -   "
11.23, 303.416, 0.0188514, NaN, NaN, NaN, 0.03601294, "- N/A -   "
11.26, 304.477, 0.0188986, NaN, NaN, NaN, 0.03601294, "- N/A -   "
11.29, 305.301, 0.0189458, NaN, NaN, NaN, 0.0372337, "- N/A -   "
11.32, 306.1261, 0.0189902, NaN, NaN, NaN, 0.0396753, "- N/A -   "
11.35, 307.0687, 0.0190374, NaN, NaN, NaN, 0.04089605, "- N/A -   "
11.38, 308.011, 0.0190818, NaN, NaN, NaN, 0.0433376, "- N/A -   "
11.41, 308.8361, 0.0191263, NaN, NaN, NaN, 0.04577916, "- N/A -   "
11.44, 309.7787, 0.01917625, NaN, NaN, NaN, 0.04577916, "- N/A -   "
11.47, 311.0748, 0.0192346, NaN, NaN, NaN, 0.0433376, "- N/A -   "
11.5, 312.253, 0.0192929, NaN, NaN, NaN, 0.0384545, "- N/A -   "
11.53, 313.4313, 0.0193512, NaN, NaN, NaN, 0.0347922, "- N/A -   "
11.56, 314.61, 0.0194095, NaN, NaN, NaN, 0.0323506, "- N/A -   "
11.59, 315.788, 0.01946503, NaN, NaN, NaN, 0.0286883, "- N/A -   "
11.62, 316.6126, 0.0195095, NaN, NaN, NaN, 0.03112983, "- N/A -   "
11.65, 317.4374, 0.0195539, NaN, NaN, NaN, 0.0335714, "- N/A -   "
11.68, 318.38, 0.0195983, NaN, NaN, NaN, 0.0372337, "- N/A -   "
11.71, 319.205, 0.0196483, NaN, NaN, NaN, 0.03601294, "- N/A -   "
11.74, 320.383, 0.0196983, NaN, NaN, NaN, 0.03601294, "- N/A -   "
11.77, 321.443, 0.019751, NaN, NaN, NaN, 0.0347922, "- N/A -   "
11.8, 322.5039, 0.0198066, NaN, NaN, NaN, 0.0335714, "- N/A -   "
11.83, 323.564, 0.0198566, NaN, NaN, NaN, 0.0323506, "- N/A -   "
11.86, 324.507, 0.0199065, NaN, NaN, NaN, 0.0323506, "- N/A -   "
11.89, 325.45, 0.0199537, NaN, NaN, NaN, 0.0347922, "- N/A -   "
11.92, 326.274, 0.0199982, NaN, NaN, NaN, 0.0372337, "- N/A -   "
11.95, 327.217, 0.02003982, NaN, NaN, NaN, 0.0396753, "- N/A -   "
11.98, 328.042, 0.0200842, NaN, NaN, NaN, 0.04211683, "- N/A -   "
12.01, 329.102, 0.020137, NaN, NaN, NaN, 0.04089605, "- N/A -   "
12.04, 330.516, 0.0201953, NaN, NaN, NaN, 0.0372337, "- N/A -   "
12.07, 331.5765, 0.0202536, NaN, NaN, NaN, 0.0335714, "- N/A -   "
12.1, 332.519, 0.0203008, NaN, NaN, NaN, 0.0347922, "- N/A -   "
12.13, 333.58, 0.0203508, NaN, NaN, NaN, 0.0347922, "- N/A -   "
12.16, 334.64, 0.0204036, NaN, NaN, NaN, 0.0335714, "- N/A -   "
12.19, 335.5826, 0.0204508, NaN, NaN, NaN, 0.0347922, "- N/A -   "
12.22, 336.5252, 0.020498, NaN, NaN, NaN, 0.03601294, "- N/A -   "
12.25, 337.468, 0.0205452, NaN, NaN, NaN, 0.0372337, "- N/A -   "
12.28, 338.528, 0.0205979, NaN, NaN, NaN, 0.03601294, "- N/A -   "
12.31, 339.707, 0.0206535, NaN, NaN, NaN, 0.0335714, "- N/A -   "
12.34, 341.0026, 0.02071457, NaN, NaN, NaN, 0.0286883, "- N/A -   "
12.37, 341.945, 0.0207673, NaN, NaN, NaN, 0.0286883, "- N/A -   "
12.4, 343.006, 0.0208118, NaN, NaN, NaN, 0.0299091, "- N/A -   "
12.43, 343.713, 0.0208562, NaN, NaN, NaN, 0.0323506, "- N/A -   "
12.46, 344.4196, 0.0208951, NaN, NaN, NaN, 0.0372337, "- N/A -   "
12.49, 345.362, 0.0209367, NaN, NaN, NaN, 0.04089605, "- N/A -   "
12.52, 346.187, 0.0209839, NaN, NaN, NaN, 0.0433376, "- N/A -   "
12.55, 347.365, 0.0210367, NaN, NaN, NaN, 0.0433376, "- N/A -   "
12.58, 348.5435, 0.021095, NaN, NaN, NaN, 0.0384545, "- N/A -   "
12.61, 349.84, 0.0211533, NaN, NaN, NaN, 0.0347922, "- N/A -   "
12.64, 350.9, 0.0212033, NaN, NaN, NaN, 0.0347922, "- N/A -   "
12.67, 351.7248, 0.0212477, NaN, NaN, NaN, 0.0372337, "- N/A -   "
12.7, 352.6674, 0.0212921, NaN, NaN, NaN, 0.0396753, "- N/A -   "
12.73, 353.4922, 0.0213366, NaN, NaN, NaN, 0.04211683, "- N/A -   "
12.76, 354.6704, 0.0213865, NaN, NaN, NaN, 0.0433376, "- N/A -   "
12.79, 355.613, 0.0214337, NaN, NaN, NaN, 0.0433376, "- N/A -   "
12.82, 356.791, 0.0214893, NaN, NaN, NaN, 0.04089605, "- N/A -   "
12.85, 357.97, 0.021542, NaN, NaN, NaN, 0.0396753, "- N/A -   "
12.88, 359.03, 0.0215976, NaN, NaN, NaN, 0.0372337, "- N/A -   "
12.91, 360.326, 0.02165311, NaN, NaN, NaN, 0.0347922, "- N/A -   "
12.94, 361.504, 0.0217086, NaN, NaN, NaN, 0.0335714, "- N/A -   "
12.97, 362.5648, 0.0217614, NaN, NaN, NaN, 0.03112983, "- N/A -   "
13, 363.5074, 0.0218086, NaN, NaN, NaN, 0.0323506, "- N/A -   "
13.03, 364.5678, 0.0218558, NaN, NaN, NaN, 0.0347922, "- N/A -   "
13.06, 365.51, 0.021903, NaN, NaN, NaN, 0.0347922, "- N/A -   "
13.09, 366.571, 0.0219502, NaN, NaN, NaN, 0.03601294, "- N/A -   "
13.12, 367.5135, 0.0220058, NaN, NaN, NaN, 0.0347922, "- N/A -   "
13.15, 368.81, 0.0220585, NaN, NaN, NaN, 0.0323506, "- N/A -   "
[...]
17.32, 521.6614, 0.02900595, NaN, NaN, NaN, 0.0335714, "- N/A -   "
17.35, 522.7259, 0.0290476, NaN, NaN, NaN, 0.0372337, "- N/A -   "
17.38, 523.6722, 0.029092, NaN, NaN, NaN, 0.0396753, "- N/A -   "
17.41, 524.7367, 0.0291392, NaN, NaN, NaN, 0.04089605, "- N/A -   "
17.44, 525.8012, 0.0291864, NaN, NaN, NaN, 0.0433376, "- N/A -   "
17.47, 526.8657, 0.0292336, NaN, NaN, NaN, 0.0433376, "- N/A -   "
17.5, 527.93, 0.0292808, NaN, NaN, NaN, 0.0445584, "- N/A -   "
17.53, 529.1131, 0.02933083, NaN, NaN, NaN, 0.0445584, "- N/A -   "
17.56, 530.1776, 0.02938081, NaN, NaN, NaN, 0.0445584, "- N/A -   "
17.59, 531.2421, 0.0294336, NaN, NaN, NaN, 0.0433376, "- N/A -   "
17.62, 532.7798, 0.0294891, NaN, NaN, NaN, 0.04089605, "- N/A -   "
17.65, 533.9626, 0.0295446, NaN, NaN, NaN, 0.0396753, "- N/A -   "
17.68, 535.1454, 0.02959462, NaN, NaN, NaN, 0.0384545, "- N/A -   "
17.71, 536.565, 0.0296529, NaN, NaN, NaN, 0.0347922, "- N/A -   "
17.74, 538.1024, 0.029714, NaN, NaN, NaN, 0.03112983, "- N/A -   "
17.77, 539.167, 0.029764, NaN, NaN, NaN, 0.0299091, "- N/A -   "
17.8, 540.3498, 0.029814, NaN, NaN, NaN, 0.0299091, "- N/A -   "
17.83, 541.533, 0.029864, NaN, NaN, NaN, 0.0299091, "- N/A -   "
17.86, 542.5971, 0.0299139, NaN, NaN, NaN, 0.0299091, "- N/A -   "
17.89, 543.7799, 0.0299612, NaN, NaN, NaN, 0.03112983, "- N/A -   "
17.92, 544.726, 0.0300084, NaN, NaN, NaN, 0.0323506, "- N/A -   "
17.95, 545.909, 0.03005556, NaN, NaN, NaN, 0.0335714, "- N/A -   "
17.98, 546.9735, 0.0301028, NaN, NaN, NaN, 0.0347922, "- N/A -   "
18.01, 548.038, 0.0301527, NaN, NaN, NaN, 0.0347922, "- N/A -   "
18.04, 549.3391, 0.03020273, NaN, NaN, NaN, 0.0347922, "- N/A -   "
18.07, 550.285, 0.0302499, NaN, NaN, NaN, 0.03601294, "- N/A -   "
18.1, 551.468, 0.0302971, NaN, NaN, NaN, 0.0372337, "- N/A -   "
18.13, 552.4144, 0.0303416, NaN, NaN, NaN, 0.0396753, "- N/A -   "
18.16, 553.361, 0.0303888, NaN, NaN, NaN, 0.04089605, "- N/A -   "
18.19, 554.543, 0.030436, NaN, NaN, NaN, 0.04211683, "- N/A -   "
18.22, 555.726, 0.030486, NaN, NaN, NaN, 0.0433376, "- N/A -   "
18.25, 556.7908, 0.0305332, NaN, NaN, NaN, 0.0445584, "- N/A -   "
18.28, 558.21, 0.0305887, NaN, NaN, NaN, 0.04089605, "- N/A -   "
18.31, 559.6295, 0.03064701, NaN, NaN, NaN, 0.0372337, "- N/A -   "
18.34, 560.9306, 0.0307025, NaN, NaN, NaN, 0.0347922, "- N/A -   "
18.37, 562.35, 0.0307553, NaN, NaN, NaN, 0.0335714, "- N/A -   "
18.4, 563.5328, 0.0308081, NaN, NaN, NaN, 0.0323506, "- N/A -   "
18.43, 564.479, 0.030858, NaN, NaN, NaN, 0.0323506, "- N/A -   "
18.46, 565.662, 0.0309052, NaN, NaN, NaN, 0.0335714, "- N/A -   "
18.49, 566.6081, 0.0309525, NaN, NaN, NaN, 0.0347922, "- N/A -   "
18.52, 567.5544, 0.03099688, NaN, NaN, NaN, 0.0372337, "- N/A -   "
18.55, 568.7371, 0.0310469, NaN, NaN, NaN, 0.0384545, "- N/A -   "
18.58, 569.92, 0.0310941, NaN, NaN, NaN, 0.0384545, "- N/A -   "
18.61, 571.221, 0.0311496, NaN, NaN, NaN, 0.03601294, "- N/A -   "
18.64, 572.522, 0.0312051, NaN, NaN, NaN, 0.0335714, "- N/A -   "
18.67, 573.9415, 0.0312607, NaN, NaN, NaN, 0.0323506, "- N/A -   "
18.7, 574.8878, 0.0313079, NaN, NaN, NaN, 0.0323506, "- N/A -   "
18.73, 575.834, 0.0313523, NaN, NaN, NaN, 0.0347922, "- N/A -   "
18.76, 576.8985, 0.03139673, NaN, NaN, NaN, 0.0372337, "- N/A -   "
18.79, 577.9631, 0.03144116, NaN, NaN, NaN, 0.0396753, "- N/A -   "
18.82, 579.0276, 0.0314884, NaN, NaN, NaN, 0.04089605, "- N/A -   "
18.85, 580.3287, 0.0315439, NaN, NaN, NaN, 0.0396753, "- N/A -   "
18.88, 581.5115, 0.0315911, NaN, NaN, NaN, 0.0396753, "- N/A -   "
18.91, 582.576, 0.03163831, NaN, NaN, NaN, 0.04211683, "- N/A -   "
18.94, 583.8771, 0.0316911, NaN, NaN, NaN, 0.0396753, "- N/A -   "
18.97, 585.178, 0.0317466, NaN, NaN, NaN, 0.0384545, "- N/A -   "
19, 586.361, 0.03179936, NaN, NaN, NaN, 0.03601294, "- N/A -   "
19.03, 587.544, 0.03185212, NaN, NaN, NaN, 0.0347922, "- N/A -   "
19.06, 588.608, 0.0318965, NaN, NaN, NaN, 0.0372337, "- N/A -   "
19.09, 589.9094, 0.0319521, NaN, NaN, NaN, 0.03601294, "- N/A -   "
19.12, 591.0922, 0.03199651, NaN, NaN, NaN, 0.0372337, "- N/A -   "
19.15, 592.157, 0.03204927, NaN, NaN, NaN, 0.0372337, "- N/A -   "
19.18, 593.4579, 0.0321048, NaN, NaN, NaN, 0.0347922, "- N/A -   "
19.21, 594.7589, 0.0321576, NaN, NaN, NaN, 0.0323506, "- N/A -   "
19.24, 596.06, 0.03221032, NaN, NaN, NaN, 0.03112983, "- N/A -   "
19.27, 597.243, 0.0322631, NaN, NaN, NaN, 0.03112983, "- N/A -   "
19.3, 598.544, 0.03231306, NaN, NaN, NaN, 0.0299091, "- N/A -   "
19.33, 599.608, 0.0323603, NaN, NaN, NaN, 0.03112983, "- N/A -   "
19.36, 600.673, 0.03240747, NaN, NaN, NaN, 0.0335714, "- N/A -   "
19.39, 601.738, 0.0324575, NaN, NaN, NaN, 0.0335714, "- N/A -   "
19.42, 603.0386, 0.03250743, NaN, NaN, NaN, 0.0323506, "- N/A -   "
19.45, 604.103, 0.0325574, NaN, NaN, NaN, 0.0323506, "- N/A -   "
19.48, 605.168, 0.0326018, NaN, NaN, NaN, 0.0347922, "- N/A -   "
19.51, 606.1139, 0.0326463, NaN, NaN, NaN, 0.0384545, "- N/A -   "
19.54, 607.2967, 0.0326935, NaN, NaN, NaN, 0.0384545, "- N/A -   "
19.57, 608.3612, 0.0327379, NaN, NaN, NaN, 0.04089605, "- N/A -   "
19.6, 609.4258, 0.0327851, NaN, NaN, NaN, 0.04211683, "- N/A -   "
19.63, 610.6086, 0.0328323, NaN, NaN, NaN, 0.0445584, "- N/A -   "
19.66, 611.6731, 0.03287952, NaN, NaN, NaN, 0.0445584, "- N/A -   "
19.69, 612.9742, 0.0329351, NaN, NaN, NaN, 0.0433376, "- N/A -   "
19.72, 614.2753, 0.03298781, NaN, NaN, NaN, 0.04211683, "- N/A -   "
19.75, 615.8129, 0.0330461, NaN, NaN, NaN, 0.0372337, "- N/A -   "
19.78, 617.114, 0.03310166, NaN, NaN, NaN, 0.0347922, "- N/A -   "
19.81, 618.4151, 0.0331544, NaN, NaN, NaN, 0.0335714, "- N/A -   "
19.84, 619.598, 0.0332072, NaN, NaN, NaN, 0.0335714, "- N/A -   "
19.87, 620.7807, 0.0332544, NaN, NaN, NaN, 0.0335714, "- N/A -   "
19.9, 621.7269, 0.0333016, NaN, NaN, NaN, 0.0347922, "- N/A -   "
19.93, 623.0281, 0.0333516, NaN, NaN, NaN, 0.03601294, "- N/A -   "
19.96, 624.2108, 0.0334043, NaN, NaN, NaN, 0.0335714, "- N/A -   "
19.99, 625.63, 0.0334599, NaN, NaN, NaN, 0.03112983, "- N/A -   "
20.02, 627.0496, 0.0335154, NaN, NaN, NaN, 0.0286883, "- N/A -   "
20.05, 628.114, 0.0335626, NaN, NaN, NaN, 0.0299091, "- N/A -   "
20.08, 629.179, 0.0336098, NaN, NaN, NaN, 0.03112983, "- N/A -   "
20.11, 630.3615, 0.0336598, NaN, NaN, NaN, 0.03112983, "- N/A -   "
20.14, 631.308, 0.0337042, NaN, NaN, NaN, 0.0347922, "- N/A -   "
20.17, 632.1357, 0.0337431, NaN, NaN, NaN, 0.0384545, "- N/A -   "
20.2, 633.2002, 0.0337875, NaN, NaN, NaN, 0.04089605, "- N/A -   "
20.23, 634.383, 0.0338347, NaN, NaN, NaN, 0.04211683, "- N/A -   "
20.26, 635.3293, 0.03387915, NaN, NaN, NaN, 0.0445584, "- N/A -   "
20.29, 636.5121, 0.0339264, NaN, NaN, NaN, 0.04577916, "- N/A -   "
20.32, 637.6949, 0.0339763, NaN, NaN, NaN, 0.04699994, "- N/A -   "
20.35, 639.114, 0.0340346, NaN, NaN, NaN, 0.04211683, "- N/A -   "
20.38, 640.5336, 0.03409296, NaN, NaN, NaN, 0.0384545, "- N/A -   "
20.41, 642.1895, 0.034154, NaN, NaN, NaN, 0.0347922, "- N/A -   "
20.44, 643.3724, 0.0342068, NaN, NaN, NaN, 0.0335714, "- N/A -   "
20.47, 644.4369, 0.03425401, NaN, NaN, NaN, 0.0335714, "- N/A -   "
20.5, 645.62, 0.03430399, NaN, NaN, NaN, 0.0347922, "- N/A -   "
20.53, 646.8025, 0.03435675, NaN, NaN, NaN, 0.0323506, "- N/A -   "
20.56, 648.2219, 0.0344151, NaN, NaN, NaN, 0.0299091, "- N/A -   "
20.59, 649.641, 0.0344706, NaN, NaN, NaN, 0.0262467, "- N/A -   "
20.62, 650.9424, 0.0345234, NaN, NaN, NaN, 0.0250259, "- N/A -   "
20.65, 652.007, 0.03457056, NaN, NaN, NaN, 0.0262467, "- N/A -   "
20.68, 653.1897, 0.0346205, NaN, NaN, NaN, 0.0262467, "- N/A -   "
20.71, 654.1359, 0.03466497, NaN, NaN, NaN, 0.0299091, "- N/A -   "
20.74, 655.2, 0.0347066, NaN, NaN, NaN, 0.0323506, "- N/A -   "
20.77, 656.1467, 0.03475105, NaN, NaN, NaN, 0.0347922, "- N/A -   "
20.8, 657.093, 0.0347955, NaN, NaN, NaN, 0.0372337, "- N/A -   "
20.83, 658.1575, 0.0348371, NaN, NaN, NaN, 0.04211683, "- N/A -   "
20.86, 659.222, 0.0348816, NaN, NaN, NaN, 0.0445584, "- N/A -   "
20.89, 660.2865, 0.034926, NaN, NaN, NaN, 0.04577916, "- N/A -   "
20.92, 661.588, 0.03497874, NaN, NaN, NaN, 0.0445584, "- N/A -   "
20.95, 662.8887, 0.0350315, NaN, NaN, NaN, 0.0433376, "- N/A -   "
20.98, 664.072, 0.0350787, NaN, NaN, NaN, 0.0445584, "- N/A -   "
21.01, 665.254, 0.0351315, NaN, NaN, NaN, 0.0445584, "- N/A -   "
21.04, 666.6737, 0.0351814, NaN, NaN, NaN, 0.0433376, "- N/A -   "
21.07, 667.9748, 0.0352398, NaN, NaN, NaN, 0.04089605, "- N/A -   "
21.1, 669.2759, 0.0352953, NaN, NaN, NaN, 0.0384545, "- N/A -   "
21.13, 670.8135, 0.03535638, NaN, NaN, NaN, 0.0323506, "- N/A -   "
21.16, 672.2329, 0.0354147, NaN, NaN, NaN, 0.0286883, "- N/A -   "
21.19, 673.416, 0.0354647, NaN, NaN, NaN, 0.0286883, "- N/A -   "
21.22, 674.4802, 0.0355119, NaN, NaN, NaN, 0.0299091, "- N/A -   "
21.25, 675.7813, 0.0355646, NaN, NaN, NaN, 0.0299091, "- N/A -   "
21.28, 676.8459, 0.0356091, NaN, NaN, NaN, 0.03112983, "- N/A -   "
21.31, 677.9104, 0.03565349, NaN, NaN, NaN, 0.0347922, "- N/A -   "
21.34, 678.975, 0.03569792, NaN, NaN, NaN, 0.03601294, "- N/A -   "
21.37, 680.1577, 0.0357479, NaN, NaN, NaN, 0.03601294, "- N/A -   "
21.4, 681.3405, 0.0357951, NaN, NaN, NaN, 0.0372337, "- N/A -   "
21.43, 682.7599, 0.03585064, NaN, NaN, NaN, 0.03601294, "- N/A -   "
21.46, 683.8244, 0.0358978, NaN, NaN, NaN, 0.03601294, "- N/A -   "
21.49, 685.007, 0.0359451, NaN, NaN, NaN, 0.0372337, "- N/A -   "
21.52, 686.0717, 0.0359923, NaN, NaN, NaN, 0.0384545, "- N/A -   "
21.55, 687.1363, 0.0360367, NaN, NaN, NaN, 0.04211683, "- N/A -   "
21.58, 688.2008, 0.03608389, NaN, NaN, NaN, 0.0433376, "- N/A -   "
21.61, 689.3836, 0.0361311, NaN, NaN, NaN, 0.0445584, "- N/A -   "
21.64, 690.5664, 0.0361811, NaN, NaN, NaN, 0.04577916, "- N/A -   "
21.67, 691.7492, 0.0362311, NaN, NaN, NaN, 0.04577916, "- N/A -   "
21.7, 693.287, 0.0362866, NaN, NaN, NaN, 0.04211683, "- N/A -   "
21.73, 694.588, 0.03634213, NaN, NaN, NaN, 0.0396753, "- N/A -   "
21.76, 696.1256, 0.03640599, NaN, NaN, NaN, 0.0335714, "- N/A -   "
21.79, 697.663, 0.0364671, NaN, NaN, NaN, 0.0286883, "- N/A -   "
21.82, 698.964, 0.0365226, NaN, NaN, NaN, 0.0274675, "- N/A -   "
21.85, 700.029, 0.036567, NaN, NaN, NaN, 0.0286883, "- N/A -   "
21.88, 701.093, 0.0366115, NaN, NaN, NaN, 0.03112983, "- N/A -   "
21.91, 702.1579, 0.0366531, NaN, NaN, NaN, 0.0347922, "- N/A -   "
21.94, 703.1042, 0.0367031, NaN, NaN, NaN, 0.03601294, "- N/A -   "
21.97, 704.4053, 0.03675031, NaN, NaN, NaN, 0.03601294, "- N/A -   "
22, 705.7064, 0.0368031, NaN, NaN, NaN, 0.0347922, "- N/A -   "
22.03, 707.007, 0.0368586, NaN, NaN, NaN, 0.0335714, "- N/A -   "
22.06, 708.4268, 0.03691136, NaN, NaN, NaN, 0.03112983, "- N/A -   "
22.09, 709.6096, 0.0369586, NaN, NaN, NaN, 0.0323506, "- N/A -   "
22.12, 710.6742, 0.03700577, NaN, NaN, NaN, 0.0335714, "- N/A -   "
22.15, 711.6204, 0.0370502, NaN, NaN, NaN, 0.03601294, "- N/A -   "
22.18, 712.685, 0.03709185, NaN, NaN, NaN, 0.0396753, "- N/A -   "
22.21, 713.7495, 0.0371391, NaN, NaN, NaN, 0.04211683, "- N/A -   "
22.24, 714.932, 0.03718626, NaN, NaN, NaN, 0.04211683, "- N/A -   "
22.27, 716.2334, 0.03723624, NaN, NaN, NaN, 0.04211683, "- N/A -   "
22.3, 717.416, 0.037289, NaN, NaN, NaN, 0.04089605, "- N/A -   "
22.33, 718.7173, 0.03734176, NaN, NaN, NaN, 0.0396753, "- N/A -   "
22.36, 719.7818, 0.03739174, NaN, NaN, NaN, 0.04089605, "- N/A -   "
22.39, 721.2012, 0.0374389, NaN, NaN, NaN, 0.04089605, "- N/A -   "
22.42, 722.502, 0.0374973, NaN, NaN, NaN, 0.0384545, "- N/A -   "
22.45, 723.803, 0.03754724, NaN, NaN, NaN, 0.0372337, "- N/A -   "
22.48, 724.986, 0.03759722, NaN, NaN, NaN, 0.0372337, "- N/A -   "
22.51, 726.169, 0.03765, NaN, NaN, NaN, 0.0372337, "- N/A -   "
22.54, 727.47, 0.03769996, NaN, NaN, NaN, 0.0372337, "- N/A -   "
22.57, 728.653, 0.0377499, NaN, NaN, NaN, 0.03601294, "- N/A -   "
22.6, 730.0722, 0.0378055, NaN, NaN, NaN, 0.0335714, "- N/A -   "
22.63, 731.255, 0.0378582, NaN, NaN, NaN, 0.0323506, "- N/A -   "
22.66, 732.438, 0.03790544, NaN, NaN, NaN, 0.0335714, "- N/A -   "
22.69, 733.5023, 0.0379499, NaN, NaN, NaN, 0.03601294, "- N/A -   "
22.72, 734.6852, 0.0379998, NaN, NaN, NaN, 0.03601294, "- N/A -   "
22.75, 735.868, 0.0380498, NaN, NaN, NaN, 0.03601294, "- N/A -   "
22.78, 737.051, 0.03809981, NaN, NaN, NaN, 0.03601294, "- N/A -   "
22.81, 738.352, 0.0381526, NaN, NaN, NaN, 0.0347922, "- N/A -   "
22.84, 739.5347, 0.0382026, NaN, NaN, NaN, 0.0347922, "- N/A -   "
22.87, 740.717, 0.0382498, NaN, NaN, NaN, 0.03601294, "- N/A -   "
22.9, 741.782, 0.0382942, NaN, NaN, NaN, 0.0384545, "- N/A -   "
22.93, 742.847, 0.0383386, NaN, NaN, NaN, 0.04089605, "- N/A -   "
22.96, 744.029, 0.03838859, NaN, NaN, NaN, 0.04089605, "- N/A -   "
22.99, 745.33, 0.0384386, NaN, NaN, NaN, 0.04089605, "- N/A -   "
23.02, 746.395, 0.0384858, NaN, NaN, NaN, 0.04211683, "- N/A -   "
23.05, 747.5778, 0.038533, NaN, NaN, NaN, 0.0433376, "- N/A -   "
23.08, 748.879, 0.038583, NaN, NaN, NaN, 0.0433376, "- N/A -   "
23.11, 750.18, 0.0386385, NaN, NaN, NaN, 0.04211683, "- N/A -   "
23.14, 751.5993, 0.03869404, NaN, NaN, NaN, 0.0384545, "- N/A -   "
23.17, 753.137, 0.0387579, NaN, NaN, NaN, 0.0323506, "- N/A -   "
23.2, 754.556, 0.0388162, NaN, NaN, NaN, 0.0299091, "- N/A -   "
23.23, 755.7392, 0.0388662, NaN, NaN, NaN, 0.0286883, "- N/A -   "
23.26, 756.922, 0.0389106, NaN, NaN, NaN, 0.03112983, "- N/A -   "
23.29, 757.8682, 0.03895783, NaN, NaN, NaN, 0.0335714, "- N/A -   "
23.32, 759.051, 0.039005, NaN, NaN, NaN, 0.0335714, "- N/A -   "
23.35, 760.4704, 0.0390578, NaN, NaN, NaN, 0.0323506, "- N/A -   "
23.38, 761.6532, 0.0391106, NaN, NaN, NaN, 0.03112983, "- N/A -   "
23.41, 763.309, 0.03917164, NaN, NaN, NaN, 0.0262467, "- N/A -   "
23.44, 764.492, 0.0392244, NaN, NaN, NaN, 0.0250259, "- N/A -   "
23.47, 765.6748, 0.0392716, NaN, NaN, NaN, 0.0262467, "- N/A -   "
23.5, 766.739, 0.039316, NaN, NaN, NaN, 0.0286883, "- N/A -   "
23.53, 767.6855, 0.03936046, NaN, NaN, NaN, 0.03112983, "- N/A -   "
23.56, 768.5135, 0.03940211, NaN, NaN, NaN, 0.03601294, "- N/A -   "
23.59, 769.4597, 0.039441, NaN, NaN, NaN, 0.0396753, "- N/A -   "
23.62, 770.6426, 0.0394854, NaN, NaN, NaN, 0.0433376, "- N/A -   "
23.65, 771.5888, 0.0395271, NaN, NaN, NaN, 0.04699994, "- N/A -   "
23.68, 772.6533, 0.0395715, NaN, NaN, NaN, 0.0482207, "- N/A -   "
23.71, 773.9544, 0.0396215, NaN, NaN, NaN, 0.0482207, "- N/A -   "
23.74, 775.2555, 0.0396715, NaN, NaN, NaN, 0.0482207, "- N/A -   "
23.77, 776.5566, 0.03972699, NaN, NaN, NaN, 0.04699994, "- N/A -   "
23.8, 777.976, 0.0397825, NaN, NaN, NaN, 0.0433376, "- N/A -   "
23.83, 779.3953, 0.03984361, NaN, NaN, NaN, 0.0384545, "- N/A -   "
23.86, 780.8147, 0.0398991, NaN, NaN, NaN, 0.03601294, "- N/A -   "
23.89, 782.2341, 0.0399547, NaN, NaN, NaN, 0.0335714, "- N/A -   "
23.92, 783.4169, 0.04000189, NaN, NaN, NaN, 0.0347922, "- N/A -   "
23.95, 784.718, 0.04005742, NaN, NaN, NaN, 0.0323506, "- N/A -   "
23.98, 786.1374, 0.040113, NaN, NaN, NaN, 0.0299091, "- N/A -   "
24.01, 787.3201, 0.0401657, NaN, NaN, NaN, 0.0286883, "- N/A -   "
24.04, 788.6212, 0.0402185, NaN, NaN, NaN, 0.0286883, "- N/A -   "
24.07, 789.6858, 0.0402657, NaN, NaN, NaN, 0.0286883, "- N/A -   "
24.1, 790.9868, 0.04031566, NaN, NaN, NaN, 0.0286883, "- N/A -   "
24.13, 792.0514, 0.04036009, NaN, NaN, NaN, 0.03112983, "- N/A -   "
24.16, 792.9976, 0.0404045, NaN, NaN, NaN, 0.0347922, "- N/A -   "
24.19, 793.9439, 0.04044617, NaN, NaN, NaN, 0.0372337, "- N/A -   "
24.22, 795.245, 0.0404934, NaN, NaN, NaN, 0.0384545, "- N/A -   "
24.25, 796.309, 0.0405406, NaN, NaN, NaN, 0.04089605, "- N/A -   "
24.28, 797.256, 0.0405822, NaN, NaN, NaN, 0.0433376, "- N/A -   "
24.31, 798.5568, 0.04063499, NaN, NaN, NaN, 0.04211683, "- N/A -   "
24.34, 799.8579, 0.0406877, NaN, NaN, NaN, 0.04211683, "- N/A -   "
24.37, 801.0407, 0.0407377, NaN, NaN, NaN, 0.04211683, "- N/A -   "
24.4, 802.2236, 0.0407849, NaN, NaN, NaN, 0.0433376, "- N/A -   "
24.43, 803.5246, 0.0408405, NaN, NaN, NaN, 0.04089605, "- N/A -   "
24.46, 804.826, 0.04089045, NaN, NaN, NaN, 0.0396753, "- N/A -   "
24.49, 806.1268, 0.04094598, NaN, NaN, NaN, 0.0372337, "- N/A -   "
24.52, 807.5462, 0.0410015, NaN, NaN, NaN, 0.0347922, "- N/A -   "
24.55, 809.2021, 0.04106261, NaN, NaN, NaN, 0.03112983, "- N/A -   "
24.58, 810.385, 0.0411154, NaN, NaN, NaN, 0.0286883, "- N/A -   "
24.61, 811.686, 0.0411681, NaN, NaN, NaN, 0.0274675, "- N/A -   "
24.64, 812.869, 0.0412181, NaN, NaN, NaN, 0.0274675, "- N/A -   "
24.67, 814.052, 0.04126531, NaN, NaN, NaN, 0.0299091, "- N/A -   "
24.7, 815.234, 0.04130974, NaN, NaN, NaN, 0.03112983, "- N/A -   "
24.73, 816.299, 0.04135972, NaN, NaN, NaN, 0.0323506, "- N/A -   "
24.76, 817.6001, 0.0414069, NaN, NaN, NaN, 0.0323506, "- N/A -   "
24.79, 818.665, 0.0414569, NaN, NaN, NaN, 0.0335714, "- N/A -   "
24.82, 819.9657, 0.04150689, NaN, NaN, NaN, 0.0323506, "- N/A -   "
24.85, 821.1485, 0.04155687, NaN, NaN, NaN, 0.0323506, "- N/A -   "
24.88, 822.331, 0.04160685, NaN, NaN, NaN, 0.0335714, "- N/A -   "
24.91, 823.2775, 0.04165128, NaN, NaN, NaN, 0.03601294, "- N/A -   "
24.94, 824.224, 0.0416929, NaN, NaN, NaN, 0.0384545, "- N/A -   "
24.97, 825.4066, 0.04173458, NaN, NaN, NaN, 0.04211683, "- N/A -   "
25, 826.4711, 0.04177901, NaN, NaN, NaN, 0.0445584, "- N/A -   "
25.03, 827.5356, 0.04182344, NaN, NaN, NaN, 0.04699994, "- N/A -   "
25.06, 828.6, 0.0418706, NaN, NaN, NaN, 0.0482207, "- N/A -   "
25.09, 830.02, 0.0419262, NaN, NaN, NaN, 0.04699994, "- N/A -   "
25.12, 831.4389, 0.0419817, NaN, NaN, NaN, 0.0433376, "- N/A -   "
25.15, 832.8582, 0.04204, NaN, NaN, NaN, 0.04089605, "- N/A -   "
25.18, 834.396, 0.04209556, NaN, NaN, NaN, 0.0372337, "- N/A -   "
25.21, 835.8153, 0.04215387, NaN, NaN, NaN, 0.0335714, "- N/A -   "
25.24, 837.2347, 0.0422094, NaN, NaN, NaN, 0.03112983, "- N/A -   "
25.27, 838.299, 0.04225939, NaN, NaN, NaN, 0.0323506, "- N/A -   "
25.3, 839.2454, 0.04230104, NaN, NaN, NaN, 0.0347922, "- N/A -   "
25.33, 840.5465, 0.0423482, NaN, NaN, NaN, 0.03601294, "- N/A -   "
25.36, 841.7294, 0.04239545, NaN, NaN, NaN, 0.0372337, "- N/A -   "
25.39, 842.9121, 0.04244543, NaN, NaN, NaN, 0.0372337, "- N/A -   "
25.42, 844.213, 0.042501, NaN, NaN, NaN, 0.0347922, "- N/A -   "
25.45, 845.5143, 0.0425537, NaN, NaN, NaN, 0.0335714, "- N/A -   "
25.48, 846.8154, 0.04260648, NaN, NaN, NaN, 0.0323506, "- N/A -   "
25.51, 847.9982, 0.0426565, NaN, NaN, NaN, 0.0335714, "- N/A -   "
25.54, 849.2993, 0.04270367, NaN, NaN, NaN, 0.0335714, "- N/A -   "
25.57, 850.364, 0.0427509, NaN, NaN, NaN, 0.0347922, "- N/A -   "
25.6, 851.4284, 0.0427953, NaN, NaN, NaN, 0.0372337, "- N/A -   "
25.63, 852.4929, 0.0428425, NaN, NaN, NaN, 0.0396753, "- N/A -   "
25.66, 853.5574, 0.04288971, NaN, NaN, NaN, 0.0396753, "- N/A -   "
25.69, 854.9768, 0.0429452, NaN, NaN, NaN, 0.0384545, "- N/A -   "
25.72, 856.3961, 0.042998, NaN, NaN, NaN, 0.0372337, "- N/A -   "
25.75, 857.816, 0.04305354, NaN, NaN, NaN, 0.0347922, "- N/A -   "
25.78, 859.117, 0.0431063, NaN, NaN, NaN, 0.0335714, "- N/A -   "
25.81, 860.4177, 0.0431563, NaN, NaN, NaN, 0.0323506, "- N/A -   "
25.84, 861.364, 0.04320348, NaN, NaN, NaN, 0.0347922, "- N/A -   "
25.87, 862.4285, 0.0432451, NaN, NaN, NaN, 0.0372337, "- N/A -   "
25.9, 863.493, 0.0432923, NaN, NaN, NaN, 0.0384545, "- N/A -   "
25.93, 864.7941, 0.0433423, NaN, NaN, NaN, 0.0384545, "- N/A -   "
25.96, 865.9769, 0.04339508, NaN, NaN, NaN, 0.0384545, "- N/A -   "
25.99, 867.278, 0.0434506, NaN, NaN, NaN, 0.03601294, "- N/A -   "
26.02, 868.6974, 0.0435006, NaN, NaN, NaN, 0.0347922, "- N/A -   "
26.05, 869.9985, 0.0435506, NaN, NaN, NaN, 0.0347922, "- N/A -   "
26.08, 871.063, 0.04359778, NaN, NaN, NaN, 0.0372337, "- N/A -   "
26.11, 872.3641, 0.04364499, NaN, NaN, NaN, 0.0372337, "- N/A -   "
26.14, 873.5469, 0.0437033, NaN, NaN, NaN, 0.0347922, "- N/A -   "
26.17, 875.085, 0.0437588, NaN, NaN, NaN, 0.0323506, "- N/A -   "
26.2, 876.6222, 0.0438171, NaN, NaN, NaN, 0.0299091, "- N/A -   "
26.205, 876.7405, 0.0438255, NaN, NaN, NaN, 0.0286883, "- N/A -   "