File: 2_Tensile_Data/Hamel_ForceTest_Bolt3_Test5.csv
Time, Load (lb), Position (in), AxialStrain (in), TransverseStrain (in), Auxiliary (), Control Out (V), Stress (psi)
0.0, 1.06153, 0.0, NaN, NaN, NaN, 0.0872856, "- N/A -   "
0.01, 1.88716, 2.49908e-05, NaN, NaN, NaN, 0.095831, "- N/A -   "
0.02, 2.476897, 5.27583e-05, NaN, NaN, NaN, 0.103156, "- N/A -   "
0.03, 3.18458, 8.607931E-5, NaN, NaN, NaN, 0.0982726, "- N/A -   "
0.04, 3.89227, 0.000116624, NaN, NaN, NaN, 0.09216871, "- N/A -   "
0.05, 4.482, 0.000147168, NaN, NaN, NaN, 0.0872856, "- N/A -   "
0.06, 5.071741, 0.000172159, NaN, NaN, NaN, 0.08362327, "- N/A -   "
0.07, 5.66148, 0.000197149, NaN, NaN, NaN, 0.07874016, "- N/A -   "
0.08, 6.369163, 0.00022214, NaN, NaN, NaN, 0.0750778, "- N/A -   "
0.09, 6.84095, 0.000249908, NaN, NaN, NaN, 0.0701947, "- N/A -   "
0.1, 7.430691, 0.000274898, NaN, NaN, NaN, 0.06653238, "- N/A -   "
0.11, 8.020428, 0.000302666, NaN, NaN, NaN, 0.06164927, "- N/A -   "
0.12, 8.610166, 0.00032488, NaN, NaN, NaN, 0.0592077, "- N/A -   "
0.13, 9.199903, 0.000352647, NaN, NaN, NaN, 0.0543246, "- N/A -   "
0.14, 9.671693, 0.000377638, NaN, NaN, NaN, 0.05066227, "- N/A -   "
0.15, 10.1435, 0.000399852, NaN, NaN, NaN, 0.0482207, "- N/A -   "
0.16, 10.6153, 0.000422066, NaN, NaN, NaN, 0.04699994, "- N/A -   "
0.17, 11.0871, 0.000441504, NaN, NaN, NaN, 0.0445584, "- N/A -   "
0.18, 11.4409, 0.000463718, NaN, NaN, NaN, 0.0433376, "- N/A -   "
0.19, 11.9127, 0.000480378, NaN, NaN, NaN, 0.04211683, "- N/A -   "
0.2, 12.2665, 0.000499815, NaN, NaN, NaN, 0.04089605, "- N/A -   "
0.21, 12.6204, 5.192526E-4, NaN, NaN, NaN, 0.04089605, "- N/A -   "
0.22, 13.09217, 5.359131E-4, NaN, NaN, NaN, 0.0396753, "- N/A -   "
0.23, 13.446, 5.525736E-4, NaN, NaN, NaN, 0.0396753, "- N/A -   "
0.24, 13.7999, 0.000569234, NaN, NaN, NaN, 0.0396753, "- N/A -   "
0.25, 14.0357, 5.831179E-4, NaN, NaN, NaN, 0.04089605, "- N/A -   "
0.26, 14.2716, 5.997784E-4, NaN, NaN, NaN, 0.04211683, "- N/A -   "
0.27, 14.6255, 6.108854E-4, NaN, NaN, NaN, 0.0433376, "- N/A -   "
0.28, 14.8614, 0.000624769, NaN, NaN, NaN, 0.0445584, "- N/A -   "
0.29, 15.0973, 0.000638653, NaN, NaN, NaN, 0.04577916, "- N/A -   "
0.3, 15.4511, 6.525367E-4, NaN, NaN, NaN, 0.04699994, "- N/A -   "
0.31, 15.805, 6.691972E-4, NaN, NaN, NaN, 0.04699994, "- N/A -   "
0.32, 16.0409, 6.858577E-4, NaN, NaN, NaN, 0.04699994, "- N/A -   "
0.33, 16.3947, 6.997415E-4, NaN, NaN, NaN, 0.0482207, "- N/A -   "
0.34, 16.74854, 7.191787E-4, NaN, NaN, NaN, 0.0482207, "- N/A -   "
0.35, 17.2203, 0.000733062, NaN, NaN, NaN, 0.0482207, "- N/A -   "
0.36, 17.4562, 7.49723E-4, NaN, NaN, NaN, 0.0482207, "- N/A -   "
0.37, 17.8101, 7.663835E-4, NaN, NaN, NaN, 0.0482207, "- N/A -   "
0.38, 18.16391, 0.000783044, NaN, NaN, NaN, 0.0482207, "- N/A -   "
0.39, 18.5178, 7.997045E-4, NaN, NaN, NaN, 0.0482207, "- N/A -   "
0.4, 18.8716, 8.191418E-4, NaN, NaN, NaN, 0.0482207, "- N/A -   "
0.41, 19.2254, 8.358023E-4, NaN, NaN, NaN, 0.04699994, "- N/A -   "
0.42, 19.6972, 8.552396E-4, NaN, NaN, NaN, 0.04577916, "- N/A -   "
0.43, 19.9331, 8.746768E-4, NaN, NaN, NaN, 0.0445584, "- N/A -   "
0.44, 20.4049, 8.941141E-4, NaN, NaN, NaN, 0.0445584, "- N/A -   "
0.45, 20.7588, 0.000913551, NaN, NaN, NaN, 0.04211683, "- N/A -   "
0.46, 21.2305, 0.000930212, NaN, NaN, NaN, 0.04211683, "- N/A -   "
0.47, 21.7023, 9.524259E-4, NaN, NaN, NaN, 0.0396753, "- N/A -   "
0.48, 21.93823, 0.000969086, NaN, NaN, NaN, 0.0396753, "- N/A -   "
0.49, 22.29207, 9.857469E-4, NaN, NaN, NaN, 0.0396753, "- N/A -   "
0.5, 22.7639, 0.00100241, NaN, NaN, NaN, 0.0396753, "- N/A -   "
0.51, 22.9998, 0.00102184, NaN, NaN, NaN, 0.0384545, "- N/A -   "
0.52, 23.3536, 0.00103851, NaN, NaN, NaN, 0.0384545, "- N/A -   "
0.53, 23.82539, 0.00105794, NaN, NaN, NaN, 0.0372337, "- N/A -   "
0.54, 24.1792, 0.001074603, NaN, NaN, NaN, 0.0372337, "- N/A -   "
0.55, 24.5331, 0.00109404, NaN, NaN, NaN, 0.03601294, "- N/A -   "
0.56, 24.8869, 0.00111348, NaN, NaN, NaN, 0.0347922, "- N/A -   "
0.57, 25.2408, 0.001130138, NaN, NaN, NaN, 0.0347922, "- N/A -   "
0.58, 25.5946, 0.00114402, NaN, NaN, NaN, 0.03601294, "- N/A -   "
0.59, 25.9484, 0.00116068, NaN, NaN, NaN, 0.03601294, "- N/A -   "
0.6, 26.3023, 0.00118012, NaN, NaN, NaN, 0.0347922, "- N/A -   "
0.61, 26.6561, 0.00119678, NaN, NaN, NaN, 0.0347922, "- N/A -   "
0.62, 27.1279, 0.00121622, NaN, NaN, NaN, 0.0335714, "- N/A -   "
0.63, 27.3638, 0.00123565, NaN, NaN, NaN, 0.0323506, "- N/A -   "
0.64, 27.8356, 0.00125509, NaN, NaN, NaN, 0.03112983, "- N/A -   "
0.65, 28.1894, 0.00127175, NaN, NaN, NaN, 0.03112983, "- N/A -   "
0.66, 28.54329, 0.00129119, NaN, NaN, NaN, 0.03112983, "- N/A -   "
0.67, 28.7792, 0.00130785, NaN, NaN, NaN, 0.0299091, "- N/A -   "
0.68, 29.133, 0.00132173, NaN, NaN, NaN, 0.03112983, "- N/A -   "
0.69, 29.4869, 0.00133839, NaN, NaN, NaN, 0.03112983, "- N/A -   "
0.7, 29.84071, 0.00135783, NaN, NaN, NaN, 0.0299091, "- N/A -   "
0.71, 30.1946, 0.00137449, NaN, NaN, NaN, 0.0299091, "- N/A -   "
0.72, 30.5484, 0.00139115, NaN, NaN, NaN, 0.0299091, "- N/A -   "
0.73, 30.9022, 0.00140781, NaN, NaN, NaN, 0.0299091, "- N/A -   "
0.74, 31.2561, 0.00142447, NaN, NaN, NaN, 0.0299091, "- N/A -   "
0.75, 31.492, 0.00144113, NaN, NaN, NaN, 0.0299091, "- N/A -   "
0.76, 31.9638, 0.00145779, NaN, NaN, NaN, 0.0299091, "- N/A -   "
0.77, 32.3176, 0.00147446, NaN, NaN, NaN, 0.0299091, "- N/A -   "
0.78, 32.5535, 0.00149112, NaN, NaN, NaN, 0.0299091, "- N/A -   "
0.79, 32.9073, 0.00150778, NaN, NaN, NaN, 0.0299091, "- N/A -   "
0.8, 33.1432, 0.00152166, NaN, NaN, NaN, 0.03112983, "- N/A -   "
0.81, 33.49708, 0.00153554, NaN, NaN, NaN, 0.0323506, "- N/A -   "
0.82, 33.73298, 0.0015522, NaN, NaN, NaN, 0.0323506, "- N/A -   "
0.83, 34.08682, 0.00156609, NaN, NaN, NaN, 0.0335714, "- N/A -   "
0.84, 34.4407, 0.00157997, NaN, NaN, NaN, 0.0347922, "- N/A -   "
0.85, 34.55861, 0.00159386, NaN, NaN, NaN, 0.03601294, "- N/A -   "
0.86, 35.0304, 0.00160774, NaN, NaN, NaN, 0.0372337, "- N/A -   "
0.87, 35.2663, 0.001621623, NaN, NaN, NaN, 0.0384545, "- N/A -   "
0.88, 35.3842, 0.00163828, NaN, NaN, NaN, 0.0384545, "- N/A -   "
0.89, 35.7381, 0.00165217, NaN, NaN, NaN, 0.0396753, "- N/A -   "
0.9, 36.0919, 0.00166605, NaN, NaN, NaN, 0.04089605, "- N/A -   "
0.91, 36.32782, 0.00167993, NaN, NaN, NaN, 0.04211683, "- N/A -   "
0.92, 36.5637, 0.0016966, NaN, NaN, NaN, 0.0433376, "- N/A -   "
0.93, 36.9176, 0.00171048, NaN, NaN, NaN, 0.0445584, "- N/A -   "
0.94, 37.15345, 0.00172159, NaN, NaN, NaN, 0.04577916, "- N/A -   "
0.95, 37.5073, 0.00173825, NaN, NaN, NaN, 0.04577916, "- N/A -   "
0.96, 37.74319, 0.00175213, NaN, NaN, NaN, 0.04699994, "- N/A -   "
0.97, 38.215, 0.00177157, NaN, NaN, NaN, 0.04577916, "- N/A -   "
0.98, 38.4509, 0.00178545, NaN, NaN, NaN, 0.04699994, "- N/A -   "
0.99, 38.8047, 0.001802112, NaN, NaN, NaN, 0.04699994, "- N/A -   "
1, 39.15856, 0.00182155, NaN, NaN, NaN, 0.04577916, "- N/A -   "
1.01, 39.5124, 0.00183821, NaN, NaN, NaN, 0.04577916, "- N/A -   "
1.02, 39.98419, 0.001857647, NaN, NaN, NaN, 0.04577916, "- N/A -   "
1.03, 40.22009, 0.00187431, NaN, NaN, NaN, 0.0445584, "- N/A -   "
1.04, 40.69188, 0.001890968, NaN, NaN, NaN, 0.0445584, "- N/A -   "
1.05, 41.04572, 0.00190763, NaN, NaN, NaN, 0.0445584, "- N/A -   "
1.06, 41.39956, 0.00192707, NaN, NaN, NaN, 0.0433376, "- N/A -   "
1.07, 41.6355, 0.00194373, NaN, NaN, NaN, 0.0433376, "- N/A -   "
1.08, 41.8714, 0.00195761, NaN, NaN, NaN, 0.0445584, "- N/A -   "
1.09, 42.2252, 0.00197427, NaN, NaN, NaN, 0.0445584, "- N/A -   "
1.1, 42.697, 0.00199371, NaN, NaN, NaN, 0.0433376, "- N/A -   "
1.11, 43.0508, 0.00201037, NaN, NaN, NaN, 0.0445584, "- N/A -   "
1.12, 43.40467, 0.00202703, NaN, NaN, NaN, 0.0433376, "- N/A -   "
1.13, 43.6406, 0.00204369, NaN, NaN, NaN, 0.0433376, "- N/A -   "
1.14, 43.9944, 0.00206313, NaN, NaN, NaN, 0.0433376, "- N/A -   "
1.15, 44.4662, 0.00207979, NaN, NaN, NaN, 0.04211683, "- N/A -   "
1.16, 44.82, 0.002102001, NaN, NaN, NaN, 0.0396753, "- N/A -   "
1.17, 45.29183, 0.00212144, NaN, NaN, NaN, 0.0384545, "- N/A -   "
1.18, 45.6457, 0.002138099, NaN, NaN, NaN, 0.0384545, "- N/A -   "
1.19, 45.9995, 0.002157536, NaN, NaN, NaN, 0.0372337, "- N/A -   "
1.2, 46.3534, 0.00217697, NaN, NaN, NaN, 0.03601294, "- N/A -   "
1.21, 46.7072, 0.00219641, NaN, NaN, NaN, 0.0347922, "- N/A -   "
1.22, 47.179, 0.00221585, NaN, NaN, NaN, 0.0335714, "- N/A -   "
1.23, 47.5328, 0.00223529, NaN, NaN, NaN, 0.0335714, "- N/A -   "
1.24, 47.8867, 0.00225472, NaN, NaN, NaN, 0.0323506, "- N/A -   "
1.25, 48.3585, 0.002271383, NaN, NaN, NaN, 0.03112983, "- N/A -   "
1.26, 48.7123, 0.00229082, NaN, NaN, NaN, 0.0299091, "- N/A -   "
1.27, 49.0661, 0.00231026, NaN, NaN, NaN, 0.0286883, "- N/A -   "
1.28, 49.41999, 0.002326918, NaN, NaN, NaN, 0.0286883, "- N/A -   "
1.29, 49.7738, 0.00234636, NaN, NaN, NaN, 0.0274675, "- N/A -   "
1.3, 50.1277, 0.00236579, NaN, NaN, NaN, 0.0274675, "- N/A -   "
1.31, 50.4815, 0.00238245, NaN, NaN, NaN, 0.0274675, "- N/A -   "
1.32, 50.7174, 0.00239911, NaN, NaN, NaN, 0.0274675, "- N/A -   "
1.33, 51.1892, 0.002413, NaN, NaN, NaN, 0.0274675, "- N/A -   "
1.34, 51.30715, 0.00242966, NaN, NaN, NaN, 0.0274675, "- N/A -   "
1.35, 51.66099, 0.00244354, NaN, NaN, NaN, 0.0286883, "- N/A -   "
1.36, 52.1328, 0.0024602, NaN, NaN, NaN, 0.0286883, "- N/A -   "
1.37, 52.36868, 0.00247686, NaN, NaN, NaN, 0.0286883, "- N/A -   "
1.38, 52.6046, 0.00249075, NaN, NaN, NaN, 0.0299091, "- N/A -   "
1.39, 52.9584, 0.00250463, NaN, NaN, NaN, 0.03112983, "- N/A -   "
1.4, 53.19431, 0.00252129, NaN, NaN, NaN, 0.03112983, "- N/A -   "
1.41, 53.4302, 0.00253517, NaN, NaN, NaN, 0.0323506, "- N/A -   "
1.42, 53.784, 0.00254628, NaN, NaN, NaN, 0.0347922, "- N/A -   "
1.43, 54.13789, 0.00256294, NaN, NaN, NaN, 0.0347922, "- N/A -   "
1.44, 54.3738, 0.00257683, NaN, NaN, NaN, 0.03601294, "- N/A -   "
1.45, 54.7276, 0.00259349, NaN, NaN, NaN, 0.03601294, "- N/A -   "
1.46, 54.8456, 0.00260737, NaN, NaN, NaN, 0.0372337, "- N/A -   "
1.47, 55.1994, 0.00262403, NaN, NaN, NaN, 0.0372337, "- N/A -   "
1.48, 55.55326, 0.002640691, NaN, NaN, NaN, 0.0372337, "- N/A -   "
1.49, 55.9071, 0.00265457, NaN, NaN, NaN, 0.0384545, "- N/A -   "
1.5, 56.143, 0.00267124, NaN, NaN, NaN, 0.0384545, "- N/A -   "
1.51, 56.4968, 0.0026879, NaN, NaN, NaN, 0.0396753, "- N/A -   "
1.52, 56.85068, 0.00270456, NaN, NaN, NaN, 0.0384545, "- N/A -   "
1.53, 57.08658, 0.00272122, NaN, NaN, NaN, 0.0384545, "- N/A -   "
1.54, 57.44042, 0.00273788, NaN, NaN, NaN, 0.0384545, "- N/A -   "
1.55, 57.79426, 0.00275454, NaN, NaN, NaN, 0.0384545, "- N/A -   "
1.56, 58.1481, 0.002773975, NaN, NaN, NaN, 0.0372337, "- N/A -   "
1.57, 58.5019, 0.00279064, NaN, NaN, NaN, 0.0372337, "- N/A -   "
1.58, 58.8558, 0.0028073, NaN, NaN, NaN, 0.0372337, "- N/A -   "
1.59, 59.2096, 0.00282396, NaN, NaN, NaN, 0.0372337, "- N/A -   "
1.6, 59.4455, 0.002840617, NaN, NaN, NaN, 0.0372337, "- N/A -   "
1.61, 59.79937, 0.00285728, NaN, NaN, NaN, 0.0384545, "- N/A -   "
1.62, 60.15321, 0.00287116, NaN, NaN, NaN, 0.0384545, "- N/A -   "
1.63, 60.3891, 0.002885045, NaN, NaN, NaN, 0.0396753, "- N/A -   "
1.64, 60.625, 0.002896152, NaN, NaN, NaN, 0.04211683, "- N/A -   "
1.65, 60.97884, 0.00291281, NaN, NaN, NaN, 0.04211683, "- N/A -   "
1.66, 61.3327, 0.002929473, NaN, NaN, NaN, 0.04211683, "- N/A -   "
1.67, 61.6865, 0.002943357, NaN, NaN, NaN, 0.0433376, "- N/A -   "
1.68, 61.9224, 0.00296002, NaN, NaN, NaN, 0.0433376, "- N/A -   "
1.69, 62.2763, 0.00297668, NaN, NaN, NaN, 0.0445584, "- N/A -   "
1.7, 62.5122, 0.00299056, NaN, NaN, NaN, 0.0445584, "- N/A -   "
1.71, 62.866, 0.003007222, NaN, NaN, NaN, 0.0445584, "- N/A -   "
1.72, 63.1019, 0.00302388, NaN, NaN, NaN, 0.0445584, "- N/A -   "
1.73, 63.45574, 0.003040543, NaN, NaN, NaN, 0.0445584, "- N/A -   "
1.74, 63.6916, 0.003057204, NaN, NaN, NaN, 0.0445584, "- N/A -   "
1.75, 64.16342, 0.00307386, NaN, NaN, NaN, 0.0445584, "- N/A -   "
1.76, 64.3993, 0.00309052, NaN, NaN, NaN, 0.0445584, "- N/A -   "
1.77, 64.75317, 0.00310719, NaN, NaN, NaN, 0.0445584, "- N/A -   "
1.78, 65.107, 0.003123846, NaN, NaN, NaN, 0.0445584, "- N/A -   "
1.79, 65.4608, 0.003143283, NaN, NaN, NaN, 0.0433376, "- N/A -   "
1.8, 65.93263, 0.00316272, NaN, NaN, NaN, 0.04211683, "- N/A -   "
1.81, 66.2865, 0.00318216, NaN, NaN, NaN, 0.04089605, "- N/A -   "
1.82, 66.75827, 0.00320437, NaN, NaN, NaN, 0.0384545, "- N/A -   "
1.83, 67.1121, 0.003223809, NaN, NaN, NaN, 0.0372337, "- N/A -   "
1.84, 67.46596, 0.00324047, NaN, NaN, NaN, 0.0372337, "- N/A -   "
1.85, 67.9377, 0.003259907, NaN, NaN, NaN, 0.03601294, "- N/A -   "
1.86, 68.17364, 0.003279344, NaN, NaN, NaN, 0.0347922, "- N/A -   "
1.87, 68.52748, 0.003298781, NaN, NaN, NaN, 0.0347922, "- N/A -   "
1.88, 68.8813, 0.00331822, NaN, NaN, NaN, 0.0323506, "- N/A -   "
1.89, 69.35311, 0.003337656, NaN, NaN, NaN, 0.0323506, "- N/A -   "
1.9, 69.8249, 0.003357093, NaN, NaN, NaN, 0.03112983, "- N/A -   "
1.91, 69.94285, 0.00337375, NaN, NaN, NaN, 0.03112983, "- N/A -   "
1.92, 70.41464, 0.00339041, NaN, NaN, NaN, 0.03112983, "- N/A -   "
1.93, 70.7685, 0.00340707, NaN, NaN, NaN, 0.0299091, "- N/A -   "
1.94, 71.00438, 0.003423735, NaN, NaN, NaN, 0.0299091, "- N/A -   "
1.95, 71.3582, 0.0034404, NaN, NaN, NaN, 0.0299091, "- N/A -   "
1.96, 71.71206, 0.00345706, NaN, NaN, NaN, 0.0299091, "- N/A -   "
1.97, 71.94796, 0.00347372, NaN, NaN, NaN, 0.0299091, "- N/A -   "
1.98, 72.1838, 0.00349038, NaN, NaN, NaN, 0.0299091, "- N/A -   "
1.99, 72.5377, 0.00350426, NaN, NaN, NaN, 0.03112983, "- N/A -   "
2, 72.89154, 0.00352092, NaN, NaN, NaN, 0.03112983, "- N/A -   "
2.01, 73.12743, 0.00353481, NaN, NaN, NaN, 0.0323506, "- N/A -   "
2.02, 73.48127, 0.00355147, NaN, NaN, NaN, 0.0323506, "- N/A -   "
2.03, 73.71717, 0.00356813, NaN, NaN, NaN, 0.0323506, "- N/A -   "
2.04, 74.071, 0.00358201, NaN, NaN, NaN, 0.0335714, "- N/A -   "
2.05, 74.3069, 0.00359867, NaN, NaN, NaN, 0.0335714, "- N/A -   "
2.06, 74.7787, 0.00361255, NaN, NaN, NaN, 0.0347922, "- N/A -   "
2.07, 75.0146, 0.00362921, NaN, NaN, NaN, 0.0347922, "- N/A -   "
2.08, 75.25049, 0.00364588, NaN, NaN, NaN, 0.0347922, "- N/A -   "
2.09, 75.6043, 0.00366254, NaN, NaN, NaN, 0.0347922, "- N/A -   "
2.1, 75.8402, 0.0036792, NaN, NaN, NaN, 0.0347922, "- N/A -   "
2.11, 76.31202, 0.00369863, NaN, NaN, NaN, 0.0335714, "- N/A -   "
2.12, 76.5479, 0.00371529, NaN, NaN, NaN, 0.0335714, "- N/A -   "
2.13, 77.0197, 0.00373473, NaN, NaN, NaN, 0.0323506, "- N/A -   "
2.14, 77.37354, 0.00375139, NaN, NaN, NaN, 0.0323506, "- N/A -   "
2.15, 77.6094, 0.00376805, NaN, NaN, NaN, 0.0323506, "- N/A -   "
2.16, 77.96328, 0.00378749, NaN, NaN, NaN, 0.03112983, "- N/A -   "
2.17, 78.31712, 0.00380137, NaN, NaN, NaN, 0.0323506, "- N/A -   "
2.18, 78.55301, 0.00381803, NaN, NaN, NaN, 0.0323506, "- N/A -   "
2.19, 78.78891, 0.00383192, NaN, NaN, NaN, 0.0335714, "- N/A -   "
2.2, 79.14275, 0.0038458, NaN, NaN, NaN, 0.0347922, "- N/A -   "
2.21, 79.37865, 0.00386246, NaN, NaN, NaN, 0.0347922, "- N/A -   "
2.22, 79.61454, 0.00387635, NaN, NaN, NaN, 0.03601294, "- N/A -   "
2.23, 79.85043, 0.00389023, NaN, NaN, NaN, 0.0372337, "- N/A -   "
2.24, 80.0863, 0.00390689, NaN, NaN, NaN, 0.0372337, "- N/A -   "
2.25, 80.32223, 0.00392077, NaN, NaN, NaN, 0.0384545, "- N/A -   "
2.26, 80.55813, 0.00393466, NaN, NaN, NaN, 0.0396753, "- N/A -   "
2.27, 81.0299, 0.00395132, NaN, NaN, NaN, 0.0396753, "- N/A -   "
2.28, 81.26581, 0.00396798, NaN, NaN, NaN, 0.0396753, "- N/A -   "
2.29, 81.5017, 0.003981862, NaN, NaN, NaN, 0.04089605, "- N/A -   "
2.3, 81.8555, 0.00399852, NaN, NaN, NaN, 0.04089605, "- N/A -   "
2.31, 82.20939, 0.00401241, NaN, NaN, NaN, 0.04211683, "- N/A -   "
2.32, 82.44528, 0.004029067, NaN, NaN, NaN, 0.04211683, "- N/A -   "
2.33, 82.79912, 0.00404573, NaN, NaN, NaN, 0.0433376, "- N/A -   "
2.34, 83.03502, 0.00405961, NaN, NaN, NaN, 0.0433376, "- N/A -   "
2.35, 83.38886, 0.00407905, NaN, NaN, NaN, 0.04211683, "- N/A -   "
2.36, 83.74271, 0.004095709, NaN, NaN, NaN, 0.04211683, "- N/A -   "
2.37, 83.9786, 0.00411237, NaN, NaN, NaN, 0.04211683, "- N/A -   "
2.38, 84.33244, 0.00412903, NaN, NaN, NaN, 0.04211683, "- N/A -   "
2.39, 84.68629, 0.00414569, NaN, NaN, NaN, 0.04211683, "- N/A -   "
2.4, 85.04012, 0.004165128, NaN, NaN, NaN, 0.04089605, "- N/A -   "
2.41, 85.51192, 0.00418179, NaN, NaN, NaN, 0.04089605, "- N/A -   "
2.42, 85.62987, 0.00419845, NaN, NaN, NaN, 0.04089605, "- N/A -   "
2.43, 85.9837, 0.00421511, NaN, NaN, NaN, 0.04089605, "- N/A -   "
2.44, 86.33755, 0.00423177, NaN, NaN, NaN, 0.04089605, "- N/A -   "
2.45, 86.69139, 0.00425121, NaN, NaN, NaN, 0.04089605, "- N/A -   "
2.46, 87.04523, 0.00426787, NaN, NaN, NaN, 0.0396753, "- N/A -   "
2.47, 87.28113, 0.004287305, NaN, NaN, NaN, 0.0396753, "- N/A -   "
2.48, 87.75292, 0.004306742, NaN, NaN, NaN, 0.0384545, "- N/A -   "
2.49, 87.9888, 0.004323403, NaN, NaN, NaN, 0.0372337, "- N/A -   "
2.5, 88.34265, 0.00434284, NaN, NaN, NaN, 0.03601294, "- N/A -   "
2.51, 88.6965, 0.0043595, NaN, NaN, NaN, 0.03601294, "- N/A -   "
2.52, 88.9324, 0.004376161, NaN, NaN, NaN, 0.03601294, "- N/A -   "
2.53, 89.28623, 0.004392822, NaN, NaN, NaN, 0.03601294, "- N/A -   "
2.54, 89.52213, 0.004409482, NaN, NaN, NaN, 0.03601294, "- N/A -   "
2.55, 89.87598, 0.00442614, NaN, NaN, NaN, 0.0372337, "- N/A -   "
2.56, 90.22981, 0.004442803, NaN, NaN, NaN, 0.0372337, "- N/A -   "
2.57, 90.4657, 0.004456687, NaN, NaN, NaN, 0.0372337, "- N/A -   "
2.58, 90.70161, 0.004476124, NaN, NaN, NaN, 0.0372337, "- N/A -   "
2.59, 91.1734, 0.004492785, NaN, NaN, NaN, 0.03601294, "- N/A -   "
2.6, 91.40929, 0.004506668, NaN, NaN, NaN, 0.0372337, "- N/A -   "
2.61, 91.64519, 0.004523329, NaN, NaN, NaN, 0.0372337, "- N/A -   "
2.62, 91.88108, 0.004539989, NaN, NaN, NaN, 0.0372337, "- N/A -   "
2.63, 92.35287, 0.00455665, NaN, NaN, NaN, 0.0372337, "- N/A -   "
2.64, 92.58876, 0.004576087, NaN, NaN, NaN, 0.0372337, "- N/A -   "
2.65, 92.82466, 0.004592748, NaN, NaN, NaN, 0.03601294, "- N/A -   "
2.66, 93.1785, 0.004612185, NaN, NaN, NaN, 0.0347922, "- N/A -   "
2.67, 93.65029, 0.004628845, NaN, NaN, NaN, 0.0347922, "- N/A -   "
2.68, 93.76824, 0.00464828, NaN, NaN, NaN, 0.0335714, "- N/A -   "
2.69, 94.24, 0.004664943, NaN, NaN, NaN, 0.0335714, "- N/A -   "
2.7, 94.59387, 0.00468438, NaN, NaN, NaN, 0.0323506, "- N/A -   "
2.71, 94.9477, 0.004701041, NaN, NaN, NaN, 0.0323506, "- N/A -   "
2.72, 95.18361, 0.004720478, NaN, NaN, NaN, 0.03112983, "- N/A -   "
2.73, 95.5374, 0.00473714, NaN, NaN, NaN, 0.0323506, "- N/A -   "
2.74, 95.8913, 0.004753799, NaN, NaN, NaN, 0.0323506, "- N/A -   "
2.75, 96.12719, 0.004767683, NaN, NaN, NaN, 0.0323506, "- N/A -   "
2.76, 96.36309, 0.004781567, NaN, NaN, NaN, 0.0335714, "- N/A -   "
2.77, 96.599, 0.004798227, NaN, NaN, NaN, 0.0335714, "- N/A -   "
2.78, 96.83487, 0.004814888, NaN, NaN, NaN, 0.0335714, "- N/A -   "
2.79, 97.07077, 0.00483155, NaN, NaN, NaN, 0.0335714, "- N/A -   "
2.8, 97.4246, 0.00484821, NaN, NaN, NaN, 0.0335714, "- N/A -   "
2.81, 97.6605, 0.004864869, NaN, NaN, NaN, 0.0335714, "- N/A -   "
2.82, 97.8964, 0.00488153, NaN, NaN, NaN, 0.0335714, "- N/A -   "
2.83, 98.2502, 0.00489819, NaN, NaN, NaN, 0.0347922, "- N/A -   "
2.84, 98.60408, 0.004914851, NaN, NaN, NaN, 0.0347922, "- N/A -   "
2.85, 98.83998, 0.00493151, NaN, NaN, NaN, 0.0335714, "- N/A -   "
2.86, 99.0759, 0.004950949, NaN, NaN, NaN, 0.0335714, "- N/A -   "
2.87, 99.42972, 0.004967609, NaN, NaN, NaN, 0.0335714, "- N/A -   "
2.88, 99.7836, 0.00498427, NaN, NaN, NaN, 0.0335714, "- N/A -   "
2.89, 100.019, 0.004998153, NaN, NaN, NaN, 0.0335714, "- N/A -   "
2.9, 100.3733, 0.005014814, NaN, NaN, NaN, 0.0335714, "- N/A -   "
2.91, 100.491, 0.005028698, NaN, NaN, NaN, 0.0347922, "- N/A -   "
2.92, 100.845, 0.005045358, NaN, NaN, NaN, 0.0347922, "- N/A -   "
2.93, 101.199, 0.0050648, NaN, NaN, NaN, 0.0335714, "- N/A -   "
2.94, 101.553, 0.005084233, NaN, NaN, NaN, 0.0323506, "- N/A -   "
2.95, 101.789, 0.00510089, NaN, NaN, NaN, 0.0323506, "- N/A -   "
2.96, 102.025, 0.005114777, NaN, NaN, NaN, 0.0335714, "- N/A -   "
2.97, 102.26, 0.00513144, NaN, NaN, NaN, 0.0335714, "- N/A -   "
2.98, 102.496, 0.0051481, NaN, NaN, NaN, 0.0335714, "- N/A -   "
2.99, 102.732, 0.005161982, NaN, NaN, NaN, 0.0347922, "- N/A -   "
3, 103.086, 0.00517587, NaN, NaN, NaN, 0.03601294, "- N/A -   "
3.01, 103.204, 0.005192526, NaN, NaN, NaN, 0.03601294, "- N/A -   "
3.02, 103.558, 0.00520641, NaN, NaN, NaN, 0.0372337, "- N/A -   "
3.03, 103.794, 0.00522029, NaN, NaN, NaN, 0.0384545, "- N/A -   "
3.04, 104.03, 0.00523695, NaN, NaN, NaN, 0.0396753, "- N/A -   "
3.05, 104.148, 0.005250838, NaN, NaN, NaN, 0.0396753, "- N/A -   "
3.06, 104.384, 0.0052675, NaN, NaN, NaN, 0.04089605, "- N/A -   "
3.07, 104.737, 0.00528138, NaN, NaN, NaN, 0.04089605, "- N/A -   "
3.08, 104.973, 0.005295266, NaN, NaN, NaN, 0.04211683, "- N/A -   "
3.09, 105.209, 0.00531193, NaN, NaN, NaN, 0.04211683, "- N/A -   "
3.1, 105.445, 0.00532581, NaN, NaN, NaN, 0.0433376, "- N/A -   "
3.11, 105.799, 0.00534247, NaN, NaN, NaN, 0.0433376, "- N/A -   "
3.12, 106.035, 0.00535913, NaN, NaN, NaN, 0.0433376, "- N/A -   "
3.13, 106.271, 0.00537579, NaN, NaN, NaN, 0.0445584, "- N/A -   "
3.14, 106.507, 0.00538968, NaN, NaN, NaN, 0.0445584, "- N/A -   "
3.15, 106.978, 0.00540911, NaN, NaN, NaN, 0.0445584, "- N/A -   "
3.16, 107.214, 0.005423, NaN, NaN, NaN, 0.0445584, "- N/A -   "
3.17, 107.45, 0.00543966, NaN, NaN, NaN, 0.0445584, "- N/A -   "
3.18, 107.686, 0.00545632, NaN, NaN, NaN, 0.0445584, "- N/A -   "
3.19, 108.04, 0.00547575, NaN, NaN, NaN, 0.0445584, "- N/A -   "
3.2, 108.276, 0.00549242, NaN, NaN, NaN, 0.0433376, "- N/A -   "
3.21, 108.512, 0.00550908, NaN, NaN, NaN, 0.0433376, "- N/A -   "
3.22, 108.983, 0.00552851, NaN, NaN, NaN, 0.04211683, "- N/A -   "
3.23, 109.219, 0.00554795, NaN, NaN, NaN, 0.04089605, "- N/A -   "
3.24, 109.5732, 0.00556739, NaN, NaN, NaN, 0.04089605, "- N/A -   "
3.25, 110.045, 0.005586825, NaN, NaN, NaN, 0.0384545, "- N/A -   "
3.26, 110.281, 0.00560626, NaN, NaN, NaN, 0.0372337, "- N/A -   "
3.27, 110.635, 0.0056257, NaN, NaN, NaN, 0.03601294, "- N/A -   "
3.28, 110.871, 0.00564514, NaN, NaN, NaN, 0.03601294, "- N/A -   "
3.29, 111.224, 0.0056618, NaN, NaN, NaN, 0.0347922, "- N/A -   "
3.3, 111.578, 0.00568123, NaN, NaN, NaN, 0.0335714, "- N/A -   "
3.31, 111.932, 0.00570067, NaN, NaN, NaN, 0.0323506, "- N/A -   "
3.32, 112.168, 0.00572011, NaN, NaN, NaN, 0.0323506, "- N/A -   "
3.33, 112.522, 0.00573399, NaN, NaN, NaN, 0.0323506, "- N/A -   "
3.34, 112.758, 0.00575065, NaN, NaN, NaN, 0.0323506, "- N/A -   "
3.35, 113.112, 0.00576731, NaN, NaN, NaN, 0.0323506, "- N/A -   "
3.36, 113.348, 0.00578397, NaN, NaN, NaN, 0.0323506, "- N/A -   "
3.37, 113.583, 0.00580063, NaN, NaN, NaN, 0.0323506, "- N/A -   "
3.38, 113.819, 0.0058173, NaN, NaN, NaN, 0.0323506, "- N/A -   "
3.39, 114.055, 0.00583118, NaN, NaN, NaN, 0.0335714, "- N/A -   "
3.4, 114.409, 0.00584784, NaN, NaN, NaN, 0.0335714, "- N/A -   "
3.41, 114.527, 0.0058645, NaN, NaN, NaN, 0.0335714, "- N/A -   "
3.42, 114.881, 0.00587838, NaN, NaN, NaN, 0.0347922, "- N/A -   "
3.43, 114.999, 0.00589504, NaN, NaN, NaN, 0.0347922, "- N/A -   "
3.44, 115.353, 0.0059117, NaN, NaN, NaN, 0.0347922, "- N/A -   "
3.45, 115.706, 0.00592837, NaN, NaN, NaN, 0.0347922, "- N/A -   "
3.46, 116.06, 0.0059478, NaN, NaN, NaN, 0.0335714, "- N/A -   "
3.47, 116.414, 0.00596724, NaN, NaN, NaN, 0.0323506, "- N/A -   "
3.48, 116.65, 0.0059839, NaN, NaN, NaN, 0.0323506, "- N/A -   "
3.49, 117.004, 0.006003338, NaN, NaN, NaN, 0.03112983, "- N/A -   "
3.5, 117.358, 0.006025552, NaN, NaN, NaN, 0.0286883, "- N/A -   "
3.51, 117.712, 0.006042212, NaN, NaN, NaN, 0.0286883, "- N/A -   "
3.52, 118.065, 0.00606165, NaN, NaN, NaN, 0.0274675, "- N/A -   "
3.53, 118.301, 0.00607831, NaN, NaN, NaN, 0.0274675, "- N/A -   "
3.54, 118.537, 0.00609497, NaN, NaN, NaN, 0.0286883, "- N/A -   "
3.55, 118.7731, 0.006108854, NaN, NaN, NaN, 0.0299091, "- N/A -   "
3.56, 119.009, 0.006125515, NaN, NaN, NaN, 0.0299091, "- N/A -   "
3.57, 119.245, 0.006142175, NaN, NaN, NaN, 0.0299091, "- N/A -   "
3.58, 119.481, 0.006156059, NaN, NaN, NaN, 0.03112983, "- N/A -   "
3.59, 119.717, 0.00617272, NaN, NaN, NaN, 0.03112983, "- N/A -   "
3.6, 120.071, 0.00618938, NaN, NaN, NaN, 0.03112983, "- N/A -   "
3.61, 120.306, 0.00620604, NaN, NaN, NaN, 0.0323506, "- N/A -   "
3.62, 120.542, 0.006219924, NaN, NaN, NaN, 0.0323506, "- N/A -   "
3.63, 120.896, 0.006233808, NaN, NaN, NaN, 0.0335714, "- N/A -   "
3.64, 121.014, 0.006247692, NaN, NaN, NaN, 0.0347922, "- N/A -   "
3.65, 121.132, 0.006261576, NaN, NaN, NaN, 0.03601294, "- N/A -   "
3.66, 121.486, 0.006272683, NaN, NaN, NaN, 0.0384545, "- N/A -   "
3.67, 121.604, 0.00628379, NaN, NaN, NaN, 0.04089605, "- N/A -   "
3.68, 121.722, 0.006297673, NaN, NaN, NaN, 0.04211683, "- N/A -   "
3.69, 121.84, 0.00630878, NaN, NaN, NaN, 0.0445584, "- N/A -   "
3.7, 122.194, 0.006325441, NaN, NaN, NaN, 0.0445584, "- N/A -   "
3.71, 122.429, 0.00633932, NaN, NaN, NaN, 0.04577916, "- N/A -   "
3.72, 122.783, 0.006355985, NaN, NaN, NaN, 0.04577916, "- N/A -   "
3.73, 123.019, 0.006372646, NaN, NaN, NaN, 0.04577916, "- N/A -   "
3.74, 123.255, 0.006386529, NaN, NaN, NaN, 0.04699994, "- N/A -   "
3.75, 123.491, 0.006400413, NaN, NaN, NaN, 0.0482207, "- N/A -   "
3.76, 123.845, 0.006417074, NaN, NaN, NaN, 0.0482207, "- N/A -   "
3.77, 124.081, 0.006433734, NaN, NaN, NaN, 0.0482207, "- N/A -   "
3.78, 124.435, 0.006450395, NaN, NaN, NaN, 0.0482207, "- N/A -   "
3.79, 124.788, 0.006469832, NaN, NaN, NaN, 0.04699994, "- N/A -   "
3.8, 125.024, 0.006486492, NaN, NaN, NaN, 0.04699994, "- N/A -   "
3.81, 125.378, 0.006503153, NaN, NaN, NaN, 0.04699994, "- N/A -   "
3.82, 125.614, 0.00652259, NaN, NaN, NaN, 0.04577916, "- N/A -   "
3.83, 125.9679, 0.006542028, NaN, NaN, NaN, 0.0445584, "- N/A -   "
3.84, 126.322, 0.006561465, NaN, NaN, NaN, 0.0433376, "- N/A -   "
3.85, 126.558, 0.006578125, NaN, NaN, NaN, 0.0433376, "- N/A -   "
3.86, 127.147, 0.00659756, NaN, NaN, NaN, 0.04211683, "- N/A -   "
3.87, 127.265, 0.006617, NaN, NaN, NaN, 0.04089605, "- N/A -   "
3.88, 127.619, 0.00663366, NaN, NaN, NaN, 0.04089605, "- N/A -   "
3.89, 127.855, 0.006653098, NaN, NaN, NaN, 0.0396753, "- N/A -   "
3.9, 128.209, 0.006672535, NaN, NaN, NaN, 0.0384545, "- N/A -   "
3.91, 128.563, 0.00669197, NaN, NaN, NaN, 0.0372337, "- N/A -   "
3.92, 128.799, 0.006708633, NaN, NaN, NaN, 0.0372337, "- N/A -   "
3.93, 129.152, 0.00672807, NaN, NaN, NaN, 0.0372337, "- N/A -   "
3.94, 129.388, 0.00674473, NaN, NaN, NaN, 0.03601294, "- N/A -   "
3.95, 129.742, 0.006761391, NaN, NaN, NaN, 0.03601294, "- N/A -   "
3.96, 130.096, 0.006778051, NaN, NaN, NaN, 0.03601294, "- N/A -   "
3.97, 130.332, 0.006794712, NaN, NaN, NaN, 0.03601294, "- N/A -   "
3.98, 130.568, 0.00681137, NaN, NaN, NaN, 0.03601294, "- N/A -   "
3.99, 130.804, 0.006828033, NaN, NaN, NaN, 0.03601294, "- N/A -   "
4, 131.04, 0.00684469, NaN, NaN, NaN, 0.03601294, "- N/A -   "
4.01, 131.393, 0.006861354, NaN, NaN, NaN, 0.03601294, "- N/A -   "
4.02, 131.747, 0.006878014, NaN, NaN, NaN, 0.03601294, "- N/A -   "
4.03, 131.983, 0.006894675, NaN, NaN, NaN, 0.03601294, "- N/A -   "
4.04, 132.337, 0.00691411, NaN, NaN, NaN, 0.0347922, "- N/A -   "
4.05, 132.6909, 0.00693355, NaN, NaN, NaN, 0.0335714, "- N/A -   "
4.06, 133.045, 0.006952987, NaN, NaN, NaN, 0.0323506, "- N/A -   "
4.07, 133.281, 0.006972424, NaN, NaN, NaN, 0.03112983, "- N/A -   "
4.08, 133.634, 0.00699186, NaN, NaN, NaN, 0.0299091, "- N/A -   "
4.09, 133.988, 0.00700852, NaN, NaN, NaN, 0.0299091, "- N/A -   "
4.1, 134.224, 0.00702796, NaN, NaN, NaN, 0.0286883, "- N/A -   "
4.11, 134.696, 0.00704462, NaN, NaN, NaN, 0.0286883, "- N/A -   "
4.12, 134.814, 0.007064057, NaN, NaN, NaN, 0.0274675, "- N/A -   "
4.13, 135.1678, 0.00708072, NaN, NaN, NaN, 0.0274675, "- N/A -   "
4.14, 135.522, 0.00709738, NaN, NaN, NaN, 0.0274675, "- N/A -   "
4.15, 135.64, 0.00711126, NaN, NaN, NaN, 0.0286883, "- N/A -   "
4.16, 135.993, 0.00712515, NaN, NaN, NaN, 0.0299091, "- N/A -   "
4.17, 136.111, 0.007141806, NaN, NaN, NaN, 0.0299091, "- N/A -   "
4.18, 136.465, 0.00715847, NaN, NaN, NaN, 0.03112983, "- N/A -   "
4.19, 136.701, 0.00717235, NaN, NaN, NaN, 0.03112983, "- N/A -   "
4.2, 136.937, 0.00718901, NaN, NaN, NaN, 0.03112983, "- N/A -   "
4.21, 137.291, 0.00720845, NaN, NaN, NaN, 0.03112983, "- N/A -   "
4.22, 137.527, 0.00722233, NaN, NaN, NaN, 0.03112983, "- N/A -   "
4.23, 137.763, 0.00723899, NaN, NaN, NaN, 0.0323506, "- N/A -   "
4.24, 137.999, 0.007252876, NaN, NaN, NaN, 0.0323506, "- N/A -   "
4.25, 138.234, 0.00726676, NaN, NaN, NaN, 0.0335714, "- N/A -   "
4.26, 138.47, 0.00728064, NaN, NaN, NaN, 0.0347922, "- N/A -   "
4.27, 138.706, 0.00729453, NaN, NaN, NaN, 0.03601294, "- N/A -   "
4.28, 139.06, 0.00731119, NaN, NaN, NaN, 0.03601294, "- N/A -   "
4.29, 139.178, 0.00732507, NaN, NaN, NaN, 0.0372337, "- N/A -   "
4.3, 139.414, 0.00733896, NaN, NaN, NaN, 0.0384545, "- N/A -   "
4.31, 139.768, 0.00735562, NaN, NaN, NaN, 0.0384545, "- N/A -   "
4.32, 140.004, 0.0073695, NaN, NaN, NaN, 0.0396753, "- N/A -   "
4.33, 140.24, 0.00738338, NaN, NaN, NaN, 0.04089605, "- N/A -   "
4.34, 140.357, 0.007400044, NaN, NaN, NaN, 0.04089605, "- N/A -   "
4.35, 140.711, 0.00741115, NaN, NaN, NaN, 0.0433376, "- N/A -   "
4.36, 140.829, 0.00743059, NaN, NaN, NaN, 0.04211683, "- N/A -   "
4.37, 141.183, 0.00744447, NaN, NaN, NaN, 0.0433376, "- N/A -   "
4.38, 141.537, 0.00746113, NaN, NaN, NaN, 0.0433376, "- N/A -   "
4.39, 141.773, 0.007477793, NaN, NaN, NaN, 0.0433376, "- N/A -   "
4.4, 142.1267, 0.00749445, NaN, NaN, NaN, 0.0433376, "- N/A -   "
4.41, 142.3626, 0.007511114, NaN, NaN, NaN, 0.0433376, "- N/A -   "
4.42, 142.716, 0.00752777, NaN, NaN, NaN, 0.0433376, "- N/A -   "
4.43, 142.952, 0.00754443, NaN, NaN, NaN, 0.0433376, "- N/A -   "
4.44, 143.306, 0.0075611, NaN, NaN, NaN, 0.0433376, "- N/A -   "
4.45, 143.542, 0.00757498, NaN, NaN, NaN, 0.0445584, "- N/A -   "
4.46, 143.778, 0.007594417, NaN, NaN, NaN, 0.0433376, "- N/A -   "
4.47, 144.132, 0.007611077, NaN, NaN, NaN, 0.0433376, "- N/A -   "
4.48, 144.368, 0.00762774, NaN, NaN, NaN, 0.0433376, "- N/A -   "
4.49, 144.604, 0.0076444, NaN, NaN, NaN, 0.0433376, "- N/A -   "
4.5, 144.957, 0.00766106, NaN, NaN, NaN, 0.0433376, "- N/A -   "
4.51, 145.0754, 0.007677719, NaN, NaN, NaN, 0.0433376, "- N/A -   "
4.52, 145.429, 0.0076916, NaN, NaN, NaN, 0.0445584, "- N/A -   "
4.53, 145.783, 0.00771104, NaN, NaN, NaN, 0.0433376, "- N/A -   "
4.54, 146.137, 0.0077277, NaN, NaN, NaN, 0.0433376, "- N/A -   "
4.55, 146.3728, 0.00774436, NaN, NaN, NaN, 0.0433376, "- N/A -   "
4.56, 146.727, 0.007763799, NaN, NaN, NaN, 0.0433376, "- N/A -   "
4.57, 147.0805, 0.007780459, NaN, NaN, NaN, 0.04211683, "- N/A -   "
4.58, 147.434, 0.007799896, NaN, NaN, NaN, 0.04089605, "- N/A -   "
4.59, 147.788, 0.007819334, NaN, NaN, NaN, 0.0396753, "- N/A -   "
4.6, 148.142, 0.007838771, NaN, NaN, NaN, 0.0384545, "- N/A -   "
4.61, 148.378, 0.007858207, NaN, NaN, NaN, 0.0372337, "- N/A -   "
4.62, 148.732, 0.007877645, NaN, NaN, NaN, 0.03601294, "- N/A -   "
4.63, 149.0856, 0.007897083, NaN, NaN, NaN, 0.0347922, "- N/A -   "
4.64, 149.439, 0.007916519, NaN, NaN, NaN, 0.0335714, "- N/A -   "
4.65, 149.675, 0.007935957, NaN, NaN, NaN, 0.0323506, "- N/A -   "
4.66, 150.147, 0.007955394, NaN, NaN, NaN, 0.03112983, "- N/A -   "
4.67, 150.383, 0.007974831, NaN, NaN, NaN, 0.03112983, "- N/A -   "
4.68, 150.737, 0.007991492, NaN, NaN, NaN, 0.0299091, "- N/A -   "
4.69, 150.973, 0.008008153, NaN, NaN, NaN, 0.0299091, "- N/A -   "
4.7, 151.209, 0.008024813, NaN, NaN, NaN, 0.0299091, "- N/A -   "
4.71, 151.5625, 0.008041474, NaN, NaN, NaN, 0.0299091, "- N/A -   "
4.72, 151.798, 0.00805813, NaN, NaN, NaN, 0.0299091, "- N/A -   "
4.73, 152.152, 0.008074795, NaN, NaN, NaN, 0.0299091, "- N/A -   "
4.74, 152.388, 0.008088678, NaN, NaN, NaN, 0.03112983, "- N/A -   "
4.75, 152.624, 0.008105339, NaN, NaN, NaN, 0.03112983, "- N/A -   "
4.76, 152.978, 0.008121999, NaN, NaN, NaN, 0.03112983, "- N/A -   "
4.77, 153.096, 0.00813866, NaN, NaN, NaN, 0.03112983, "- N/A -   "
4.78, 153.332, 0.00815532, NaN, NaN, NaN, 0.03112983, "- N/A -   "
4.79, 153.686, 0.008171981, NaN, NaN, NaN, 0.03112983, "- N/A -   "
4.8, 153.921, 0.008185865, NaN, NaN, NaN, 0.0323506, "- N/A -   "
4.81, 154.157, 0.008202525, NaN, NaN, NaN, 0.0323506, "- N/A -   "
4.82, 154.393, 0.008219186, NaN, NaN, NaN, 0.0323506, "- N/A -   "
4.83, 154.747, 0.008233069, NaN, NaN, NaN, 0.0335714, "- N/A -   "
4.84, 155.101, 0.00824973, NaN, NaN, NaN, 0.0335714, "- N/A -   "
4.85, 155.337, 0.00826917, NaN, NaN, NaN, 0.0335714, "- N/A -   "
4.86, 155.573, 0.008283051, NaN, NaN, NaN, 0.0335714, "- N/A -   "
4.87, 155.809, 0.008299711, NaN, NaN, NaN, 0.0335714, "- N/A -   "
4.88, 156.0445, 0.00831637, NaN, NaN, NaN, 0.0335714, "- N/A -   "
4.89, 156.398, 0.008333032, NaN, NaN, NaN, 0.0335714, "- N/A -   "
4.9, 156.634, 0.008346916, NaN, NaN, NaN, 0.0347922, "- N/A -   "
4.91, 156.87, 0.0083608, NaN, NaN, NaN, 0.03601294, "- N/A -   "
4.92, 157.106, 0.008377461, NaN, NaN, NaN, 0.03601294, "- N/A -   "
4.93, 157.46, 0.008394121, NaN, NaN, NaN, 0.03601294, "- N/A -   "
4.94, 157.696, 0.008410782, NaN, NaN, NaN, 0.03601294, "- N/A -   "
4.95, 158.0496, 0.008427442, NaN, NaN, NaN, 0.03601294, "- N/A -   "
4.96, 158.403, 0.0084441, NaN, NaN, NaN, 0.03601294, "- N/A -   "
4.97, 158.639, 0.00846354, NaN, NaN, NaN, 0.03601294, "- N/A -   "
4.98, 158.875, 0.008477423, NaN, NaN, NaN, 0.03601294, "- N/A -   "
4.99, 159.111, 0.008494084, NaN, NaN, NaN, 0.03601294, "- N/A -   "
5, 159.347, 0.008510744, NaN, NaN, NaN, 0.03601294, "- N/A -   "
5.01, 159.701, 0.008524628, NaN, NaN, NaN, 0.0372337, "- N/A -   "
5.02, 159.937, 0.00853851, NaN, NaN, NaN, 0.0384545, "- N/A -   "
5.03, 160.173, 0.008552396, NaN, NaN, NaN, 0.0396753, "- N/A -   "
5.04, 160.2906, 0.008569056, NaN, NaN, NaN, 0.04089605, "- N/A -   "
5.05, 160.5265, 0.00858294, NaN, NaN, NaN, 0.04211683, "- N/A -   "
5.06, 160.88, 0.008599601, NaN, NaN, NaN, 0.04211683, "- N/A -   "
5.07, 161.116, 0.008613484, NaN, NaN, NaN, 0.04211683, "- N/A -   "
5.08, 161.4701, 0.008627368, NaN, NaN, NaN, 0.0433376, "- N/A -   "
5.09, 161.706, 0.008644029, NaN, NaN, NaN, 0.0433376, "- N/A -   "
5.1, 161.824, 0.008660689, NaN, NaN, NaN, 0.0445584, "- N/A -   "
5.11, 162.178, 0.008674573, NaN, NaN, NaN, 0.0445584, "- N/A -   "
5.12, 162.414, 0.008691234, NaN, NaN, NaN, 0.0445584, "- N/A -   "
5.13, 162.768, 0.008707894, NaN, NaN, NaN, 0.0445584, "- N/A -   "
5.14, 163.0034, 0.008724554, NaN, NaN, NaN, 0.0445584, "- N/A -   "
5.15, 163.357, 0.008738439, NaN, NaN, NaN, 0.04577916, "- N/A -   "
5.16, 163.593, 0.008755099, NaN, NaN, NaN, 0.04577916, "- N/A -   "
5.17, 163.947, 0.008774537, NaN, NaN, NaN, 0.0445584, "- N/A -   "
5.18, 164.301, 0.008793973, NaN, NaN, NaN, 0.0433376, "- N/A -   "
5.19, 164.655, 0.008813411, NaN, NaN, NaN, 0.04211683, "- N/A -   "
5.2, 165.009, 0.008832848, NaN, NaN, NaN, 0.04089605, "- N/A -   "
5.21, 165.362, 0.008849508, NaN, NaN, NaN, 0.04089605, "- N/A -   "
5.22, 165.7162, 0.008868946, NaN, NaN, NaN, 0.0396753, "- N/A -   "
5.23, 166.07, 0.008888382, NaN, NaN, NaN, 0.0384545, "- N/A -   "
5.24, 166.306, 0.008910596, NaN, NaN, NaN, 0.03601294, "- N/A -   "
5.25, 166.66, 0.008930034, NaN, NaN, NaN, 0.03601294, "- N/A -   "
5.26, 167.014, 0.008946694, NaN, NaN, NaN, 0.0347922, "- N/A -   "
5.27, 167.25, 0.008966132, NaN, NaN, NaN, 0.0347922, "- N/A -   "
5.28, 167.603, 0.00898279, NaN, NaN, NaN, 0.0335714, "- N/A -   "
5.29, 167.839, 0.009002229, NaN, NaN, NaN, 0.0323506, "- N/A -   "
5.3, 168.429, 0.009021667, NaN, NaN, NaN, 0.03112983, "- N/A -   "
5.31, 168.547, 0.009038327, NaN, NaN, NaN, 0.03112983, "- N/A -   "
5.32, 168.901, 0.009057765, NaN, NaN, NaN, 0.0299091, "- N/A -   "
5.33, 169.137, 0.009074425, NaN, NaN, NaN, 0.0299091, "- N/A -   "
5.34, 169.491, 0.009091086, NaN, NaN, NaN, 0.0299091, "- N/A -   "
5.35, 169.726, 0.00910497, NaN, NaN, NaN, 0.03112983, "- N/A -   "
5.36, 169.962, 0.009116077, NaN, NaN, NaN, 0.0335714, "- N/A -   "
5.37, 170.08, 0.00912996, NaN, NaN, NaN, 0.0347922, "- N/A -   "
5.38, 170.316, 0.009143844, NaN, NaN, NaN, 0.03601294, "- N/A -   "
5.39, 170.67, 0.009160505, NaN, NaN, NaN, 0.03601294, "- N/A -   "
5.4, 170.788, 0.009174389, NaN, NaN, NaN, 0.0372337, "- N/A -   "
5.41, 171.142, 0.009191048, NaN, NaN, NaN, 0.0372337, "- N/A -   "
5.42, 171.378, 0.00920493, NaN, NaN, NaN, 0.0384545, "- N/A -   "
5.43, 171.614, 0.009221593, NaN, NaN, NaN, 0.0384545, "- N/A -   "
5.44, 171.9674, 0.009238253, NaN, NaN, NaN, 0.0384545, "- N/A -   "
5.45, 172.203, 0.009254914, NaN, NaN, NaN, 0.0384545, "- N/A -   "
5.46, 172.557, 0.009274351, NaN, NaN, NaN, 0.0384545, "- N/A -   "
5.47, 172.911, 0.009291012, NaN, NaN, NaN, 0.0372337, "- N/A -   "
5.48, 173.265, 0.009310449, NaN, NaN, NaN, 0.03601294, "- N/A -   "
5.49, 173.501, 0.00932711, NaN, NaN, NaN, 0.03601294, "- N/A -   "
5.5, 173.855, 0.009346547, NaN, NaN, NaN, 0.0347922, "- N/A -   "
5.51, 174.208, 0.009363208, NaN, NaN, NaN, 0.0347922, "- N/A -   "
5.52, 174.562, 0.009382645, NaN, NaN, NaN, 0.0335714, "- N/A -   "
5.53, 174.798, 0.009399305, NaN, NaN, NaN, 0.0335714, "- N/A -   "
5.54, 175.27, 0.009421519, NaN, NaN, NaN, 0.0323506, "- N/A -   "
5.55, 175.506, 0.009438179, NaN, NaN, NaN, 0.0323506, "- N/A -   "
5.56, 175.86, 0.00945484, NaN, NaN, NaN, 0.03112983, "- N/A -   "
5.57, 176.096, 0.009471501, NaN, NaN, NaN, 0.03112983, "- N/A -   "
5.58, 176.449, 0.009488161, NaN, NaN, NaN, 0.03112983, "- N/A -   "
5.59, 176.6853, 0.009502045, NaN, NaN, NaN, 0.0323506, "- N/A -   "
5.6, 176.9212, 0.009518706, NaN, NaN, NaN, 0.0323506, "- N/A -   "
5.61, 177.1571, 0.009535366, NaN, NaN, NaN, 0.0323506, "- N/A -   "
5.62, 177.393, 0.009549249, NaN, NaN, NaN, 0.0335714, "- N/A -   "
5.63, 177.747, 0.00956591, NaN, NaN, NaN, 0.0335714, "- N/A -   "
5.64, 177.865, 0.009582571, NaN, NaN, NaN, 0.0335714, "- N/A -   "
5.65, 178.219, 0.009596455, NaN, NaN, NaN, 0.0347922, "- N/A -   "
5.66, 178.572, 0.009610339, NaN, NaN, NaN, 0.03601294, "- N/A -   "
5.67, 178.69, 0.009624222, NaN, NaN, NaN, 0.0372337, "- N/A -   "
5.68, 179.044, 0.009640883, NaN, NaN, NaN, 0.0372337, "- N/A -   "
5.69, 179.28, 0.009657542, NaN, NaN, NaN, 0.0372337, "- N/A -   "
5.7, 179.516, 0.00966865, NaN, NaN, NaN, 0.0396753, "- N/A -   "
5.71, 179.87, 0.009685311, NaN, NaN, NaN, 0.0396753, "- N/A -   "
5.72, 179.988, 0.009701971, NaN, NaN, NaN, 0.04089605, "- N/A -   "
5.73, 180.342, 0.009715854, NaN, NaN, NaN, 0.04089605, "- N/A -   "
5.74, 180.578, 0.009732515, NaN, NaN, NaN, 0.04089605, "- N/A -   "
5.75, 180.931, 0.009751952, NaN, NaN, NaN, 0.04089605, "- N/A -   "
5.76, 181.285, 0.009768613, NaN, NaN, NaN, 0.0396753, "- N/A -   "
5.77, 181.639, 0.009785273, NaN, NaN, NaN, 0.0396753, "- N/A -   "
5.78, 181.993, 0.00980193, NaN, NaN, NaN, 0.0396753, "- N/A -   "
5.79, 182.229, 0.009821371, NaN, NaN, NaN, 0.0384545, "- N/A -   "
5.8, 182.465, 0.009838031, NaN, NaN, NaN, 0.0384545, "- N/A -   "
5.81, 182.819, 0.009854692, NaN, NaN, NaN, 0.0384545, "- N/A -   "
5.82, 183.054, 0.009871352, NaN, NaN, NaN, 0.0384545, "- N/A -   "
5.83, 183.29, 0.009888013, NaN, NaN, NaN, 0.0384545, "- N/A -   "
5.84, 183.644, 0.009904673, NaN, NaN, NaN, 0.0396753, "- N/A -   "
5.85, 183.8801, 0.009921335, NaN, NaN, NaN, 0.0384545, "- N/A -   "
5.86, 184.3519, 0.009937994, NaN, NaN, NaN, 0.0384545, "- N/A -   "
5.87, 184.5878, 0.009954655, NaN, NaN, NaN, 0.0384545, "- N/A -   "
5.88, 184.824, 0.009971315, NaN, NaN, NaN, 0.0384545, "- N/A -   "
5.89, 185.178, 0.009985199, NaN, NaN, NaN, 0.0396753, "- N/A -   "
5.9, 185.413, 0.0100046, NaN, NaN, NaN, 0.0384545, "- N/A -   "
5.91, 185.767, 0.0100213, NaN, NaN, NaN, 0.0384545, "- N/A -   "
5.92, 186.003, 0.010038, NaN, NaN, NaN, 0.0384545, "- N/A -   "
5.93, 186.239, 0.0100546, NaN, NaN, NaN, 0.0384545, "- N/A -   "
5.94, 186.711, 0.0100741, NaN, NaN, NaN, 0.0372337, "- N/A -   "
5.95, 186.947, 0.0100907, NaN, NaN, NaN, 0.0372337, "- N/A -   "
5.96, 187.301, 0.0101074, NaN, NaN, NaN, 0.0372337, "- N/A -   "
[...]
16.78, 569.329, 0.02812572, NaN, NaN, NaN, 0.0433376, "- N/A -   "
16.81, 570.511, 0.0281785, NaN, NaN, NaN, 0.04211683, "- N/A -   "
16.84, 571.812, 0.0282285, NaN, NaN, NaN, 0.04211683, "- N/A -   "
16.87, 572.9953, 0.028284, NaN, NaN, NaN, 0.0396753, "- N/A -   "
16.9, 574.4146, 0.02833953, NaN, NaN, NaN, 0.0372337, "- N/A -   "
16.93, 575.716, 0.0283978, NaN, NaN, NaN, 0.0335714, "- N/A -   "
16.96, 577.0168, 0.0284506, NaN, NaN, NaN, 0.0323506, "- N/A -   "
16.99, 578.2, 0.0285006, NaN, NaN, NaN, 0.0323506, "- N/A -   "
17.02, 579.264, 0.0285506, NaN, NaN, NaN, 0.0323506, "- N/A -   "
17.05, 580.447, 0.0286005, NaN, NaN, NaN, 0.0323506, "- N/A -   "
17.08, 581.5115, 0.0286477, NaN, NaN, NaN, 0.0335714, "- N/A -   "
17.11, 582.8126, 0.0287033, NaN, NaN, NaN, 0.03112983, "- N/A -   "
17.14, 584.232, 0.0287616, NaN, NaN, NaN, 0.0286883, "- N/A -   "
17.17, 585.651, 0.0288144, NaN, NaN, NaN, 0.0274675, "- N/A -   "
17.2, 586.598, 0.0288616, NaN, NaN, NaN, 0.0286883, "- N/A -   "
17.23, 587.662, 0.0289088, NaN, NaN, NaN, 0.0299091, "- N/A -   "
17.26, 588.9632, 0.028956, NaN, NaN, NaN, 0.03112983, "- N/A -   "
17.29, 589.791, 0.0290004, NaN, NaN, NaN, 0.0347922, "- N/A -   "
17.32, 590.7374, 0.0290393, NaN, NaN, NaN, 0.0384545, "- N/A -   "
17.35, 591.565, 0.0290809, NaN, NaN, NaN, 0.04211683, "- N/A -   "
17.38, 592.5116, 0.0291226, NaN, NaN, NaN, 0.04577916, "- N/A -   "
17.41, 593.5762, 0.029167, NaN, NaN, NaN, 0.0482207, "- N/A -   "
17.44, 594.7589, 0.029217, NaN, NaN, NaN, 0.0482207, "- N/A -   "
17.47, 596.06, 0.029267, NaN, NaN, NaN, 0.0482207, "- N/A -   "
17.5, 597.243, 0.0293225, NaN, NaN, NaN, 0.04577916, "- N/A -   "
17.53, 598.7805, 0.0293836, NaN, NaN, NaN, 0.04089605, "- N/A -   "
17.56, 600.082, 0.0294363, NaN, NaN, NaN, 0.0396753, "- N/A -   "
17.59, 601.2644, 0.0294891, NaN, NaN, NaN, 0.0384545, "- N/A -   "
17.62, 602.5655, 0.0295446, NaN, NaN, NaN, 0.03601294, "- N/A -   "
17.65, 603.7483, 0.0295974, NaN, NaN, NaN, 0.0347922, "- N/A -   "
17.68, 605.168, 0.0296529, NaN, NaN, NaN, 0.0323506, "- N/A -   "
17.71, 606.35, 0.0297029, NaN, NaN, NaN, 0.0323506, "- N/A -   "
17.74, 607.652, 0.0297557, NaN, NaN, NaN, 0.0323506, "- N/A -   "
17.77, 608.8344, 0.02980843, NaN, NaN, NaN, 0.03112983, "- N/A -   "
17.8, 610.017, 0.0298584, NaN, NaN, NaN, 0.0299091, "- N/A -   "
17.83, 611.2, 0.0299084, NaN, NaN, NaN, 0.03112983, "- N/A -   "
17.86, 612.3828, 0.0299556, NaN, NaN, NaN, 0.03112983, "- N/A -   "
17.89, 613.211, 0.02999725, NaN, NaN, NaN, 0.0347922, "- N/A -   "
17.92, 614.157, 0.0300389, NaN, NaN, NaN, 0.0384545, "- N/A -   "
17.95, 615.2215, 0.0300806, NaN, NaN, NaN, 0.04211683, "- N/A -   "
17.98, 616.1677, 0.0301278, NaN, NaN, NaN, 0.0433376, "- N/A -   "
18.01, 617.3506, 0.030175, NaN, NaN, NaN, 0.0445584, "- N/A -   "
18.04, 618.4151, 0.0302249, NaN, NaN, NaN, 0.0445584, "- N/A -   "
18.07, 619.8345, 0.0302777, NaN, NaN, NaN, 0.0433376, "- N/A -   "
18.1, 621.0173, 0.03033046, NaN, NaN, NaN, 0.04211683, "- N/A -   "
18.13, 622.082, 0.0303749, NaN, NaN, NaN, 0.0445584, "- N/A -   "
18.16, 623.146, 0.03042487, NaN, NaN, NaN, 0.0445584, "- N/A -   "
18.19, 624.566, 0.0304804, NaN, NaN, NaN, 0.04211683, "- N/A -   "
18.22, 625.749, 0.0305332, NaN, NaN, NaN, 0.04089605, "- N/A -   "
18.25, 627.1679, 0.0305943, NaN, NaN, NaN, 0.0372337, "- N/A -   "
18.28, 628.7055, 0.0306526, NaN, NaN, NaN, 0.0323506, "- N/A -   "
18.31, 630.125, 0.0307109, NaN, NaN, NaN, 0.0286883, "- N/A -   "
18.34, 631.308, 0.0307636, NaN, NaN, NaN, 0.0274675, "- N/A -   "
18.37, 632.491, 0.0308108, NaN, NaN, NaN, 0.0286883, "- N/A -   "
18.4, 633.555, 0.030858, NaN, NaN, NaN, 0.0299091, "- N/A -   "
18.43, 634.8562, 0.030908, NaN, NaN, NaN, 0.0299091, "- N/A -   "
18.46, 636.1572, 0.0309552, NaN, NaN, NaN, 0.03112983, "- N/A -   "
18.49, 637.103, 0.0310024, NaN, NaN, NaN, 0.0323506, "- N/A -   "
18.52, 638.168, 0.0310524, NaN, NaN, NaN, 0.0335714, "- N/A -   "
18.55, 639.233, 0.0310968, NaN, NaN, NaN, 0.0347922, "- N/A -   "
18.58, 640.415, 0.031144, NaN, NaN, NaN, 0.03601294, "- N/A -   "
18.61, 641.598, 0.03119403, NaN, NaN, NaN, 0.03601294, "- N/A -   "
18.64, 642.6627, 0.0312412, NaN, NaN, NaN, 0.0372337, "- N/A -   "
18.67, 643.8455, 0.0312912, NaN, NaN, NaN, 0.0372337, "- N/A -   "
18.7, 645.028, 0.03133842, NaN, NaN, NaN, 0.0396753, "- N/A -   "
18.73, 645.856, 0.0313773, NaN, NaN, NaN, 0.0433376, "- N/A -   "
18.76, 647.157, 0.0314245, NaN, NaN, NaN, 0.0445584, "- N/A -   "
18.79, 648.3402, 0.0314745, NaN, NaN, NaN, 0.04577916, "- N/A -   "
18.82, 649.641, 0.0315245, NaN, NaN, NaN, 0.0445584, "- N/A -   "
18.85, 650.8241, 0.03158, NaN, NaN, NaN, 0.04211683, "- N/A -   "
18.88, 652.3617, 0.0316355, NaN, NaN, NaN, 0.0396753, "- N/A -   "
18.91, 653.663, 0.03169662, NaN, NaN, NaN, 0.0347922, "- N/A -   "
18.94, 655.082, 0.0317522, NaN, NaN, NaN, 0.0323506, "- N/A -   "
18.97, 656.3833, 0.0318049, NaN, NaN, NaN, 0.03112983, "- N/A -   "
19, 657.566, 0.0318549, NaN, NaN, NaN, 0.03112983, "- N/A -   "
19.03, 658.7489, 0.0319021, NaN, NaN, NaN, 0.0323506, "- N/A -   "
19.06, 659.9317, 0.0319493, NaN, NaN, NaN, 0.0335714, "- N/A -   "
19.09, 660.9962, 0.03199929, NaN, NaN, NaN, 0.0347922, "- N/A -   "
19.12, 662.0607, 0.0320465, NaN, NaN, NaN, 0.0347922, "- N/A -   "
19.15, 663.3618, 0.0320965, NaN, NaN, NaN, 0.0347922, "- N/A -   "
19.18, 664.7812, 0.032152, NaN, NaN, NaN, 0.0323506, "- N/A -   "
19.21, 665.8457, 0.03220199, NaN, NaN, NaN, 0.0323506, "- N/A -   "
19.24, 667.029, 0.032252, NaN, NaN, NaN, 0.0323506, "- N/A -   "
19.27, 668.093, 0.0322992, NaN, NaN, NaN, 0.0335714, "- N/A -   "
19.3, 669.1576, 0.03234083, NaN, NaN, NaN, 0.0372337, "- N/A -   "
19.33, 669.986, 0.0323797, NaN, NaN, NaN, 0.04211683, "- N/A -   "
19.36, 670.932, 0.03242413, NaN, NaN, NaN, 0.0445584, "- N/A -   "
19.39, 672.2329, 0.0324713, NaN, NaN, NaN, 0.04577916, "- N/A -   "
19.42, 673.416, 0.0325241, NaN, NaN, NaN, 0.0445584, "- N/A -   "
19.45, 674.953, 0.0325824, NaN, NaN, NaN, 0.04211683, "- N/A -   "
19.48, 676.1361, 0.03263239, NaN, NaN, NaN, 0.04089605, "- N/A -   "
19.51, 677.437, 0.0326851, NaN, NaN, NaN, 0.0396753, "- N/A -   "
19.54, 678.62, 0.0327351, NaN, NaN, NaN, 0.0396753, "- N/A -   "
19.57, 679.921, 0.0327907, NaN, NaN, NaN, 0.0372337, "- N/A -   "
19.6, 681.2222, 0.0328434, NaN, NaN, NaN, 0.03601294, "- N/A -   "
19.63, 682.5233, 0.0328934, NaN, NaN, NaN, 0.03601294, "- N/A -   "
19.66, 683.7061, 0.03294616, NaN, NaN, NaN, 0.0347922, "- N/A -   "
19.69, 684.889, 0.03299892, NaN, NaN, NaN, 0.0335714, "- N/A -   "
19.72, 686.19, 0.0330489, NaN, NaN, NaN, 0.0335714, "- N/A -   "
19.75, 687.491, 0.03310444, NaN, NaN, NaN, 0.03112983, "- N/A -   "
19.78, 688.6739, 0.0331544, NaN, NaN, NaN, 0.03112983, "- N/A -   "
19.81, 689.975, 0.0332044, NaN, NaN, NaN, 0.03112983, "- N/A -   "
19.84, 691.158, 0.0332572, NaN, NaN, NaN, 0.0299091, "- N/A -   "
19.87, 692.2224, 0.03330436, NaN, NaN, NaN, 0.03112983, "- N/A -   "
19.9, 693.405, 0.0333516, NaN, NaN, NaN, 0.0323506, "- N/A -   "
19.93, 694.588, 0.03339877, NaN, NaN, NaN, 0.0335714, "- N/A -   "
19.96, 695.6525, 0.0334488, NaN, NaN, NaN, 0.0335714, "- N/A -   "
19.99, 697.072, 0.03350151, NaN, NaN, NaN, 0.0323506, "- N/A -   "
20.02, 698.2547, 0.03355149, NaN, NaN, NaN, 0.0335714, "- N/A -   "
20.05, 699.083, 0.0335931, NaN, NaN, NaN, 0.03601294, "- N/A -   "
20.08, 700.2655, 0.0336403, NaN, NaN, NaN, 0.0372337, "- N/A -   "
20.11, 701.33, 0.0336848, NaN, NaN, NaN, 0.0396753, "- N/A -   "
20.14, 702.513, 0.033732, NaN, NaN, NaN, 0.04089605, "- N/A -   "
20.17, 703.459, 0.03377641, NaN, NaN, NaN, 0.0433376, "- N/A -   "
20.2, 704.642, 0.0338208, NaN, NaN, NaN, 0.04577916, "- N/A -   "
20.23, 705.943, 0.03387082, NaN, NaN, NaN, 0.04577916, "- N/A -   "
20.26, 707.244, 0.0339264, NaN, NaN, NaN, 0.0433376, "- N/A -   "
20.29, 708.6634, 0.0339847, NaN, NaN, NaN, 0.0396753, "- N/A -   "
20.32, 710.083, 0.0340402, NaN, NaN, NaN, 0.0372337, "- N/A -   "
20.35, 711.384, 0.0340957, NaN, NaN, NaN, 0.0347922, "- N/A -   "
20.38, 712.567, 0.0341457, NaN, NaN, NaN, 0.0347922, "- N/A -   "
20.41, 713.868, 0.0341957, NaN, NaN, NaN, 0.0347922, "- N/A -   "
20.44, 715.1688, 0.03424568, NaN, NaN, NaN, 0.0347922, "- N/A -   "
20.47, 716.2334, 0.03429566, NaN, NaN, NaN, 0.0347922, "- N/A -   "
20.5, 717.5344, 0.0343512, NaN, NaN, NaN, 0.0323506, "- N/A -   "
20.53, 718.7173, 0.034404, NaN, NaN, NaN, 0.0323506, "- N/A -   "
20.56, 720.2549, 0.03445949, NaN, NaN, NaN, 0.0286883, "- N/A -   "
20.59, 721.556, 0.0345122, NaN, NaN, NaN, 0.0274675, "- N/A -   "
20.62, 722.7388, 0.03456223, NaN, NaN, NaN, 0.0274675, "- N/A -   "
20.65, 723.922, 0.0346067, NaN, NaN, NaN, 0.0299091, "- N/A -   "
20.68, 724.7496, 0.03464831, NaN, NaN, NaN, 0.0335714, "- N/A -   "
20.71, 725.8141, 0.03468996, NaN, NaN, NaN, 0.0372337, "- N/A -   "
20.74, 726.6421, 0.03473161, NaN, NaN, NaN, 0.04089605, "- N/A -   "
20.77, 727.7066, 0.0347733, NaN, NaN, NaN, 0.0445584, "- N/A -   "
20.8, 728.7712, 0.0348205, NaN, NaN, NaN, 0.04577916, "- N/A -   "
20.83, 729.8357, 0.0348677, NaN, NaN, NaN, 0.04699994, "- N/A -   "
20.86, 731.018, 0.0349149, NaN, NaN, NaN, 0.0482207, "- N/A -   "
20.89, 732.3196, 0.0349676, NaN, NaN, NaN, 0.04699994, "- N/A -   "
20.92, 733.7389, 0.0350204, NaN, NaN, NaN, 0.04577916, "- N/A -   "
20.95, 735.277, 0.03508426, NaN, NaN, NaN, 0.0396753, "- N/A -   "
20.98, 736.696, 0.03513979, NaN, NaN, NaN, 0.0372337, "- N/A -   "
21.01, 738.1153, 0.03519533, NaN, NaN, NaN, 0.0347922, "- N/A -   "
21.04, 739.416, 0.0352509, NaN, NaN, NaN, 0.0323506, "- N/A -   "
21.07, 740.717, 0.0353008, NaN, NaN, NaN, 0.0323506, "- N/A -   "
21.1, 742.0186, 0.03535916, NaN, NaN, NaN, 0.0299091, "- N/A -   "
21.13, 743.32, 0.0354147, NaN, NaN, NaN, 0.0274675, "- N/A -   "
21.16, 744.6208, 0.0354647, NaN, NaN, NaN, 0.0262467, "- N/A -   "
21.19, 745.8036, 0.03551188, NaN, NaN, NaN, 0.0274675, "- N/A -   "
21.22, 746.9864, 0.03556186, NaN, NaN, NaN, 0.0274675, "- N/A -   "
21.25, 748.1692, 0.03561184, NaN, NaN, NaN, 0.0274675, "- N/A -   "
21.28, 749.1154, 0.0356535, NaN, NaN, NaN, 0.03112983, "- N/A -   "
21.31, 750.2983, 0.0357007, NaN, NaN, NaN, 0.0323506, "- N/A -   "
21.34, 751.363, 0.03574235, NaN, NaN, NaN, 0.03601294, "- N/A -   "
21.37, 752.3091, 0.0357868, NaN, NaN, NaN, 0.0384545, "- N/A -   "
21.4, 753.374, 0.0358312, NaN, NaN, NaN, 0.04211683, "- N/A -   "
21.43, 754.556, 0.0358756, NaN, NaN, NaN, 0.0433376, "- N/A -   "
21.46, 755.6209, 0.0359228, NaN, NaN, NaN, 0.0445584, "- N/A -   "
21.49, 756.922, 0.0359756, NaN, NaN, NaN, 0.0433376, "- N/A -   "
21.52, 758.2231, 0.03602558, NaN, NaN, NaN, 0.0433376, "- N/A -   "
21.55, 759.4059, 0.0360728, NaN, NaN, NaN, 0.0445584, "- N/A -   "
21.58, 760.5887, 0.03612554, NaN, NaN, NaN, 0.0433376, "- N/A -   "
21.61, 761.8898, 0.0361783, NaN, NaN, NaN, 0.04211683, "- N/A -   "
21.64, 763.309, 0.03623106, NaN, NaN, NaN, 0.04211683, "- N/A -   "
21.67, 764.847, 0.0362921, NaN, NaN, NaN, 0.0372337, "- N/A -   "
21.7, 766.2662, 0.03635046, NaN, NaN, NaN, 0.0335714, "- N/A -   "
21.73, 767.6855, 0.03640599, NaN, NaN, NaN, 0.03112983, "- N/A -   "
21.76, 768.987, 0.0364588, NaN, NaN, NaN, 0.0299091, "- N/A -   "
21.79, 770.1694, 0.036506, NaN, NaN, NaN, 0.03112983, "- N/A -   "
21.82, 771.352, 0.03655594, NaN, NaN, NaN, 0.03112983, "- N/A -   "
21.85, 772.417, 0.03660314, NaN, NaN, NaN, 0.0323506, "- N/A -   "
21.88, 773.4813, 0.0366531, NaN, NaN, NaN, 0.0335714, "- N/A -   "
21.91, 774.782, 0.03669755, NaN, NaN, NaN, 0.0347922, "- N/A -   "
21.94, 775.8469, 0.03674476, NaN, NaN, NaN, 0.03601294, "- N/A -   "
21.97, 777.148, 0.0367947, NaN, NaN, NaN, 0.03601294, "- N/A -   "
22, 778.3308, 0.03684472, NaN, NaN, NaN, 0.0372337, "- N/A -   "
22.03, 779.3953, 0.03688915, NaN, NaN, NaN, 0.0384545, "- N/A -   "
22.06, 780.6964, 0.03693913, NaN, NaN, NaN, 0.0384545, "- N/A -   "
22.09, 781.8792, 0.0369836, NaN, NaN, NaN, 0.04089605, "- N/A -   "
22.12, 782.7072, 0.03702521, NaN, NaN, NaN, 0.0445584, "- N/A -   "
22.15, 783.89, 0.03707519, NaN, NaN, NaN, 0.0445584, "- N/A -   "
22.18, 785.1911, 0.0371224, NaN, NaN, NaN, 0.04577916, "- N/A -   "
22.21, 786.3739, 0.0371724, NaN, NaN, NaN, 0.04577916, "- N/A -   "
22.24, 787.675, 0.03722791, NaN, NaN, NaN, 0.0433376, "- N/A -   "
22.27, 789.213, 0.0372834, NaN, NaN, NaN, 0.04089605, "- N/A -   "
22.3, 790.632, 0.03734176, NaN, NaN, NaN, 0.0372337, "- N/A -   "
22.33, 791.9331, 0.03739729, NaN, NaN, NaN, 0.0347922, "- N/A -   "
22.36, 793.3525, 0.03745283, NaN, NaN, NaN, 0.0335714, "- N/A -   "
22.39, 794.654, 0.03750281, NaN, NaN, NaN, 0.0323506, "- N/A -   "
22.42, 795.836, 0.0375556, NaN, NaN, NaN, 0.03112983, "- N/A -   "
22.45, 797.0192, 0.03760555, NaN, NaN, NaN, 0.0323506, "- N/A -   "
22.48, 798.0837, 0.03765, NaN, NaN, NaN, 0.0335714, "- N/A -   "
22.51, 799.267, 0.0376972, NaN, NaN, NaN, 0.0347922, "- N/A -   "
22.54, 800.449, 0.0377444, NaN, NaN, NaN, 0.03601294, "- N/A -   "
22.57, 801.7504, 0.0377971, NaN, NaN, NaN, 0.0347922, "- N/A -   "
22.6, 803.2881, 0.0378527, NaN, NaN, NaN, 0.0323506, "- N/A -   "
22.63, 804.4709, 0.03790544, NaN, NaN, NaN, 0.03112983, "- N/A -   "
22.66, 805.5354, 0.0379499, NaN, NaN, NaN, 0.0335714, "- N/A -   "
22.69, 806.7182, 0.03799707, NaN, NaN, NaN, 0.0347922, "- N/A -   "
22.72, 807.7828, 0.0380415, NaN, NaN, NaN, 0.0372337, "- N/A -   "
22.75, 808.9655, 0.0380887, NaN, NaN, NaN, 0.0384545, "- N/A -   "
22.78, 809.9118, 0.0381331, NaN, NaN, NaN, 0.04089605, "- N/A -   "
22.81, 811.0946, 0.03817756, NaN, NaN, NaN, 0.0433376, "- N/A -   "
22.84, 812.3957, 0.0382331, NaN, NaN, NaN, 0.04211683, "- N/A -   "
22.87, 813.6968, 0.03828308, NaN, NaN, NaN, 0.04089605, "- N/A -   "
22.9, 814.88, 0.03833306, NaN, NaN, NaN, 0.04089605, "- N/A -   "
22.93, 816.181, 0.03838304, NaN, NaN, NaN, 0.04089605, "- N/A -   "
22.96, 817.4818, 0.0384358, NaN, NaN, NaN, 0.0396753, "- N/A -   "
22.99, 818.783, 0.0384858, NaN, NaN, NaN, 0.0396753, "- N/A -   "
23.02, 819.9657, 0.03853854, NaN, NaN, NaN, 0.0384545, "- N/A -   "
23.05, 821.2667, 0.03858852, NaN, NaN, NaN, 0.0384545, "- N/A -   "
23.08, 822.4495, 0.0386385, NaN, NaN, NaN, 0.0384545, "- N/A -   "
23.11, 823.6324, 0.03868849, NaN, NaN, NaN, 0.0384545, "- N/A -   "
23.14, 824.9334, 0.0387412, NaN, NaN, NaN, 0.0372337, "- N/A -   "
23.17, 826.353, 0.0387912, NaN, NaN, NaN, 0.0372337, "- N/A -   "
23.2, 827.5356, 0.03884676, NaN, NaN, NaN, 0.0347922, "- N/A -   "
23.23, 828.837, 0.0388967, NaN, NaN, NaN, 0.0347922, "- N/A -   "
23.26, 830.1378, 0.0389495, NaN, NaN, NaN, 0.0347922, "- N/A -   "
23.29, 831.4389, 0.0389995, NaN, NaN, NaN, 0.0335714, "- N/A -   "
23.32, 832.6217, 0.0390467, NaN, NaN, NaN, 0.0347922, "- N/A -   "
23.35, 833.6863, 0.03909667, NaN, NaN, NaN, 0.0347922, "- N/A -   "
23.38, 835.1056, 0.0391522, NaN, NaN, NaN, 0.0335714, "- N/A -   "
23.41, 836.407, 0.03920496, NaN, NaN, NaN, 0.03112983, "- N/A -   "
23.44, 837.5895, 0.0392549, NaN, NaN, NaN, 0.03112983, "- N/A -   "
23.47, 838.536, 0.0392938, NaN, NaN, NaN, 0.03601294, "- N/A -   "
23.5, 839.482, 0.0393355, NaN, NaN, NaN, 0.0396753, "- N/A -   "
23.53, 840.6648, 0.0393827, NaN, NaN, NaN, 0.04089605, "- N/A -   "
23.56, 841.9659, 0.0394327, NaN, NaN, NaN, 0.04089605, "- N/A -   "
23.59, 843.0304, 0.03947986, NaN, NaN, NaN, 0.04211683, "- N/A -   "
23.62, 844.4498, 0.03952984, NaN, NaN, NaN, 0.04211683, "- N/A -   "
23.65, 845.633, 0.0395826, NaN, NaN, NaN, 0.04089605, "- N/A -   "
23.68, 846.9337, 0.0396326, NaN, NaN, NaN, 0.04089605, "- N/A -   "
23.71, 848.353, 0.0396881, NaN, NaN, NaN, 0.0384545, "- N/A -   "
23.74, 849.772, 0.03974365, NaN, NaN, NaN, 0.03601294, "- N/A -   "
23.77, 850.9552, 0.03979641, NaN, NaN, NaN, 0.0347922, "- N/A -   "
23.8, 852.256, 0.03984639, NaN, NaN, NaN, 0.0347922, "- N/A -   "
23.83, 853.5574, 0.0398964, NaN, NaN, NaN, 0.0347922, "- N/A -   "
23.86, 854.74, 0.0399464, NaN, NaN, NaN, 0.0347922, "- N/A -   "
23.89, 855.923, 0.0399991, NaN, NaN, NaN, 0.0335714, "- N/A -   "
23.92, 857.4607, 0.04005187, NaN, NaN, NaN, 0.0323506, "- N/A -   "
23.95, 858.6435, 0.04010463, NaN, NaN, NaN, 0.03112983, "- N/A -   "
23.98, 860.063, 0.0401629, NaN, NaN, NaN, 0.0274675, "- N/A -   "
24.01, 861.482, 0.04021292, NaN, NaN, NaN, 0.0274675, "- N/A -   "
24.04, 862.4285, 0.04025735, NaN, NaN, NaN, 0.0299091, "- N/A -   "
24.07, 863.73, 0.0403046, NaN, NaN, NaN, 0.03112983, "- N/A -   "
24.1, 864.676, 0.040349, NaN, NaN, NaN, 0.0335714, "- N/A -   "
24.13, 865.6221, 0.0403906, NaN, NaN, NaN, 0.0372337, "- N/A -   "
24.16, 866.5683, 0.04042951, NaN, NaN, NaN, 0.04211683, "- N/A -   "
24.19, 867.6329, 0.0404739, NaN, NaN, NaN, 0.0445584, "- N/A -   "
24.22, 868.6974, 0.04052114, NaN, NaN, NaN, 0.04577916, "- N/A -   "
24.25, 869.9985, 0.0405711, NaN, NaN, NaN, 0.04577916, "- N/A -   "
24.28, 871.3, 0.0406239, NaN, NaN, NaN, 0.0445584, "- N/A -   "
24.31, 872.601, 0.0406766, NaN, NaN, NaN, 0.0433376, "- N/A -   "
24.34, 874.02, 0.0407294, NaN, NaN, NaN, 0.04211683, "- N/A -   "
24.37, 875.3211, 0.0407822, NaN, NaN, NaN, 0.04089605, "- N/A -   "
24.4, 876.7405, 0.0408405, NaN, NaN, NaN, 0.0372337, "- N/A -   "
24.43, 878.042, 0.04089323, NaN, NaN, NaN, 0.03601294, "- N/A -   "
24.46, 879.343, 0.04094599, NaN, NaN, NaN, 0.0347922, "- N/A -   "
24.49, 880.525, 0.040996, NaN, NaN, NaN, 0.0347922, "- N/A -   "
24.52, 881.827, 0.0410487, NaN, NaN, NaN, 0.0335714, "- N/A -   "
24.55, 883.1276, 0.0411015, NaN, NaN, NaN, 0.0323506, "- N/A -   "
24.58, 884.4287, 0.0411515, NaN, NaN, NaN, 0.0323506, "- N/A -   "
24.61, 885.6116, 0.0412014, NaN, NaN, NaN, 0.0323506, "- N/A -   "
24.64, 887.0309, 0.0412542, NaN, NaN, NaN, 0.03112983, "- N/A -   "
24.67, 888.332, 0.04130696, NaN, NaN, NaN, 0.0299091, "- N/A -   "
24.7, 889.5148, 0.04135417, NaN, NaN, NaN, 0.03112983, "- N/A -   "
24.73, 890.579, 0.04140137, NaN, NaN, NaN, 0.0323506, "- N/A -   "
24.76, 891.644, 0.0414458, NaN, NaN, NaN, 0.03601294, "- N/A -   "
24.79, 892.7084, 0.04148745, NaN, NaN, NaN, 0.0384545, "- N/A -   "
24.82, 893.773, 0.0415347, NaN, NaN, NaN, 0.0396753, "- N/A -   "
24.85, 894.7191, 0.0415791, NaN, NaN, NaN, 0.04211683, "- N/A -   "
24.88, 896.02, 0.04162629, NaN, NaN, NaN, 0.0445584, "- N/A -   "
24.91, 897.203, 0.0416763, NaN, NaN, NaN, 0.0433376, "- N/A -   "
24.94, 898.386, 0.0417263, NaN, NaN, NaN, 0.0433376, "- N/A -   "
24.97, 899.687, 0.0417762, NaN, NaN, NaN, 0.0433376, "- N/A -   "
25, 901.1063, 0.04183177, NaN, NaN, NaN, 0.04089605, "- N/A -   "
25.03, 902.4074, 0.0418845, NaN, NaN, NaN, 0.0396753, "- N/A -   "
25.06, 903.8268, 0.04194284, NaN, NaN, NaN, 0.03601294, "- N/A -   "
25.09, 905.246, 0.0419956, NaN, NaN, NaN, 0.0347922, "- N/A -   "
25.12, 906.6655, 0.0420539, NaN, NaN, NaN, 0.0323506, "- N/A -   "
25.15, 907.9666, 0.0421067, NaN, NaN, NaN, 0.0299091, "- N/A -   "
25.18, 909.2677, 0.0421566, NaN, NaN, NaN, 0.0299091, "- N/A -   "
25.21, 910.5688, 0.0422094, NaN, NaN, NaN, 0.0299091, "- N/A -   "
25.24, 911.8699, 0.0422622, NaN, NaN, NaN, 0.0274675, "- N/A -   "
25.27, 913.171, 0.04231215, NaN, NaN, NaN, 0.0274675, "- N/A -   "
25.3, 914.236, 0.0423538, NaN, NaN, NaN, 0.03112983, "- N/A -   "
25.33, 915.3, 0.042401, NaN, NaN, NaN, 0.0335714, "- N/A -   "
25.36, 916.483, 0.04244543, NaN, NaN, NaN, 0.0347922, "- N/A -   "
25.39, 917.784, 0.04249541, NaN, NaN, NaN, 0.0347922, "- N/A -   "
25.42, 918.9667, 0.0425454, NaN, NaN, NaN, 0.0347922, "- N/A -   "
25.45, 920.15, 0.0425954, NaN, NaN, NaN, 0.0347922, "- N/A -   "
25.48, 921.214, 0.04264258, NaN, NaN, NaN, 0.03601294, "- N/A -   "
25.51, 922.3969, 0.04268701, NaN, NaN, NaN, 0.0384545, "- N/A -   "
25.54, 923.58, 0.0427314, NaN, NaN, NaN, 0.04089605, "- N/A -   "
25.57, 924.526, 0.04277864, NaN, NaN, NaN, 0.04211683, "- N/A -   "
25.6, 925.709, 0.0428203, NaN, NaN, NaN, 0.04577916, "- N/A -   "
25.63, 926.8916, 0.0428703, NaN, NaN, NaN, 0.04577916, "- N/A -   "
25.66, 928.3109, 0.04292581, NaN, NaN, NaN, 0.0433376, "- N/A -   "
25.664, 928.4292, 0.0429341, NaN, NaN, NaN, 0.0433376, "- N/A -   "