File: 2_Tensile_Data/Hamel_ForceTest_Bolt3_Test11.csv
Time, Load (lb), Position (in), AxialStrain (in), TransverseStrain (in), Auxiliary (), Control Out (V), Stress (psi)
0.0, 10.8512, 0.0, NaN, NaN, NaN, -0.007935055, "- N/A -   "
0.01, 10.9691, 0.0, NaN, NaN, NaN, -6.103888E-4, "- N/A -   "
0.02, 10.9691, 0.0, NaN, NaN, NaN, 0.007935055, "- N/A -   "
0.03, 10.9691, 2.776752E-6, NaN, NaN, NaN, 0.0262467, "- N/A -   "
0.04, 11.0871, 5.553504E-6, NaN, NaN, NaN, 0.0445584, "- N/A -   "
0.05, 11.205, 1.66605e-05, NaN, NaN, NaN, 0.0592077, "- N/A -   "
0.06, 11.5589, 3.3321e-05, NaN, NaN, NaN, 0.07141549, "- N/A -   "
0.07, 12.0306, 5.27583e-05, NaN, NaN, NaN, 0.08240249, "- N/A -   "
0.08, 12.5024, 8.05258E-5, NaN, NaN, NaN, 0.09094793, "- N/A -   "
0.09, 13.2101, 0.000105517, NaN, NaN, NaN, 0.0982726, "- N/A -   "
0.1, 13.9178, 1.388376E-4, NaN, NaN, NaN, 0.103156, "- N/A -   "
0.11, 14.5075, 0.000169382, NaN, NaN, NaN, 0.095831, "- N/A -   "
0.12, 15.2152, 0.000202703, NaN, NaN, NaN, 0.0897272, "- N/A -   "
0.13, 15.805, 0.000227694, NaN, NaN, NaN, 0.084844, "- N/A -   "
0.14, 16.3947, 0.000255461, NaN, NaN, NaN, 0.0799609, "- N/A -   "
0.15, 16.9844, 2.832287E-4, NaN, NaN, NaN, 0.0762986, "- N/A -   "
0.16, 17.4562, 3.054427E-4, NaN, NaN, NaN, 0.07385705, "- N/A -   "
0.17, 17.8101, 0.00032488, NaN, NaN, NaN, 0.07141549, "- N/A -   "
0.18, 18.2819, 0.000344317, NaN, NaN, NaN, 0.0701947, "- N/A -   "
0.19, 18.7536, 0.000366531, NaN, NaN, NaN, 0.06775316, "- N/A -   "
0.2, 19.1075, 0.000383192, NaN, NaN, NaN, 0.06775316, "- N/A -   "
0.21, 19.4613, 0.000402629, NaN, NaN, NaN, 0.06653238, "- N/A -   "
0.22, 19.6972, 4.192895E-4, NaN, NaN, NaN, 0.06653238, "- N/A -   "
0.23, 20.169, 0.00043595, NaN, NaN, NaN, 0.06653238, "- N/A -   "
0.24, 20.6408, 4.553873E-4, NaN, NaN, NaN, 0.0653116, "- N/A -   "
0.25, 20.99465, 0.000474825, NaN, NaN, NaN, 0.0653116, "- N/A -   "
0.26, 21.3485, 0.000491485, NaN, NaN, NaN, 0.0640908, "- N/A -   "
0.27, 21.7023, 0.000510922, NaN, NaN, NaN, 0.0640908, "- N/A -   "
0.28, 22.0562, 0.00053036, NaN, NaN, NaN, 0.06287005, "- N/A -   "
0.29, 22.528, 0.000549797, NaN, NaN, NaN, 0.0604285, "- N/A -   "
0.3, 22.9998, 5.720109E-4, NaN, NaN, NaN, 0.0592077, "- N/A -   "
0.31, 23.4715, 5.942249E-4, NaN, NaN, NaN, 0.0555454, "- N/A -   "
0.32, 23.9433, 6.164389E-4, NaN, NaN, NaN, 0.0531038, "- N/A -   "
0.33, 24.5331, 0.000638653, NaN, NaN, NaN, 0.05188305, "- N/A -   "
0.34, 25.0049, 0.00065809, NaN, NaN, NaN, 0.0494415, "- N/A -   "
0.35, 25.3587, 0.000677527, NaN, NaN, NaN, 0.0482207, "- N/A -   "
0.36, 25.7125, 6.969647E-4, NaN, NaN, NaN, 0.04699994, "- N/A -   "
0.37, 26.18434, 0.000716402, NaN, NaN, NaN, 0.04577916, "- N/A -   "
0.38, 26.6561, 0.000735839, NaN, NaN, NaN, 0.0445584, "- N/A -   "
0.39, 27.1279, 7.552765E-4, NaN, NaN, NaN, 0.0433376, "- N/A -   "
0.4, 27.3638, 0.000774714, NaN, NaN, NaN, 0.04211683, "- N/A -   "
0.41, 27.7177, 0.000794151, NaN, NaN, NaN, 0.04211683, "- N/A -   "
0.42, 28.1894, 8.108115E-4, NaN, NaN, NaN, 0.04089605, "- N/A -   "
0.43, 28.54329, 8.27472E-4, NaN, NaN, NaN, 0.04089605, "- N/A -   "
0.44, 28.89713, 8.469093E-4, NaN, NaN, NaN, 0.0396753, "- N/A -   "
0.45, 29.251, 8.635698E-4, NaN, NaN, NaN, 0.0396753, "- N/A -   "
0.46, 29.7228, 8.830071E-4, NaN, NaN, NaN, 0.0384545, "- N/A -   "
0.47, 30.1946, 0.000899668, NaN, NaN, NaN, 0.0384545, "- N/A -   "
0.48, 30.5484, 0.000919105, NaN, NaN, NaN, 0.0372337, "- N/A -   "
0.49, 31.0202, 9.385421E-4, NaN, NaN, NaN, 0.03601294, "- N/A -   "
0.5, 31.374, 0.000957979, NaN, NaN, NaN, 0.0347922, "- N/A -   "
0.51, 31.72787, 9.774166E-4, NaN, NaN, NaN, 0.0335714, "- N/A -   "
0.52, 32.1997, 9.968539E-4, NaN, NaN, NaN, 0.0323506, "- N/A -   "
0.53, 32.67145, 0.00101629, NaN, NaN, NaN, 0.0323506, "- N/A -   "
0.54, 32.9073, 0.00103295, NaN, NaN, NaN, 0.03112983, "- N/A -   "
0.55, 33.2612, 0.00104961, NaN, NaN, NaN, 0.03112983, "- N/A -   "
0.56, 33.61503, 0.00106905, NaN, NaN, NaN, 0.03112983, "- N/A -   "
0.57, 34.08682, 0.00108571, NaN, NaN, NaN, 0.0299091, "- N/A -   "
0.58, 34.4407, 0.00110515, NaN, NaN, NaN, 0.0299091, "- N/A -   "
0.59, 34.9125, 0.00112181, NaN, NaN, NaN, 0.0299091, "- N/A -   "
0.6, 35.1483, 0.00113569, NaN, NaN, NaN, 0.0299091, "- N/A -   "
0.61, 35.50219, 0.00115513, NaN, NaN, NaN, 0.0299091, "- N/A -   "
0.62, 35.85603, 0.00116901, NaN, NaN, NaN, 0.0299091, "- N/A -   "
0.63, 36.2099, 0.001185673, NaN, NaN, NaN, 0.0299091, "- N/A -   "
0.64, 36.5637, 0.00120233, NaN, NaN, NaN, 0.0299091, "- N/A -   "
0.65, 36.79961, 0.001218994, NaN, NaN, NaN, 0.0299091, "- N/A -   "
0.66, 37.15345, 0.00123288, NaN, NaN, NaN, 0.03112983, "- N/A -   "
0.67, 37.5073, 0.00124954, NaN, NaN, NaN, 0.03112983, "- N/A -   "
0.68, 37.8611, 0.00126342, NaN, NaN, NaN, 0.0323506, "- N/A -   "
0.69, 38.097, 0.00127731, NaN, NaN, NaN, 0.0335714, "- N/A -   "
0.7, 38.4509, 0.00129397, NaN, NaN, NaN, 0.0335714, "- N/A -   "
0.71, 38.8047, 0.00130785, NaN, NaN, NaN, 0.0347922, "- N/A -   "
0.72, 39.04061, 0.00132173, NaN, NaN, NaN, 0.03601294, "- N/A -   "
0.73, 39.5124, 0.00133839, NaN, NaN, NaN, 0.03601294, "- N/A -   "
0.74, 39.7483, 0.00135228, NaN, NaN, NaN, 0.0372337, "- N/A -   "
0.75, 40.10214, 0.00136616, NaN, NaN, NaN, 0.0384545, "- N/A -   "
0.76, 40.456, 0.00138005, NaN, NaN, NaN, 0.0396753, "- N/A -   "
0.77, 40.69188, 0.00139671, NaN, NaN, NaN, 0.04089605, "- N/A -   "
0.78, 40.8098, 0.00141059, NaN, NaN, NaN, 0.04211683, "- N/A -   "
0.79, 41.16367, 0.00142447, NaN, NaN, NaN, 0.04211683, "- N/A -   "
0.8, 41.6355, 0.00143836, NaN, NaN, NaN, 0.0433376, "- N/A -   "
0.81, 41.8714, 0.001455018, NaN, NaN, NaN, 0.0433376, "- N/A -   "
0.82, 42.2252, 0.00147168, NaN, NaN, NaN, 0.0445584, "- N/A -   "
0.83, 42.579, 0.00148834, NaN, NaN, NaN, 0.0433376, "- N/A -   "
0.84, 42.93288, 0.00150222, NaN, NaN, NaN, 0.0445584, "- N/A -   "
0.85, 43.40467, 0.00152166, NaN, NaN, NaN, 0.0445584, "- N/A -   "
0.86, 43.6406, 0.00153554, NaN, NaN, NaN, 0.0445584, "- N/A -   "
0.87, 43.9944, 0.0015522, NaN, NaN, NaN, 0.04577916, "- N/A -   "
0.88, 44.34825, 0.00156609, NaN, NaN, NaN, 0.04577916, "- N/A -   "
0.89, 44.70209, 0.00158553, NaN, NaN, NaN, 0.0445584, "- N/A -   "
0.9, 45.17388, 0.00160219, NaN, NaN, NaN, 0.0445584, "- N/A -   "
0.91, 45.5277, 0.001621623, NaN, NaN, NaN, 0.0445584, "- N/A -   "
0.92, 45.8816, 0.00164106, NaN, NaN, NaN, 0.0433376, "- N/A -   "
0.93, 46.23541, 0.00165772, NaN, NaN, NaN, 0.04211683, "- N/A -   "
0.94, 46.7072, 0.00167438, NaN, NaN, NaN, 0.04211683, "- N/A -   "
0.95, 47.179, 0.00169104, NaN, NaN, NaN, 0.04211683, "- N/A -   "
0.96, 47.4149, 0.0017077, NaN, NaN, NaN, 0.04211683, "- N/A -   "
0.97, 47.8867, 0.00172714, NaN, NaN, NaN, 0.04089605, "- N/A -   "
0.98, 48.2405, 0.00174658, NaN, NaN, NaN, 0.04089605, "- N/A -   "
0.99, 48.59436, 0.00176324, NaN, NaN, NaN, 0.0396753, "- N/A -   "
1, 49.0661, 0.001779898, NaN, NaN, NaN, 0.0396753, "- N/A -   "
1.01, 49.41999, 0.00179934, NaN, NaN, NaN, 0.0384545, "- N/A -   "
1.02, 49.7738, 0.00181877, NaN, NaN, NaN, 0.0384545, "- N/A -   "
1.03, 50.2456, 0.001835433, NaN, NaN, NaN, 0.0372337, "- N/A -   "
1.04, 50.5995, 0.00185487, NaN, NaN, NaN, 0.03601294, "- N/A -   "
1.05, 51.0713, 0.00187153, NaN, NaN, NaN, 0.03601294, "- N/A -   "
1.06, 51.4251, 0.001890968, NaN, NaN, NaN, 0.0347922, "- N/A -   "
1.07, 51.89689, 0.00191041, NaN, NaN, NaN, 0.0335714, "- N/A -   "
1.08, 52.25073, 0.00192984, NaN, NaN, NaN, 0.0323506, "- N/A -   "
1.09, 52.72252, 0.00195206, NaN, NaN, NaN, 0.03112983, "- N/A -   "
1.1, 53.19431, 0.00197149, NaN, NaN, NaN, 0.0299091, "- N/A -   "
1.11, 53.784, 0.001990931, NaN, NaN, NaN, 0.0274675, "- N/A -   "
1.12, 54.13789, 0.00200759, NaN, NaN, NaN, 0.0274675, "- N/A -   "
1.13, 54.6097, 0.00202703, NaN, NaN, NaN, 0.0274675, "- N/A -   "
1.14, 54.8456, 0.00204369, NaN, NaN, NaN, 0.0274675, "- N/A -   "
1.15, 55.3174, 0.00206035, NaN, NaN, NaN, 0.0274675, "- N/A -   "
1.16, 55.55326, 0.00207423, NaN, NaN, NaN, 0.0274675, "- N/A -   "
1.17, 56.02505, 0.00208812, NaN, NaN, NaN, 0.0286883, "- N/A -   "
1.18, 56.37889, 0.00210755, NaN, NaN, NaN, 0.0286883, "- N/A -   "
1.19, 56.73273, 0.00212422, NaN, NaN, NaN, 0.0274675, "- N/A -   "
1.2, 57.08658, 0.00214088, NaN, NaN, NaN, 0.0274675, "- N/A -   "
1.21, 57.44042, 0.00215476, NaN, NaN, NaN, 0.0286883, "- N/A -   "
1.22, 57.6763, 0.00217142, NaN, NaN, NaN, 0.0299091, "- N/A -   "
1.23, 58.1481, 0.0021853, NaN, NaN, NaN, 0.0299091, "- N/A -   "
1.24, 58.5019, 0.00219919, NaN, NaN, NaN, 0.03112983, "- N/A -   "
1.25, 58.7378, 0.00221585, NaN, NaN, NaN, 0.03112983, "- N/A -   "
1.26, 58.9737, 0.00223251, NaN, NaN, NaN, 0.0323506, "- N/A -   "
1.27, 59.4455, 0.00224639, NaN, NaN, NaN, 0.0323506, "- N/A -   "
1.28, 59.79937, 0.002260276, NaN, NaN, NaN, 0.0335714, "- N/A -   "
1.29, 60.0353, 0.00227694, NaN, NaN, NaN, 0.0335714, "- N/A -   "
1.3, 60.3891, 0.002293597, NaN, NaN, NaN, 0.0347922, "- N/A -   "
1.31, 60.7429, 0.00230748, NaN, NaN, NaN, 0.0347922, "- N/A -   "
1.32, 61.2147, 0.00232414, NaN, NaN, NaN, 0.0347922, "- N/A -   "
1.33, 61.45063, 0.0023408, NaN, NaN, NaN, 0.0347922, "- N/A -   "
1.34, 61.9224, 0.00235746, NaN, NaN, NaN, 0.0347922, "- N/A -   "
1.35, 62.1583, 0.00237412, NaN, NaN, NaN, 0.03601294, "- N/A -   "
1.36, 62.6301, 0.00238801, NaN, NaN, NaN, 0.03601294, "- N/A -   "
1.37, 62.866, 0.002404667, NaN, NaN, NaN, 0.03601294, "- N/A -   "
1.38, 63.2198, 0.00242133, NaN, NaN, NaN, 0.0372337, "- N/A -   "
1.39, 63.5737, 0.00243521, NaN, NaN, NaN, 0.0372337, "- N/A -   "
1.4, 63.92753, 0.00245187, NaN, NaN, NaN, 0.0384545, "- N/A -   "
1.41, 64.28137, 0.00246853, NaN, NaN, NaN, 0.0384545, "- N/A -   "
1.42, 64.6352, 0.002482416, NaN, NaN, NaN, 0.0384545, "- N/A -   "
1.43, 65.107, 0.00249908, NaN, NaN, NaN, 0.0384545, "- N/A -   "
1.44, 65.4608, 0.00251296, NaN, NaN, NaN, 0.0396753, "- N/A -   "
1.45, 65.69674, 0.00252962, NaN, NaN, NaN, 0.0396753, "- N/A -   "
1.46, 66.05058, 0.00254628, NaN, NaN, NaN, 0.0396753, "- N/A -   "
1.47, 66.40443, 0.00256017, NaN, NaN, NaN, 0.04089605, "- N/A -   "
1.48, 66.87622, 0.0025796, NaN, NaN, NaN, 0.04089605, "- N/A -   "
1.49, 67.1121, 0.002593486, NaN, NaN, NaN, 0.04211683, "- N/A -   "
1.5, 67.46596, 0.00260737, NaN, NaN, NaN, 0.0433376, "- N/A -   "
1.51, 67.70185, 0.00262125, NaN, NaN, NaN, 0.0433376, "- N/A -   "
1.52, 68.05569, 0.00263514, NaN, NaN, NaN, 0.0445584, "- N/A -   "
1.53, 68.52748, 0.002651798, NaN, NaN, NaN, 0.0445584, "- N/A -   "
1.54, 68.8813, 0.00266846, NaN, NaN, NaN, 0.0445584, "- N/A -   "
1.55, 69.11722, 0.00268512, NaN, NaN, NaN, 0.0445584, "- N/A -   "
1.56, 69.47106, 0.002699, NaN, NaN, NaN, 0.04577916, "- N/A -   "
1.57, 69.8249, 0.00271289, NaN, NaN, NaN, 0.04699994, "- N/A -   "
1.58, 70.17874, 0.00272955, NaN, NaN, NaN, 0.04699994, "- N/A -   "
1.59, 70.5326, 0.00274621, NaN, NaN, NaN, 0.0482207, "- N/A -   "
1.6, 70.88643, 0.00276009, NaN, NaN, NaN, 0.0482207, "- N/A -   "
1.61, 71.3582, 0.00277675, NaN, NaN, NaN, 0.0482207, "- N/A -   "
1.62, 71.71206, 0.00279619, NaN, NaN, NaN, 0.0482207, "- N/A -   "
1.63, 72.1838, 0.00281285, NaN, NaN, NaN, 0.04699994, "- N/A -   "
1.64, 72.5377, 0.00283229, NaN, NaN, NaN, 0.04699994, "- N/A -   "
1.65, 73.00948, 0.00285172, NaN, NaN, NaN, 0.04577916, "- N/A -   "
1.66, 73.59922, 0.00287394, NaN, NaN, NaN, 0.0433376, "- N/A -   "
1.67, 73.9531, 0.0028906, NaN, NaN, NaN, 0.04211683, "- N/A -   "
1.68, 74.5428, 0.00291559, NaN, NaN, NaN, 0.0396753, "- N/A -   "
1.69, 75.0146, 0.00293503, NaN, NaN, NaN, 0.0372337, "- N/A -   "
1.7, 75.48638, 0.002954464, NaN, NaN, NaN, 0.03601294, "- N/A -   "
1.71, 75.95817, 0.0029739, NaN, NaN, NaN, 0.0347922, "- N/A -   "
1.72, 76.43, 0.00299334, NaN, NaN, NaN, 0.0335714, "- N/A -   "
1.73, 76.7838, 0.003012776, NaN, NaN, NaN, 0.0323506, "- N/A -   "
1.74, 77.25559, 0.00302944, NaN, NaN, NaN, 0.0323506, "- N/A -   "
1.75, 77.72738, 0.0030461, NaN, NaN, NaN, 0.0323506, "- N/A -   "
1.76, 78.08122, 0.003065534, NaN, NaN, NaN, 0.0323506, "- N/A -   "
1.77, 78.4351, 0.00307942, NaN, NaN, NaN, 0.0323506, "- N/A -   "
1.78, 78.78891, 0.003098855, NaN, NaN, NaN, 0.03112983, "- N/A -   "
1.79, 79.14275, 0.00311552, NaN, NaN, NaN, 0.03112983, "- N/A -   "
1.8, 79.61454, 0.00313218, NaN, NaN, NaN, 0.03112983, "- N/A -   "
1.81, 79.85043, 0.00314606, NaN, NaN, NaN, 0.0323506, "- N/A -   "
1.82, 80.20428, 0.00316272, NaN, NaN, NaN, 0.0323506, "- N/A -   "
1.83, 80.55813, 0.003179381, NaN, NaN, NaN, 0.0335714, "- N/A -   "
1.84, 81.0299, 0.00319604, NaN, NaN, NaN, 0.0335714, "- N/A -   "
1.85, 81.26581, 0.003209925, NaN, NaN, NaN, 0.0335714, "- N/A -   "
1.86, 81.7376, 0.00322659, NaN, NaN, NaN, 0.0335714, "- N/A -   "
1.87, 81.97349, 0.00324047, NaN, NaN, NaN, 0.0347922, "- N/A -   "
1.88, 82.32734, 0.00325713, NaN, NaN, NaN, 0.0347922, "- N/A -   "
1.89, 82.68118, 0.00327379, NaN, NaN, NaN, 0.03601294, "- N/A -   "
1.9, 83.15297, 0.00329045, NaN, NaN, NaN, 0.03601294, "- N/A -   "
1.91, 83.38886, 0.00330433, NaN, NaN, NaN, 0.03601294, "- N/A -   "
1.92, 83.86065, 0.003321, NaN, NaN, NaN, 0.03601294, "- N/A -   "
1.93, 84.21449, 0.00333766, NaN, NaN, NaN, 0.03601294, "- N/A -   "
1.94, 84.68629, 0.003357093, NaN, NaN, NaN, 0.03601294, "- N/A -   "
1.95, 85.15807, 0.00337375, NaN, NaN, NaN, 0.0347922, "- N/A -   "
1.96, 85.51192, 0.00339041, NaN, NaN, NaN, 0.0347922, "- N/A -   "
1.97, 85.86576, 0.003409851, NaN, NaN, NaN, 0.0347922, "- N/A -   "
1.98, 86.2196, 0.00342651, NaN, NaN, NaN, 0.0335714, "- N/A -   "
1.99, 86.69139, 0.00344595, NaN, NaN, NaN, 0.0335714, "- N/A -   "
2, 87.16318, 0.00346261, NaN, NaN, NaN, 0.0323506, "- N/A -   "
2.01, 87.63497, 0.00347927, NaN, NaN, NaN, 0.0323506, "- N/A -   "
2.02, 87.9888, 0.00349593, NaN, NaN, NaN, 0.0323506, "- N/A -   "
2.03, 88.34265, 0.00351259, NaN, NaN, NaN, 0.0323506, "- N/A -   "
2.04, 88.6965, 0.00352925, NaN, NaN, NaN, 0.0323506, "- N/A -   "
2.05, 89.16828, 0.00354869, NaN, NaN, NaN, 0.0323506, "- N/A -   "
2.06, 89.40418, 0.00356257, NaN, NaN, NaN, 0.0323506, "- N/A -   "
2.07, 89.87598, 0.00357923, NaN, NaN, NaN, 0.0323506, "- N/A -   "
2.08, 90.11186, 0.00359589, NaN, NaN, NaN, 0.0335714, "- N/A -   "
2.09, 90.58366, 0.003607, NaN, NaN, NaN, 0.0347922, "- N/A -   "
2.1, 90.9375, 0.00362366, NaN, NaN, NaN, 0.0347922, "- N/A -   "
2.11, 91.1734, 0.00363754, NaN, NaN, NaN, 0.03601294, "- N/A -   "
2.12, 91.64519, 0.00365421, NaN, NaN, NaN, 0.03601294, "- N/A -   "
2.13, 91.99903, 0.00366809, NaN, NaN, NaN, 0.0372337, "- N/A -   "
2.14, 92.47082, 0.00368197, NaN, NaN, NaN, 0.0384545, "- N/A -   "
2.15, 92.70671, 0.00369863, NaN, NaN, NaN, 0.0396753, "- N/A -   "
2.16, 93.0606, 0.00370974, NaN, NaN, NaN, 0.04089605, "- N/A -   "
2.17, 93.41439, 0.003726401, NaN, NaN, NaN, 0.04089605, "- N/A -   "
2.18, 93.76824, 0.00374306, NaN, NaN, NaN, 0.04089605, "- N/A -   "
2.19, 94.1221, 0.003759722, NaN, NaN, NaN, 0.04089605, "- N/A -   "
2.2, 94.59387, 0.00377638, NaN, NaN, NaN, 0.04211683, "- N/A -   "
2.21, 94.8298, 0.003793043, NaN, NaN, NaN, 0.04089605, "- N/A -   "
2.22, 95.30156, 0.0038097, NaN, NaN, NaN, 0.04089605, "- N/A -   "
2.23, 95.7733, 0.003826364, NaN, NaN, NaN, 0.04089605, "- N/A -   "
2.24, 96.12719, 0.00384302, NaN, NaN, NaN, 0.04089605, "- N/A -   "
2.25, 96.481, 0.003862462, NaN, NaN, NaN, 0.04089605, "- N/A -   "
2.26, 96.95282, 0.00387912, NaN, NaN, NaN, 0.04089605, "- N/A -   "
2.27, 97.30666, 0.00389578, NaN, NaN, NaN, 0.04089605, "- N/A -   "
2.28, 97.77845, 0.00391244, NaN, NaN, NaN, 0.04089605, "- N/A -   "
2.29, 98.2502, 0.003926327, NaN, NaN, NaN, 0.04089605, "- N/A -   "
2.3, 98.60408, 0.00394299, NaN, NaN, NaN, 0.04089605, "- N/A -   "
2.31, 98.83998, 0.003962425, NaN, NaN, NaN, 0.04089605, "- N/A -   "
2.32, 99.3118, 0.00397909, NaN, NaN, NaN, 0.0396753, "- N/A -   "
2.33, 99.7836, 0.00399852, NaN, NaN, NaN, 0.0396753, "- N/A -   "
2.34, 100.255, 0.00401796, NaN, NaN, NaN, 0.0384545, "- N/A -   "
2.35, 100.727, 0.00403462, NaN, NaN, NaN, 0.0372337, "- N/A -   "
2.36, 101.199, 0.00405406, NaN, NaN, NaN, 0.03601294, "- N/A -   "
2.37, 101.553, 0.00407072, NaN, NaN, NaN, 0.03601294, "- N/A -   "
2.38, 101.907, 0.00409016, NaN, NaN, NaN, 0.03601294, "- N/A -   "
2.39, 102.3784, 0.004106816, NaN, NaN, NaN, 0.03601294, "- N/A -   "
2.4, 102.732, 0.004123477, NaN, NaN, NaN, 0.0347922, "- N/A -   "
2.41, 103.086, 0.004140137, NaN, NaN, NaN, 0.0347922, "- N/A -   "
2.42, 103.558, 0.0041568, NaN, NaN, NaN, 0.0347922, "- N/A -   "
2.43, 103.912, 0.004173458, NaN, NaN, NaN, 0.03601294, "- N/A -   "
2.44, 104.384, 0.004187342, NaN, NaN, NaN, 0.03601294, "- N/A -   "
2.45, 104.737, 0.004206779, NaN, NaN, NaN, 0.0347922, "- N/A -   "
2.46, 105.091, 0.00422344, NaN, NaN, NaN, 0.0347922, "- N/A -   "
2.47, 105.563, 0.0042401, NaN, NaN, NaN, 0.0347922, "- N/A -   "
2.48, 105.799, 0.004253984, NaN, NaN, NaN, 0.03601294, "- N/A -   "
2.49, 106.389, 0.00427064, NaN, NaN, NaN, 0.03601294, "- N/A -   "
2.5, 106.625, 0.004287305, NaN, NaN, NaN, 0.03601294, "- N/A -   "
2.51, 106.978, 0.00430397, NaN, NaN, NaN, 0.03601294, "- N/A -   "
2.52, 107.45, 0.00432063, NaN, NaN, NaN, 0.03601294, "- N/A -   "
2.53, 107.804, 0.004337286, NaN, NaN, NaN, 0.03601294, "- N/A -   "
2.54, 108.158, 0.004353947, NaN, NaN, NaN, 0.03601294, "- N/A -   "
2.55, 108.63, 0.004373384, NaN, NaN, NaN, 0.03601294, "- N/A -   "
2.56, 109.101, 0.00439282, NaN, NaN, NaN, 0.0347922, "- N/A -   "
2.57, 109.5732, 0.004412259, NaN, NaN, NaN, 0.0335714, "- N/A -   "
2.58, 110.045, 0.00442892, NaN, NaN, NaN, 0.0323506, "- N/A -   "
2.59, 110.399, 0.00444558, NaN, NaN, NaN, 0.0323506, "- N/A -   "
2.6, 110.871, 0.004465017, NaN, NaN, NaN, 0.03112983, "- N/A -   "
2.61, 111.224, 0.00448168, NaN, NaN, NaN, 0.0323506, "- N/A -   "
2.62, 111.696, 0.004498338, NaN, NaN, NaN, 0.03112983, "- N/A -   "
2.63, 112.0501, 0.004515, NaN, NaN, NaN, 0.03112983, "- N/A -   "
2.64, 112.522, 0.004531659, NaN, NaN, NaN, 0.03112983, "- N/A -   "
2.65, 112.876, 0.00454832, NaN, NaN, NaN, 0.03112983, "- N/A -   "
2.66, 113.348, 0.00456498, NaN, NaN, NaN, 0.03112983, "- N/A -   "
2.67, 113.701, 0.00458164, NaN, NaN, NaN, 0.03112983, "- N/A -   "
2.68, 114.055, 0.004598301, NaN, NaN, NaN, 0.0323506, "- N/A -   "
2.69, 114.409, 0.00461496, NaN, NaN, NaN, 0.0323506, "- N/A -   "
2.7, 114.763, 0.00462885, NaN, NaN, NaN, 0.0323506, "- N/A -   "
2.71, 115.117, 0.004645506, NaN, NaN, NaN, 0.0323506, "- N/A -   "
2.72, 115.471, 0.00466217, NaN, NaN, NaN, 0.0335714, "- N/A -   "
2.73, 115.824, 0.00467605, NaN, NaN, NaN, 0.0335714, "- N/A -   "
2.74, 116.178, 0.00469271, NaN, NaN, NaN, 0.0335714, "- N/A -   "
2.75, 116.65, 0.004709371, NaN, NaN, NaN, 0.0347922, "- N/A -   "
2.76, 117.004, 0.004723255, NaN, NaN, NaN, 0.0347922, "- N/A -   "
2.77, 117.476, 0.004742692, NaN, NaN, NaN, 0.0335714, "- N/A -   "
2.78, 117.947, 0.00475935, NaN, NaN, NaN, 0.0335714, "- N/A -   "
2.79, 118.301, 0.004776013, NaN, NaN, NaN, 0.0335714, "- N/A -   "
2.8, 118.655, 0.00479267, NaN, NaN, NaN, 0.0335714, "- N/A -   "
2.81, 119.127, 0.004809334, NaN, NaN, NaN, 0.0335714, "- N/A -   "
2.82, 119.481, 0.004825995, NaN, NaN, NaN, 0.0335714, "- N/A -   "
2.83, 119.835, 0.00484266, NaN, NaN, NaN, 0.0335714, "- N/A -   "
2.84, 120.188, 0.004856539, NaN, NaN, NaN, 0.0347922, "- N/A -   "
2.85, 120.424, 0.004870423, NaN, NaN, NaN, 0.03601294, "- N/A -   "
2.86, 120.778, 0.004887083, NaN, NaN, NaN, 0.0372337, "- N/A -   "
2.87, 121.132, 0.00490097, NaN, NaN, NaN, 0.0372337, "- N/A -   "
2.88, 121.604, 0.004914851, NaN, NaN, NaN, 0.0384545, "- N/A -   "
2.89, 121.958, 0.00493151, NaN, NaN, NaN, 0.0384545, "- N/A -   "
2.9, 122.194, 0.004948172, NaN, NaN, NaN, 0.0396753, "- N/A -   "
2.91, 122.665, 0.00496206, NaN, NaN, NaN, 0.0396753, "- N/A -   "
2.92, 123.019, 0.004975939, NaN, NaN, NaN, 0.04089605, "- N/A -   "
2.93, 123.491, 0.0049926, NaN, NaN, NaN, 0.04089605, "- N/A -   "
2.94, 123.609, 0.00500648, NaN, NaN, NaN, 0.04211683, "- N/A -   "
2.95, 124.081, 0.005023144, NaN, NaN, NaN, 0.0433376, "- N/A -   "
2.96, 124.317, 0.005037028, NaN, NaN, NaN, 0.0445584, "- N/A -   "
2.97, 124.788, 0.00505091, NaN, NaN, NaN, 0.0445584, "- N/A -   "
2.98, 125.024, 0.0050648, NaN, NaN, NaN, 0.04577916, "- N/A -   "
2.99, 125.496, 0.00507868, NaN, NaN, NaN, 0.04699994, "- N/A -   "
3, 125.732, 0.00509534, NaN, NaN, NaN, 0.04699994, "- N/A -   "
3.01, 126.204, 0.005112, NaN, NaN, NaN, 0.04699994, "- N/A -   "
3.02, 126.676, 0.00513144, NaN, NaN, NaN, 0.04699994, "- N/A -   "
3.03, 127.029, 0.0051481, NaN, NaN, NaN, 0.04577916, "- N/A -   "
3.04, 127.501, 0.005167535, NaN, NaN, NaN, 0.0445584, "- N/A -   "
3.05, 127.855, 0.0051842, NaN, NaN, NaN, 0.0445584, "- N/A -   "
3.06, 128.327, 0.005203633, NaN, NaN, NaN, 0.0445584, "- N/A -   "
3.07, 128.799, 0.00522307, NaN, NaN, NaN, 0.0433376, "- N/A -   "
3.08, 129.27, 0.00523973, NaN, NaN, NaN, 0.0433376, "- N/A -   "
3.09, 129.742, 0.00525917, NaN, NaN, NaN, 0.04211683, "- N/A -   "
3.1, 130.332, 0.00527861, NaN, NaN, NaN, 0.04089605, "- N/A -   "
3.11, 130.6858, 0.00529527, NaN, NaN, NaN, 0.0396753, "- N/A -   "
3.12, 131.276, 0.00531748, NaN, NaN, NaN, 0.0372337, "- N/A -   "
3.13, 131.747, 0.00533692, NaN, NaN, NaN, 0.03601294, "- N/A -   "
3.14, 132.219, 0.005356354, NaN, NaN, NaN, 0.03601294, "- N/A -   "
3.15, 132.573, 0.00537301, NaN, NaN, NaN, 0.0347922, "- N/A -   "
3.16, 133.045, 0.00538968, NaN, NaN, NaN, 0.0347922, "- N/A -   "
3.17, 133.399, 0.00540911, NaN, NaN, NaN, 0.0335714, "- N/A -   "
3.18, 133.87, 0.005425773, NaN, NaN, NaN, 0.0335714, "- N/A -   "
3.19, 134.224, 0.00544243, NaN, NaN, NaN, 0.0335714, "- N/A -   "
3.2, 134.578, 0.00546187, NaN, NaN, NaN, 0.0335714, "- N/A -   "
3.21, 135.05, 0.00547575, NaN, NaN, NaN, 0.0335714, "- N/A -   "
3.22, 135.4037, 0.00549242, NaN, NaN, NaN, 0.0335714, "- N/A -   "
3.23, 135.758, 0.00550908, NaN, NaN, NaN, 0.0335714, "- N/A -   "
3.24, 136.229, 0.00552574, NaN, NaN, NaN, 0.0335714, "- N/A -   "
3.25, 136.583, 0.0055424, NaN, NaN, NaN, 0.0335714, "- N/A -   "
3.26, 136.937, 0.00555906, NaN, NaN, NaN, 0.0335714, "- N/A -   "
3.27, 137.291, 0.00557572, NaN, NaN, NaN, 0.0335714, "- N/A -   "
3.28, 137.8806, 0.00559238, NaN, NaN, NaN, 0.0335714, "- N/A -   "
3.29, 138.116, 0.00561182, NaN, NaN, NaN, 0.0335714, "- N/A -   "
3.3, 138.588, 0.0056257, NaN, NaN, NaN, 0.0335714, "- N/A -   "
3.31, 138.942, 0.00564514, NaN, NaN, NaN, 0.0335714, "- N/A -   "
3.32, 139.414, 0.005661797, NaN, NaN, NaN, 0.0335714, "- N/A -   "
3.33, 139.768, 0.00567846, NaN, NaN, NaN, 0.0335714, "- N/A -   "
3.34, 140.357, 0.005697895, NaN, NaN, NaN, 0.0323506, "- N/A -   "
3.35, 140.711, 0.005717332, NaN, NaN, NaN, 0.03112983, "- N/A -   "
3.36, 141.183, 0.00573677, NaN, NaN, NaN, 0.0299091, "- N/A -   "
3.37, 141.6549, 0.00575343, NaN, NaN, NaN, 0.0286883, "- N/A -   "
3.38, 142.009, 0.005772867, NaN, NaN, NaN, 0.0286883, "- N/A -   "
3.39, 142.481, 0.00578953, NaN, NaN, NaN, 0.0274675, "- N/A -   "
3.4, 142.716, 0.005806188, NaN, NaN, NaN, 0.0286883, "- N/A -   "
3.41, 143.188, 0.00582285, NaN, NaN, NaN, 0.0286883, "- N/A -   "
3.42, 143.542, 0.00583673, NaN, NaN, NaN, 0.0286883, "- N/A -   "
3.43, 143.896, 0.00585339, NaN, NaN, NaN, 0.0286883, "- N/A -   "
3.44, 144.368, 0.00587005, NaN, NaN, NaN, 0.0286883, "- N/A -   "
3.45, 144.604, 0.005883937, NaN, NaN, NaN, 0.0299091, "- N/A -   "
3.46, 145.0754, 0.005897821, NaN, NaN, NaN, 0.03112983, "- N/A -   "
3.47, 145.311, 0.0059117, NaN, NaN, NaN, 0.0323506, "- N/A -   "
3.48, 145.665, 0.005928365, NaN, NaN, NaN, 0.0335714, "- N/A -   "
3.49, 146.137, 0.00594225, NaN, NaN, NaN, 0.0335714, "- N/A -   "
3.5, 146.3728, 0.005956133, NaN, NaN, NaN, 0.0347922, "- N/A -   "
3.51, 146.6087, 0.00597002, NaN, NaN, NaN, 0.03601294, "- N/A -   "
3.52, 146.963, 0.0059839, NaN, NaN, NaN, 0.0372337, "- N/A -   "
3.53, 147.316, 0.005997784, NaN, NaN, NaN, 0.0396753, "- N/A -   "
3.54, 147.552, 0.00601167, NaN, NaN, NaN, 0.0396753, "- N/A -   "
3.55, 147.906, 0.006025552, NaN, NaN, NaN, 0.04089605, "- N/A -   "
3.56, 148.26, 0.006039435, NaN, NaN, NaN, 0.04211683, "- N/A -   "
3.57, 148.6138, 0.00605332, NaN, NaN, NaN, 0.0433376, "- N/A -   "
3.58, 148.8497, 0.00606998, NaN, NaN, NaN, 0.0445584, "- N/A -   "
3.59, 149.3215, 0.006083863, NaN, NaN, NaN, 0.0445584, "- N/A -   "
3.6, 149.675, 0.00610052, NaN, NaN, NaN, 0.0445584, "- N/A -   "
3.61, 150.029, 0.006117184, NaN, NaN, NaN, 0.04577916, "- N/A -   "
3.62, 150.501, 0.006133845, NaN, NaN, NaN, 0.04699994, "- N/A -   "
3.63, 150.855, 0.006147729, NaN, NaN, NaN, 0.04699994, "- N/A -   "
3.64, 151.209, 0.006164389, NaN, NaN, NaN, 0.0482207, "- N/A -   "
3.65, 151.5625, 0.006178273, NaN, NaN, NaN, 0.0482207, "- N/A -   "
3.66, 152.034, 0.00619493, NaN, NaN, NaN, 0.0482207, "- N/A -   "
3.67, 152.388, 0.00621159, NaN, NaN, NaN, 0.0482207, "- N/A -   "
3.68, 152.86, 0.006231031, NaN, NaN, NaN, 0.0482207, "- N/A -   "
3.69, 153.332, 0.006247692, NaN, NaN, NaN, 0.04699994, "- N/A -   "
3.7, 153.8035, 0.00626991, NaN, NaN, NaN, 0.0445584, "- N/A -   "
3.71, 154.2753, 0.006289343, NaN, NaN, NaN, 0.0445584, "- N/A -   "
3.72, 154.747, 0.00630878, NaN, NaN, NaN, 0.0433376, "- N/A -   "
3.73, 155.219, 0.006328217, NaN, NaN, NaN, 0.04211683, "- N/A -   "
3.74, 155.691, 0.006347655, NaN, NaN, NaN, 0.0396753, "- N/A -   "
3.75, 156.162, 0.00636432, NaN, NaN, NaN, 0.0396753, "- N/A -   "
3.76, 156.5163, 0.00638375, NaN, NaN, NaN, 0.0384545, "- N/A -   "
3.77, 156.988, 0.006400413, NaN, NaN, NaN, 0.0384545, "- N/A -   "
3.78, 157.46, 0.00642263, NaN, NaN, NaN, 0.0372337, "- N/A -   "
3.79, 157.814, 0.006439287, NaN, NaN, NaN, 0.03601294, "- N/A -   "
3.8, 158.2855, 0.006455948, NaN, NaN, NaN, 0.03601294, "- N/A -   "
3.81, 158.521, 0.00647261, NaN, NaN, NaN, 0.03601294, "- N/A -   "
3.82, 159.111, 0.006492046, NaN, NaN, NaN, 0.03601294, "- N/A -   "
3.83, 159.347, 0.006508706, NaN, NaN, NaN, 0.0347922, "- N/A -   "
3.84, 159.819, 0.006525367, NaN, NaN, NaN, 0.0347922, "- N/A -   "
3.85, 160.173, 0.00654203, NaN, NaN, NaN, 0.0347922, "- N/A -   "
3.86, 160.644, 0.006558688, NaN, NaN, NaN, 0.0347922, "- N/A -   "
3.87, 160.998, 0.006578125, NaN, NaN, NaN, 0.0335714, "- N/A -   "
3.88, 161.352, 0.00659479, NaN, NaN, NaN, 0.0335714, "- N/A -   "
3.89, 161.942, 0.006614223, NaN, NaN, NaN, 0.0323506, "- N/A -   "
3.9, 162.296, 0.00663088, NaN, NaN, NaN, 0.0323506, "- N/A -   "
3.91, 162.885, 0.00665032, NaN, NaN, NaN, 0.03112983, "- N/A -   "
3.92, 163.2393, 0.00666976, NaN, NaN, NaN, 0.0299091, "- N/A -   "
3.93, 163.475, 0.00668642, NaN, NaN, NaN, 0.0299091, "- N/A -   "
3.94, 163.947, 0.006705856, NaN, NaN, NaN, 0.0299091, "- N/A -   "
3.95, 164.419, 0.00672252, NaN, NaN, NaN, 0.0286883, "- N/A -   "
3.96, 164.773, 0.00673918, NaN, NaN, NaN, 0.0286883, "- N/A -   "
3.97, 165.2444, 0.00675584, NaN, NaN, NaN, 0.0286883, "- N/A -   "
3.98, 165.4803, 0.006772498, NaN, NaN, NaN, 0.0286883, "- N/A -   "
3.99, 165.952, 0.006789158, NaN, NaN, NaN, 0.0286883, "- N/A -   "
4, 166.306, 0.006805819, NaN, NaN, NaN, 0.0286883, "- N/A -   "
4.01, 166.66, 0.00682248, NaN, NaN, NaN, 0.0299091, "- N/A -   "
4.02, 167.014, 0.00683914, NaN, NaN, NaN, 0.0299091, "- N/A -   "
4.03, 167.485, 0.0068558, NaN, NaN, NaN, 0.0299091, "- N/A -   "
4.04, 167.839, 0.006872461, NaN, NaN, NaN, 0.0299091, "- N/A -   "
4.05, 168.311, 0.00688912, NaN, NaN, NaN, 0.0286883, "- N/A -   "
4.06, 168.547, 0.00690301, NaN, NaN, NaN, 0.0299091, "- N/A -   "
4.07, 168.901, 0.00691967, NaN, NaN, NaN, 0.0299091, "- N/A -   "
4.08, 169.255, 0.006936326, NaN, NaN, NaN, 0.0299091, "- N/A -   "
4.09, 169.608, 0.00695299, NaN, NaN, NaN, 0.03112983, "- N/A -   "
4.1, 170.08, 0.00696965, NaN, NaN, NaN, 0.03112983, "- N/A -   "
4.11, 170.4341, 0.006983531, NaN, NaN, NaN, 0.03112983, "- N/A -   "
4.12, 170.67, 0.00699741, NaN, NaN, NaN, 0.0323506, "- N/A -   "
4.13, 171.024, 0.00700852, NaN, NaN, NaN, 0.0347922, "- N/A -   "
4.14, 171.26, 0.00702518, NaN, NaN, NaN, 0.03601294, "- N/A -   "
4.15, 171.614, 0.007036289, NaN, NaN, NaN, 0.0372337, "- N/A -   "
4.16, 171.849, 0.00705017, NaN, NaN, NaN, 0.0384545, "- N/A -   "
4.17, 172.203, 0.00706406, NaN, NaN, NaN, 0.0396753, "- N/A -   "
4.18, 172.557, 0.00708072, NaN, NaN, NaN, 0.0396753, "- N/A -   "
4.19, 172.793, 0.007094601, NaN, NaN, NaN, 0.04089605, "- N/A -   "
4.2, 173.029, 0.007108485, NaN, NaN, NaN, 0.04211683, "- N/A -   "
4.21, 173.501, 0.00712237, NaN, NaN, NaN, 0.0433376, "- N/A -   "
4.22, 173.855, 0.00713903, NaN, NaN, NaN, 0.0433376, "- N/A -   "
4.23, 174.208, 0.00715569, NaN, NaN, NaN, 0.0445584, "- N/A -   "
4.24, 174.6802, 0.00717235, NaN, NaN, NaN, 0.0433376, "- N/A -   "
4.25, 175.034, 0.00718901, NaN, NaN, NaN, 0.0433376, "- N/A -   "
4.26, 175.388, 0.007205671, NaN, NaN, NaN, 0.0433376, "- N/A -   "
4.27, 175.742, 0.007219555, NaN, NaN, NaN, 0.0445584, "- N/A -   "
4.28, 176.096, 0.00723899, NaN, NaN, NaN, 0.0433376, "- N/A -   "
4.29, 176.567, 0.00725565, NaN, NaN, NaN, 0.0433376, "- N/A -   "
4.3, 176.9212, 0.00727231, NaN, NaN, NaN, 0.0433376, "- N/A -   "
4.31, 177.393, 0.007288974, NaN, NaN, NaN, 0.0433376, "- N/A -   "
4.32, 177.629, 0.00730286, NaN, NaN, NaN, 0.0445584, "- N/A -   "
4.33, 177.983, 0.00731674, NaN, NaN, NaN, 0.04577916, "- N/A -   "
4.34, 178.337, 0.0073334, NaN, NaN, NaN, 0.04699994, "- N/A -   "
4.35, 178.572, 0.00734729, NaN, NaN, NaN, 0.04699994, "- N/A -   "
4.36, 178.926, 0.00736117, NaN, NaN, NaN, 0.0482207, "- N/A -   "
4.37, 179.3981, 0.00738061, NaN, NaN, NaN, 0.0482207, "- N/A -   "
4.38, 179.87, 0.007397267, NaN, NaN, NaN, 0.0482207, "- N/A -   "
4.39, 180.224, 0.00741393, NaN, NaN, NaN, 0.0482207, "- N/A -   "
4.4, 180.46, 0.007430588, NaN, NaN, NaN, 0.04699994, "- N/A -   "
4.41, 181.049, 0.00745003, NaN, NaN, NaN, 0.04699994, "- N/A -   "
4.42, 181.403, 0.00746946, NaN, NaN, NaN, 0.04577916, "- N/A -   "
4.43, 181.875, 0.00748612, NaN, NaN, NaN, 0.0445584, "- N/A -   "
4.44, 182.3468, 0.00750556, NaN, NaN, NaN, 0.0433376, "- N/A -   "
4.45, 182.819, 0.00752222, NaN, NaN, NaN, 0.0433376, "- N/A -   "
4.46, 183.172, 0.00754443, NaN, NaN, NaN, 0.04211683, "- N/A -   "
4.47, 183.644, 0.007563872, NaN, NaN, NaN, 0.0396753, "- N/A -   "
4.48, 184.116, 0.007586086, NaN, NaN, NaN, 0.0384545, "- N/A -   "
4.49, 184.706, 0.007605524, NaN, NaN, NaN, 0.03601294, "- N/A -   "
4.5, 185.178, 0.00762774, NaN, NaN, NaN, 0.0335714, "- N/A -   "
4.51, 185.531, 0.0076444, NaN, NaN, NaN, 0.0335714, "- N/A -   "
4.52, 185.885, 0.007663835, NaN, NaN, NaN, 0.0323506, "- N/A -   "
4.53, 186.357, 0.0076805, NaN, NaN, NaN, 0.0323506, "- N/A -   "
4.54, 186.593, 0.007699933, NaN, NaN, NaN, 0.03112983, "- N/A -   "
4.55, 187.065, 0.00771382, NaN, NaN, NaN, 0.0323506, "- N/A -   "
4.56, 187.419, 0.00773325, NaN, NaN, NaN, 0.0323506, "- N/A -   "
4.57, 187.772, 0.00774991, NaN, NaN, NaN, 0.0323506, "- N/A -   "
4.58, 188.008, 0.007763798, NaN, NaN, NaN, 0.0323506, "- N/A -   "
4.59, 188.48, 0.007780459, NaN, NaN, NaN, 0.0323506, "- N/A -   "
4.6, 188.716, 0.007797119, NaN, NaN, NaN, 0.0323506, "- N/A -   "
4.61, 189.188, 0.00781378, NaN, NaN, NaN, 0.0323506, "- N/A -   "
4.62, 189.5416, 0.007833217, NaN, NaN, NaN, 0.03112983, "- N/A -   "
4.63, 189.895, 0.007852654, NaN, NaN, NaN, 0.03112983, "- N/A -   "
4.64, 190.367, 0.007869315, NaN, NaN, NaN, 0.0299091, "- N/A -   "
4.65, 190.603, 0.007885975, NaN, NaN, NaN, 0.03112983, "- N/A -   "
4.66, 190.957, 0.007899859, NaN, NaN, NaN, 0.03112983, "- N/A -   "
4.67, 191.429, 0.007916519, NaN, NaN, NaN, 0.03112983, "- N/A -   "
4.68, 191.665, 0.00793318, NaN, NaN, NaN, 0.03112983, "- N/A -   "
4.69, 191.901, 0.007947064, NaN, NaN, NaN, 0.0323506, "- N/A -   "
4.7, 192.372, 0.007960948, NaN, NaN, NaN, 0.0335714, "- N/A -   "
4.71, 192.608, 0.007977608, NaN, NaN, NaN, 0.0335714, "- N/A -   "
4.72, 192.962, 0.007991492, NaN, NaN, NaN, 0.0347922, "- N/A -   "
4.73, 193.198, 0.008008152, NaN, NaN, NaN, 0.03601294, "- N/A -   "
4.74, 193.67, 0.008024813, NaN, NaN, NaN, 0.03601294, "- N/A -   "
4.75, 194.142, 0.008041473, NaN, NaN, NaN, 0.0347922, "- N/A -   "
4.76, 194.377, 0.00805813, NaN, NaN, NaN, 0.03601294, "- N/A -   "
4.77, 194.613, 0.008072018, NaN, NaN, NaN, 0.03601294, "- N/A -   "
4.78, 194.967, 0.008088678, NaN, NaN, NaN, 0.03601294, "- N/A -   "
4.79, 195.439, 0.008105339, NaN, NaN, NaN, 0.03601294, "- N/A -   "
4.8, 195.7928, 0.008124776, NaN, NaN, NaN, 0.03601294, "- N/A -   "
4.81, 196.265, 0.008141437, NaN, NaN, NaN, 0.0347922, "- N/A -   "
4.82, 196.5, 0.008158097, NaN, NaN, NaN, 0.0347922, "- N/A -   "
4.83, 196.854, 0.00817476, NaN, NaN, NaN, 0.0347922, "- N/A -   "
4.84, 197.208, 0.008188642, NaN, NaN, NaN, 0.03601294, "- N/A -   "
4.85, 197.562, 0.008205302, NaN, NaN, NaN, 0.03601294, "- N/A -   "
4.86, 197.916, 0.00822196, NaN, NaN, NaN, 0.03601294, "- N/A -   "
4.87, 198.152, 0.008238623, NaN, NaN, NaN, 0.0372337, "- N/A -   "
4.88, 198.506, 0.008252506, NaN, NaN, NaN, 0.0372337, "- N/A -   "
4.89, 198.859, 0.00826917, NaN, NaN, NaN, 0.0372337, "- N/A -   "
4.9, 199.095, 0.008283051, NaN, NaN, NaN, 0.0384545, "- N/A -   "
4.91, 199.331, 0.008296934, NaN, NaN, NaN, 0.0396753, "- N/A -   "
4.92, 199.567, 0.008310818, NaN, NaN, NaN, 0.04089605, "- N/A -   "
4.93, 199.921, 0.00832748, NaN, NaN, NaN, 0.04211683, "- N/A -   "
4.94, 200.157, 0.008338586, NaN, NaN, NaN, 0.0433376, "- N/A -   "
4.95, 200.5107, 0.008355246, NaN, NaN, NaN, 0.0433376, "- N/A -   "
4.96, 200.7466, 0.008371907, NaN, NaN, NaN, 0.0445584, "- N/A -   "
4.97, 201.1, 0.00838579, NaN, NaN, NaN, 0.0445584, "- N/A -   "
4.98, 201.336, 0.008399675, NaN, NaN, NaN, 0.04577916, "- N/A -   "
4.99, 201.69, 0.008416335, NaN, NaN, NaN, 0.04699994, "- N/A -   "
5, 201.926, 0.008430218, NaN, NaN, NaN, 0.04699994, "- N/A -   "
5.01, 202.28, 0.00844688, NaN, NaN, NaN, 0.0482207, "- N/A -   "
5.02, 202.634, 0.008463539, NaN, NaN, NaN, 0.0482207, "- N/A -   "
5.03, 202.9876, 0.008480201, NaN, NaN, NaN, 0.0482207, "- N/A -   "
5.04, 203.341, 0.008496861, NaN, NaN, NaN, 0.04699994, "- N/A -   "
5.05, 203.577, 0.008516299, NaN, NaN, NaN, 0.04577916, "- N/A -   "
5.06, 204.167, 0.008535735, NaN, NaN, NaN, 0.0445584, "- N/A -   "
5.07, 204.521, 0.008555172, NaN, NaN, NaN, 0.0433376, "- N/A -   "
5.08, 204.875, 0.008577387, NaN, NaN, NaN, 0.04089605, "- N/A -   "
5.09, 205.465, 0.008599601, NaN, NaN, NaN, 0.0384545, "- N/A -   "
5.1, 205.818, 0.008619037, NaN, NaN, NaN, 0.0372337, "- N/A -   "
5.11, 206.172, 0.008641251, NaN, NaN, NaN, 0.0347922, "- N/A -   "
5.12, 206.644, 0.008660689, NaN, NaN, NaN, 0.0335714, "- N/A -   "
5.13, 206.88, 0.008680127, NaN, NaN, NaN, 0.0335714, "- N/A -   "
5.14, 207.352, 0.008699563, NaN, NaN, NaN, 0.0323506, "- N/A -   "
5.15, 207.705, 0.008716225, NaN, NaN, NaN, 0.03112983, "- N/A -   "
5.16, 208.059, 0.008735661, NaN, NaN, NaN, 0.0299091, "- N/A -   "
5.17, 208.4132, 0.008752322, NaN, NaN, NaN, 0.0299091, "- N/A -   "
5.18, 208.767, 0.008771759, NaN, NaN, NaN, 0.0299091, "- N/A -   "
5.19, 209.121, 0.00878842, NaN, NaN, NaN, 0.0286883, "- N/A -   "
5.2, 209.475, 0.00880508, NaN, NaN, NaN, 0.0286883, "- N/A -   "
5.21, 209.711, 0.008821741, NaN, NaN, NaN, 0.0286883, "- N/A -   "
5.22, 210.064, 0.008838401, NaN, NaN, NaN, 0.0299091, "- N/A -   "
5.23, 210.3, 0.008852284, NaN, NaN, NaN, 0.0299091, "- N/A -   "
5.24, 210.536, 0.008868946, NaN, NaN, NaN, 0.03112983, "- N/A -   "
5.25, 210.89, 0.00888283, NaN, NaN, NaN, 0.03112983, "- N/A -   "
5.26, 211.126, 0.008896713, NaN, NaN, NaN, 0.0323506, "- N/A -   "
5.27, 211.48, 0.008913374, NaN, NaN, NaN, 0.0323506, "- N/A -   "
5.28, 211.716, 0.008930034, NaN, NaN, NaN, 0.0335714, "- N/A -   "
5.29, 212.07, 0.008943918, NaN, NaN, NaN, 0.0335714, "- N/A -   "
5.3, 212.4234, 0.008957801, NaN, NaN, NaN, 0.0347922, "- N/A -   "
5.31, 212.777, 0.008977239, NaN, NaN, NaN, 0.0335714, "- N/A -   "
5.32, 213.013, 0.008991122, NaN, NaN, NaN, 0.0347922, "- N/A -   "
5.33, 213.367, 0.009007783, NaN, NaN, NaN, 0.03601294, "- N/A -   "
5.34, 213.603, 0.009024444, NaN, NaN, NaN, 0.03601294, "- N/A -   "
5.35, 213.957, 0.009041104, NaN, NaN, NaN, 0.03601294, "- N/A -   "
5.36, 214.311, 0.009057765, NaN, NaN, NaN, 0.03601294, "- N/A -   "
5.37, 214.546, 0.009074425, NaN, NaN, NaN, 0.0347922, "- N/A -   "
5.38, 215.018, 0.009091086, NaN, NaN, NaN, 0.0347922, "- N/A -   "
5.39, 215.372, 0.009107746, NaN, NaN, NaN, 0.0347922, "- N/A -   "
5.4, 215.608, 0.009127184, NaN, NaN, NaN, 0.0335714, "- N/A -   "
5.41, 216.08, 0.009143844, NaN, NaN, NaN, 0.0335714, "- N/A -   "
5.42, 216.434, 0.009163281, NaN, NaN, NaN, 0.0323506, "- N/A -   "
5.43, 216.905, 0.009182719, NaN, NaN, NaN, 0.0323506, "- N/A -   "
5.44, 217.141, 0.009199379, NaN, NaN, NaN, 0.03112983, "- N/A -   "
5.45, 217.495, 0.009213263, NaN, NaN, NaN, 0.0323506, "- N/A -   "
5.46, 217.731, 0.009229923, NaN, NaN, NaN, 0.0323506, "- N/A -   "
5.47, 217.967, 0.009246584, NaN, NaN, NaN, 0.0323506, "- N/A -   "
5.48, 218.4387, 0.009263244, NaN, NaN, NaN, 0.0335714, "- N/A -   "
5.49, 218.6746, 0.009279905, NaN, NaN, NaN, 0.0335714, "- N/A -   "
5.5, 219.028, 0.009293789, NaN, NaN, NaN, 0.0335714, "- N/A -   "
5.51, 219.264, 0.009307672, NaN, NaN, NaN, 0.0347922, "- N/A -   "
5.52, 219.6182, 0.009324333, NaN, NaN, NaN, 0.0347922, "- N/A -   "
5.53, 219.8541, 0.009340993, NaN, NaN, NaN, 0.03601294, "- N/A -   "
5.54, 220.09, 0.009354877, NaN, NaN, NaN, 0.0372337, "- N/A -   "
5.55, 220.326, 0.00936876, NaN, NaN, NaN, 0.0384545, "- N/A -   "
5.56, 220.562, 0.009379867, NaN, NaN, NaN, 0.0396753, "- N/A -   "
5.57, 220.916, 0.009396528, NaN, NaN, NaN, 0.04089605, "- N/A -   "
5.58, 221.152, 0.009413189, NaN, NaN, NaN, 0.04089605, "- N/A -   "
5.59, 221.505, 0.00942707, NaN, NaN, NaN, 0.04211683, "- N/A -   "
5.6, 221.859, 0.009440956, NaN, NaN, NaN, 0.04211683, "- N/A -   "
5.61, 222.095, 0.009457617, NaN, NaN, NaN, 0.04211683, "- N/A -   "
5.62, 222.449, 0.009477054, NaN, NaN, NaN, 0.04211683, "- N/A -   "
5.63, 222.803, 0.009493715, NaN, NaN, NaN, 0.04089605, "- N/A -   "
5.64, 223.275, 0.009513152, NaN, NaN, NaN, 0.04089605, "- N/A -   "
5.65, 223.6284, 0.009529812, NaN, NaN, NaN, 0.0396753, "- N/A -   "
5.66, 223.982, 0.009546473, NaN, NaN, NaN, 0.0396753, "- N/A -   "
5.67, 224.218, 0.009563133, NaN, NaN, NaN, 0.0396753, "- N/A -   "
5.68, 224.454, 0.00957979, NaN, NaN, NaN, 0.0396753, "- N/A -   "
5.69, 224.926, 0.009596454, NaN, NaN, NaN, 0.0396753, "- N/A -   "
5.7, 225.28, 0.009613114, NaN, NaN, NaN, 0.0396753, "- N/A -   "
5.71, 225.516, 0.009629775, NaN, NaN, NaN, 0.04089605, "- N/A -   "
5.72, 225.8694, 0.009646436, NaN, NaN, NaN, 0.04089605, "- N/A -   "
5.73, 226.223, 0.009663097, NaN, NaN, NaN, 0.0396753, "- N/A -   "
5.74, 226.577, 0.009679758, NaN, NaN, NaN, 0.0396753, "- N/A -   "
5.75, 226.813, 0.00969642, NaN, NaN, NaN, 0.0396753, "- N/A -   "
5.76, 227.167, 0.009713078, NaN, NaN, NaN, 0.0396753, "- N/A -   "
5.77, 227.521, 0.009729738, NaN, NaN, NaN, 0.0396753, "- N/A -   "
5.78, 227.875, 0.009749176, NaN, NaN, NaN, 0.0384545, "- N/A -   "
5.79, 228.228, 0.009765836, NaN, NaN, NaN, 0.0384545, "- N/A -   "
5.8, 228.5822, 0.009782497, NaN, NaN, NaN, 0.0384545, "- N/A -   "
5.81, 229.054, 0.00980193, NaN, NaN, NaN, 0.0384545, "- N/A -   "
5.82, 229.408, 0.009818594, NaN, NaN, NaN, 0.0372337, "- N/A -   "
5.83, 229.762, 0.009838033, NaN, NaN, NaN, 0.0372337, "- N/A -   "
5.84, 229.998, 0.009854692, NaN, NaN, NaN, 0.0372337, "- N/A -   "
5.85, 230.469, 0.009871352, NaN, NaN, NaN, 0.03601294, "- N/A -   "
5.86, 230.8232, 0.009888013, NaN, NaN, NaN, 0.03601294, "- N/A -   "
5.87, 231.0591, 0.009904673, NaN, NaN, NaN, 0.03601294, "- N/A -   "
5.88, 231.413, 0.009921336, NaN, NaN, NaN, 0.03601294, "- N/A -   "
5.89, 231.649, 0.009935218, NaN, NaN, NaN, 0.0372337, "- N/A -   "
5.9, 232.003, 0.009954656, NaN, NaN, NaN, 0.0372337, "- N/A -   "
5.91, 232.357, 0.009968539, NaN, NaN, NaN, 0.0372337, "- N/A -   "
5.92, 232.592, 0.009985199, NaN, NaN, NaN, 0.0372337, "- N/A -   "
5.93, 233.0642, 0.0100046, NaN, NaN, NaN, 0.0372337, "- N/A -   "
5.94, 233.418, 0.0100213, NaN, NaN, NaN, 0.03601294, "- N/A -   "
5.95, 233.772, 0.010038, NaN, NaN, NaN, 0.03601294, "- N/A -   "
5.96, 234.008, 0.01005462, NaN, NaN, NaN, 0.03601294, "- N/A -   "
[...]
30.11, 1203.8, 0.05031197, NaN, NaN, NaN, 0.0335714, "- N/A -   "
30.17, 1206.19, 0.0504008, NaN, NaN, NaN, 0.0372337, "- N/A -   "
30.23, 1208.57, 0.0504925, NaN, NaN, NaN, 0.04089605, "- N/A -   "
30.29, 1210.96, 0.05058409, NaN, NaN, NaN, 0.0445584, "- N/A -   "
30.35, 1213.701, 0.0506841, NaN, NaN, NaN, 0.0445584, "- N/A -   "
30.41, 1216.92, 0.0507951, NaN, NaN, NaN, 0.0396753, "- N/A -   "
30.47, 1219.783, 0.05090897, NaN, NaN, NaN, 0.0335714, "- N/A -   "
30.53, 1222.41, 0.0510062, NaN, NaN, NaN, 0.0347922, "- N/A -   "
30.59, 1224.91, 0.05110612, NaN, NaN, NaN, 0.03601294, "- N/A -   "
30.65, 1228.01, 0.05121719, NaN, NaN, NaN, 0.0299091, "- N/A -   "
30.71, 1230.75, 0.05132271, NaN, NaN, NaN, 0.0274675, "- N/A -   "
30.77, 1233.02, 0.0514116, NaN, NaN, NaN, 0.0347922, "- N/A -   "
30.83, 1235.17, 0.0514949, NaN, NaN, NaN, 0.04089605, "- N/A -   "
30.89, 1237.55, 0.0515837, NaN, NaN, NaN, 0.04577916, "- N/A -   "
30.95, 1240.175, 0.0516809, NaN, NaN, NaN, 0.04699994, "- N/A -   "
31.01, 1242.92, 0.0517864, NaN, NaN, NaN, 0.0445584, "- N/A -   "
31.07, 1246.02, 0.0518975, NaN, NaN, NaN, 0.0396753, "- N/A -   "
31.13, 1249, 0.0520086, NaN, NaN, NaN, 0.0347922, "- N/A -   "
31.19, 1251.981, 0.0521169, NaN, NaN, NaN, 0.03112983, "- N/A -   "
31.25, 1254.96, 0.0522307, NaN, NaN, NaN, 0.0250259, "- N/A -   "
31.31, 1257.35, 0.0523251, NaN, NaN, NaN, 0.0274675, "- N/A -   "
31.37, 1259.85, 0.0524195, NaN, NaN, NaN, 0.0299091, "- N/A -   "
31.43, 1262.12, 0.0525056, NaN, NaN, NaN, 0.03601294, "- N/A -   "
31.49, 1264.38, 0.0525945, NaN, NaN, NaN, 0.04089605, "- N/A -   "
31.55, 1266.77, 0.05268609, NaN, NaN, NaN, 0.04577916, "- N/A -   "
31.61, 1269.51, 0.0527861, NaN, NaN, NaN, 0.0445584, "- N/A -   "
31.67, 1272.25, 0.05288602, NaN, NaN, NaN, 0.0445584, "- N/A -   "
31.73, 1275, 0.0529915, NaN, NaN, NaN, 0.0433376, "- N/A -   "
31.79, 1278.1, 0.0531082, NaN, NaN, NaN, 0.03601294, "- N/A -   "
31.85, 1281.2, 0.05321645, NaN, NaN, NaN, 0.03112983, "- N/A -   "
31.91, 1283.82, 0.05331919, NaN, NaN, NaN, 0.0299091, "- N/A -   "
31.97, 1286.21, 0.0534108, NaN, NaN, NaN, 0.0335714, "- N/A -   "
32.03, 1288.83, 0.053508, NaN, NaN, NaN, 0.03601294, "- N/A -   "
32.09, 1291.33, 0.05360242, NaN, NaN, NaN, 0.0372337, "- N/A -   "
32.15, 1294.2, 0.0537052, NaN, NaN, NaN, 0.03601294, "- N/A -   "
32.21, 1296.34, 0.05378846, NaN, NaN, NaN, 0.0433376, "- N/A -   "
32.27, 1298.49, 0.0538801, NaN, NaN, NaN, 0.0482207, "- N/A -   "
32.33, 1301.59, 0.0539828, NaN, NaN, NaN, 0.04699994, "- N/A -   "
32.39, 1304.69, 0.0540995, NaN, NaN, NaN, 0.0384545, "- N/A -   "
32.45, 1307.67, 0.05421053, NaN, NaN, NaN, 0.0335714, "- N/A -   "
32.51, 1310.53, 0.0543188, NaN, NaN, NaN, 0.03112983, "- N/A -   "
32.57, 1313.038, 0.0544132, NaN, NaN, NaN, 0.0335714, "- N/A -   "
32.63, 1315.423, 0.0545049, NaN, NaN, NaN, 0.03601294, "- N/A -   "
32.69, 1318.4, 0.0546132, NaN, NaN, NaN, 0.0323506, "- N/A -   "
32.75, 1321.03, 0.0547159, NaN, NaN, NaN, 0.03112983, "- N/A -   "
32.81, 1323.53, 0.0548075, NaN, NaN, NaN, 0.0347922, "- N/A -   "
32.87, 1326.04, 0.05489639, NaN, NaN, NaN, 0.0396753, "- N/A -   "
32.93, 1328.66, 0.05499635, NaN, NaN, NaN, 0.0396753, "- N/A -   "
32.99, 1331.28, 0.05509631, NaN, NaN, NaN, 0.0396753, "- N/A -   "
33.05, 1333.91, 0.0551963, NaN, NaN, NaN, 0.0396753, "- N/A -   "
33.11, 1336.89, 0.0553046, NaN, NaN, NaN, 0.0372337, "- N/A -   "
33.17, 1339.75, 0.0554073, NaN, NaN, NaN, 0.0347922, "- N/A -   "
33.23, 1342.25, 0.0555045, NaN, NaN, NaN, 0.03601294, "- N/A -   "
33.29, 1345, 0.0556072, NaN, NaN, NaN, 0.03601294, "- N/A -   "
33.35, 1347.62, 0.0557044, NaN, NaN, NaN, 0.03601294, "- N/A -   "
33.41, 1350.24, 0.0558044, NaN, NaN, NaN, 0.03601294, "- N/A -   "
33.47, 1352.99, 0.0559099, NaN, NaN, NaN, 0.0347922, "- N/A -   "
33.53, 1355.611, 0.0560099, NaN, NaN, NaN, 0.0335714, "- N/A -   "
33.59, 1357.88, 0.0560932, NaN, NaN, NaN, 0.04089605, "- N/A -   "
33.65, 1360.381, 0.0561876, NaN, NaN, NaN, 0.0433376, "- N/A -   "
33.71, 1363, 0.05628754, NaN, NaN, NaN, 0.0433376, "- N/A -   "
33.77, 1365.99, 0.0563958, NaN, NaN, NaN, 0.0396753, "- N/A -   "
33.83, 1369.09, 0.0565069, NaN, NaN, NaN, 0.0347922, "- N/A -   "
33.89, 1371.95, 0.056618, NaN, NaN, NaN, 0.03112983, "- N/A -   "
33.95, 1374.572, 0.0567179, NaN, NaN, NaN, 0.0299091, "- N/A -   "
34.01, 1377.31, 0.0568179, NaN, NaN, NaN, 0.0299091, "- N/A -   "
34.07, 1380.18, 0.0569234, NaN, NaN, NaN, 0.0274675, "- N/A -   "
34.13, 1382.68, 0.05701782, NaN, NaN, NaN, 0.0299091, "- N/A -   "
34.19, 1385.07, 0.0571095, NaN, NaN, NaN, 0.0335714, "- N/A -   "
34.25, 1387.33, 0.0571955, NaN, NaN, NaN, 0.0396753, "- N/A -   "
34.31, 1389.72, 0.0572844, NaN, NaN, NaN, 0.0445584, "- N/A -   "
34.37, 1392.22, 0.0573788, NaN, NaN, NaN, 0.04699994, "- N/A -   "
34.43, 1395.08, 0.0574871, NaN, NaN, NaN, 0.0433376, "- N/A -   "
34.49, 1398.18, 0.05760094, NaN, NaN, NaN, 0.0384545, "- N/A -   "
34.55, 1401.17, 0.0577092, NaN, NaN, NaN, 0.0335714, "- N/A -   "
34.61, 1403.79, 0.05781198, NaN, NaN, NaN, 0.0335714, "- N/A -   "
34.67, 1406.53, 0.05791194, NaN, NaN, NaN, 0.0323506, "- N/A -   "
34.73, 1409.51, 0.0580202, NaN, NaN, NaN, 0.0286883, "- N/A -   "
34.79, 1412.14, 0.0581202, NaN, NaN, NaN, 0.0299091, "- N/A -   "
34.85, 1414.283, 0.0582035, NaN, NaN, NaN, 0.03601294, "- N/A -   "
34.91, 1416.55, 0.05829513, NaN, NaN, NaN, 0.04089605, "- N/A -   "
34.97, 1419.053, 0.05838954, NaN, NaN, NaN, 0.0433376, "- N/A -   "
35.03, 1421.68, 0.05848673, NaN, NaN, NaN, 0.0433376, "- N/A -   "
35.09, 1424.42, 0.0585895, NaN, NaN, NaN, 0.04211683, "- N/A -   "
35.15, 1427.4, 0.05869776, NaN, NaN, NaN, 0.0384545, "- N/A -   "
35.21, 1430.74, 0.0588144, NaN, NaN, NaN, 0.03112983, "- N/A -   "
35.27, 1433.48, 0.0589199, NaN, NaN, NaN, 0.0286883, "- N/A -   "
35.33, 1436.106, 0.05902264, NaN, NaN, NaN, 0.0286883, "- N/A -   "
35.39, 1438.85, 0.0591226, NaN, NaN, NaN, 0.0299091, "- N/A -   "
35.45, 1441.11, 0.05921146, NaN, NaN, NaN, 0.0335714, "- N/A -   "
35.51, 1443.74, 0.0593059, NaN, NaN, NaN, 0.03601294, "- N/A -   "
35.57, 1446.48, 0.0594058, NaN, NaN, NaN, 0.03601294, "- N/A -   "
35.63, 1448.75, 0.0594975, NaN, NaN, NaN, 0.04089605, "- N/A -   "
35.69, 1451.01, 0.05958632, NaN, NaN, NaN, 0.04577916, "- N/A -   "
35.75, 1453.64, 0.0596807, NaN, NaN, NaN, 0.0482207, "- N/A -   "
35.81, 1456.86, 0.0597918, NaN, NaN, NaN, 0.0433376, "- N/A -   "
35.87, 1459.96, 0.0599084, NaN, NaN, NaN, 0.0347922, "- N/A -   "
35.93, 1462.7, 0.0600112, NaN, NaN, NaN, 0.0335714, "- N/A -   "
35.99, 1465.08, 0.0601028, NaN, NaN, NaN, 0.0372337, "- N/A -   "
36.05, 1467.71, 0.0601972, NaN, NaN, NaN, 0.0396753, "- N/A -   "
36.11, 1470.57, 0.0603083, NaN, NaN, NaN, 0.03601294, "- N/A -   "
36.17, 1473.55, 0.0604166, NaN, NaN, NaN, 0.03112983, "- N/A -   "
36.23, 1475.936, 0.0605054, NaN, NaN, NaN, 0.03601294, "- N/A -   "
36.29, 1478.44, 0.06059706, NaN, NaN, NaN, 0.0396753, "- N/A -   "
36.35, 1481.18, 0.06069702, NaN, NaN, NaN, 0.0396753, "- N/A -   "
36.41, 1483.69, 0.06079421, NaN, NaN, NaN, 0.04089605, "- N/A -   "
36.47, 1486.55, 0.0608997, NaN, NaN, NaN, 0.0396753, "- N/A -   "
36.53, 1489.41, 0.0610025, NaN, NaN, NaN, 0.0372337, "- N/A -   "
36.59, 1492.04, 0.0611052, NaN, NaN, NaN, 0.03601294, "- N/A -   "
36.65, 1494.9, 0.0612079, NaN, NaN, NaN, 0.0347922, "- N/A -   "
36.71, 1497.88, 0.06131346, NaN, NaN, NaN, 0.0323506, "- N/A -   "
36.77, 1500.5, 0.061419, NaN, NaN, NaN, 0.03112983, "- N/A -   "
36.83, 1503.13, 0.0615134, NaN, NaN, NaN, 0.0323506, "- N/A -   "
36.89, 1505.51, 0.0616078, NaN, NaN, NaN, 0.0347922, "- N/A -   "
36.95, 1508.37, 0.0617078, NaN, NaN, NaN, 0.0347922, "- N/A -   "
37.01, 1510.76, 0.0617994, NaN, NaN, NaN, 0.0384545, "- N/A -   "
37.07, 1513.02, 0.061891, NaN, NaN, NaN, 0.04211683, "- N/A -   "
37.13, 1515.41, 0.0619827, NaN, NaN, NaN, 0.04699994, "- N/A -   "
37.19, 1518.39, 0.0620854, NaN, NaN, NaN, 0.0445584, "- N/A -   "
37.25, 1521.61, 0.06220202, NaN, NaN, NaN, 0.0384545, "- N/A -   "
37.31, 1524.47, 0.0623103, NaN, NaN, NaN, 0.0335714, "- N/A -   "
37.37, 1527.1, 0.0624075, NaN, NaN, NaN, 0.0347922, "- N/A -   "
37.43, 1529.72, 0.06250746, NaN, NaN, NaN, 0.0347922, "- N/A -   "
37.49, 1532.7, 0.06261575, NaN, NaN, NaN, 0.0323506, "- N/A -   "
37.55, 1535.32, 0.0627157, NaN, NaN, NaN, 0.03112983, "- N/A -   "
37.61, 1537.95, 0.0628129, NaN, NaN, NaN, 0.0323506, "- N/A -   "
37.67, 1540.09, 0.062899, NaN, NaN, NaN, 0.0396753, "- N/A -   "
37.73, 1542.36, 0.06298506, NaN, NaN, NaN, 0.0445584, "- N/A -   "
37.79, 1544.74, 0.0630767, NaN, NaN, NaN, 0.0494415, "- N/A -   "
37.85, 1548.2, 0.0631961, NaN, NaN, NaN, 0.0396753, "- N/A -   "
37.91, 1551.3, 0.0633127, NaN, NaN, NaN, 0.0323506, "- N/A -   "
37.97, 1553.93, 0.06340991, NaN, NaN, NaN, 0.0335714, "- N/A -   "
38.03, 1556.67, 0.0635154, NaN, NaN, NaN, 0.03112983, "- N/A -   "
38.09, 1559.651, 0.06362372, NaN, NaN, NaN, 0.0274675, "- N/A -   "
38.15, 1562.39, 0.0637265, NaN, NaN, NaN, 0.0274675, "- N/A -   "
38.21, 1564.66, 0.06381532, NaN, NaN, NaN, 0.03112983, "- N/A -   "
38.27, 1566.81, 0.0638986, NaN, NaN, NaN, 0.0384545, "- N/A -   "
38.33, 1569.19, 0.06398747, NaN, NaN, NaN, 0.0433376, "- N/A -   "
38.39, 1571.81, 0.06408466, NaN, NaN, NaN, 0.04577916, "- N/A -   "
38.45, 1574.68, 0.06419018, NaN, NaN, NaN, 0.0433376, "- N/A -   "
38.51, 1577.54, 0.0642929, NaN, NaN, NaN, 0.04089605, "- N/A -   "
38.57, 1580.52, 0.06440121, NaN, NaN, NaN, 0.0384545, "- N/A -   "
38.63, 1583.5, 0.0645095, NaN, NaN, NaN, 0.0335714, "- N/A -   "
38.69, 1586.24, 0.0646178, NaN, NaN, NaN, 0.03112983, "- N/A -   "
38.75, 1588.75, 0.0647122, NaN, NaN, NaN, 0.0323506, "- N/A -   "
38.81, 1591.13, 0.06480384, NaN, NaN, NaN, 0.03601294, "- N/A -   "
38.87, 1593.76, 0.0648982, NaN, NaN, NaN, 0.0384545, "- N/A -   "
38.93, 1596.62, 0.06500376, NaN, NaN, NaN, 0.03601294, "- N/A -   "
38.99, 1599.36, 0.0651037, NaN, NaN, NaN, 0.03601294, "- N/A -   "
39.05, 1601.51, 0.0651898, NaN, NaN, NaN, 0.04211683, "- N/A -   "
39.11, 1604.01, 0.0652842, NaN, NaN, NaN, 0.0445584, "- N/A -   "
39.17, 1606.87, 0.06538695, NaN, NaN, NaN, 0.0433376, "- N/A -   "
39.23, 1610.21, 0.06550913, NaN, NaN, NaN, 0.0347922, "- N/A -   "
39.29, 1613.43, 0.06562576, NaN, NaN, NaN, 0.0274675, "- N/A -   "
39.35, 1615.82, 0.06571739, NaN, NaN, NaN, 0.0299091, "- N/A -   "
39.41, 1618.2, 0.06580625, NaN, NaN, NaN, 0.0347922, "- N/A -   "
39.47, 1620.83, 0.0659062, NaN, NaN, NaN, 0.0347922, "- N/A -   "
39.53, 1623.81, 0.06601728, NaN, NaN, NaN, 0.03112983, "- N/A -   "
39.59, 1626.43, 0.06611169, NaN, NaN, NaN, 0.0335714, "- N/A -   "
39.65, 1628.698, 0.06620055, NaN, NaN, NaN, 0.0372337, "- N/A -   "
39.71, 1631.2, 0.06629495, NaN, NaN, NaN, 0.0396753, "- N/A -   "
39.77, 1633.71, 0.06638936, NaN, NaN, NaN, 0.04211683, "- N/A -   "
39.83, 1636.45, 0.0664921, NaN, NaN, NaN, 0.04211683, "- N/A -   "
39.89, 1639.31, 0.06659762, NaN, NaN, NaN, 0.04089605, "- N/A -   "
39.95, 1642.29, 0.06670313, NaN, NaN, NaN, 0.0372337, "- N/A -   "
40.01, 1645.04, 0.06680587, NaN, NaN, NaN, 0.03601294, "- N/A -   "
40.07, 1647.42, 0.06690306, NaN, NaN, NaN, 0.0372337, "- N/A -   "
40.13, 1650.4, 0.06700858, NaN, NaN, NaN, 0.0347922, "- N/A -   "
40.19, 1652.79, 0.06710299, NaN, NaN, NaN, 0.0372337, "- N/A -   "
40.25, 1655.53, 0.06720573, NaN, NaN, NaN, 0.03601294, "- N/A -   "
40.31, 1658.39, 0.06731124, NaN, NaN, NaN, 0.0335714, "- N/A -   "
40.37, 1660.9, 0.0674057, NaN, NaN, NaN, 0.03601294, "- N/A -   "
40.43, 1663.281, 0.06749729, NaN, NaN, NaN, 0.04089605, "- N/A -   "
40.49, 1665.79, 0.0675917, NaN, NaN, NaN, 0.04211683, "- N/A -   "
40.55, 1668.29, 0.06768333, NaN, NaN, NaN, 0.04577916, "- N/A -   "
40.61, 1671.39, 0.06779718, NaN, NaN, NaN, 0.04089605, "- N/A -   "
40.67, 1674.49, 0.0679138, NaN, NaN, NaN, 0.0335714, "- N/A -   "
40.73, 1677.23, 0.0680138, NaN, NaN, NaN, 0.0323506, "- N/A -   "
40.79, 1679.62, 0.06811095, NaN, NaN, NaN, 0.0347922, "- N/A -   "
40.85, 1682.48, 0.0682165, NaN, NaN, NaN, 0.0323506, "- N/A -   "
40.91, 1685.581, 0.06833031, NaN, NaN, NaN, 0.0262467, "- N/A -   "
40.97, 1688.09, 0.0684219, NaN, NaN, NaN, 0.0286883, "- N/A -   "
41.03, 1690.23, 0.06850802, NaN, NaN, NaN, 0.0347922, "- N/A -   "
41.09, 1692.26, 0.06859133, NaN, NaN, NaN, 0.04211683, "- N/A -   "
41.15, 1694.64, 0.06868018, NaN, NaN, NaN, 0.0482207, "- N/A -   "
41.21, 1697.27, 0.06878015, NaN, NaN, NaN, 0.0482207, "- N/A -   "
41.27, 1700.37, 0.06889121, NaN, NaN, NaN, 0.0433376, "- N/A -   "
41.33, 1703.83, 0.0690162, NaN, NaN, NaN, 0.03112983, "- N/A -   "
41.39, 1706.45, 0.06911613, NaN, NaN, NaN, 0.03112983, "- N/A -   "
41.45, 1708.84, 0.0692105, NaN, NaN, NaN, 0.0335714, "- N/A -   "
41.51, 1711.578, 0.06931606, NaN, NaN, NaN, 0.03112983, "- N/A -   "
41.57, 1714.08, 0.0694132, NaN, NaN, NaN, 0.0335714, "- N/A -   "
41.63, 1716.59, 0.06950488, NaN, NaN, NaN, 0.03601294, "- N/A -   "
41.69, 1718.73, 0.069591, NaN, NaN, NaN, 0.04211683, "- N/A -   "
41.75, 1721.24, 0.06968814, NaN, NaN, NaN, 0.0445584, "- N/A -   "
41.81, 1724.1, 0.06979366, NaN, NaN, NaN, 0.04089605, "- N/A -   "
41.87, 1726.84, 0.0698964, NaN, NaN, NaN, 0.04089605, "- N/A -   "
41.93, 1729.47, 0.0699964, NaN, NaN, NaN, 0.0396753, "- N/A -   "
41.99, 1732.33, 0.07010188, NaN, NaN, NaN, 0.0372337, "- N/A -   "
42.05, 1735.55, 0.0702213, NaN, NaN, NaN, 0.0299091, "- N/A -   "
42.11, 1738.29, 0.07032125, NaN, NaN, NaN, 0.0286883, "- N/A -   "
42.17, 1740.56, 0.0704184, NaN, NaN, NaN, 0.03112983, "- N/A -   "
42.23, 1743.18, 0.07051284, NaN, NaN, NaN, 0.0323506, "- N/A -   "
42.29, 1745.68, 0.07061, NaN, NaN, NaN, 0.0335714, "- N/A -   "
42.35, 1748.31, 0.07070721, NaN, NaN, NaN, 0.0347922, "- N/A -   "
42.41, 1750.69, 0.0707988, NaN, NaN, NaN, 0.0384545, "- N/A -   "
42.47, 1752.84, 0.07088492, NaN, NaN, NaN, 0.0445584, "- N/A -   "
42.53, 1755.34, 0.0709793, NaN, NaN, NaN, 0.0482207, "- N/A -   "
42.59, 1758.32, 0.07108763, NaN, NaN, NaN, 0.0433376, "- N/A -   "
42.65, 1761.43, 0.07120425, NaN, NaN, NaN, 0.0372337, "- N/A -   "
42.71, 1764.29, 0.07131255, NaN, NaN, NaN, 0.0323506, "- N/A -   "
42.77, 1766.91, 0.0714125, NaN, NaN, NaN, 0.0323506, "- N/A -   "
42.83, 1769.3, 0.07150414, NaN, NaN, NaN, 0.0372337, "- N/A -   "
42.89, 1771.8, 0.0716041, NaN, NaN, NaN, 0.03601294, "- N/A -   "
42.95, 1774.9, 0.07171517, NaN, NaN, NaN, 0.0323506, "- N/A -   "
43.01, 1777.52, 0.07181236, NaN, NaN, NaN, 0.0323506, "- N/A -   "
43.07, 1779.91, 0.071904, NaN, NaN, NaN, 0.03601294, "- N/A -   "
43.13, 1782.06, 0.07199285, NaN, NaN, NaN, 0.04089605, "- N/A -   "
43.19, 1784.92, 0.07209837, NaN, NaN, NaN, 0.0384545, "- N/A -   "
43.25, 1787.66, 0.0722011, NaN, NaN, NaN, 0.0384545, "- N/A -   "
43.31, 1790.4, 0.07230385, NaN, NaN, NaN, 0.03601294, "- N/A -   "
43.37, 1793.03, 0.07240381, NaN, NaN, NaN, 0.03601294, "- N/A -   "
43.43, 1795.65, 0.07250377, NaN, NaN, NaN, 0.0372337, "- N/A -   "
43.49, 1798.51, 0.07260928, NaN, NaN, NaN, 0.0335714, "- N/A -   "
43.55, 1800.9, 0.07270647, NaN, NaN, NaN, 0.0347922, "- N/A -   "
43.61, 1803.64, 0.07280921, NaN, NaN, NaN, 0.0335714, "- N/A -   "
43.67, 1806.38, 0.072912, NaN, NaN, NaN, 0.0323506, "- N/A -   "
43.73, 1809.13, 0.07301747, NaN, NaN, NaN, 0.0299091, "- N/A -   "
43.79, 1811.392, 0.0731063, NaN, NaN, NaN, 0.0347922, "- N/A -   "
43.85, 1813.66, 0.07319518, NaN, NaN, NaN, 0.0396753, "- N/A -   "
43.91, 1816.16, 0.0732896, NaN, NaN, NaN, 0.0433376, "- N/A -   "
43.97, 1818.79, 0.073384, NaN, NaN, NaN, 0.0445584, "- N/A -   "
44.03, 1821.29, 0.0734867, NaN, NaN, NaN, 0.0433376, "- N/A -   "
44.09, 1824.63, 0.07360058, NaN, NaN, NaN, 0.0372337, "- N/A -   "
44.15, 1827.37, 0.0737061, NaN, NaN, NaN, 0.0347922, "- N/A -   "
44.21, 1830.11, 0.07381162, NaN, NaN, NaN, 0.0335714, "- N/A -   "
44.27, 1832.738, 0.0739144, NaN, NaN, NaN, 0.0323506, "- N/A -   "
44.33, 1835.6, 0.07402265, NaN, NaN, NaN, 0.0286883, "- N/A -   "
44.39, 1837.99, 0.0741171, NaN, NaN, NaN, 0.03112983, "- N/A -   "
44.45, 1840.37, 0.07420592, NaN, NaN, NaN, 0.03601294, "- N/A -   "
44.51, 1842.52, 0.0742948, NaN, NaN, NaN, 0.04089605, "- N/A -   "
44.57, 1844.66, 0.07438085, NaN, NaN, NaN, 0.04699994, "- N/A -   "
44.63, 1847.406, 0.07448082, NaN, NaN, NaN, 0.04699994, "- N/A -   "
44.69, 1850.86, 0.07460022, NaN, NaN, NaN, 0.0384545, "- N/A -   "
44.75, 1853.49, 0.0747085, NaN, NaN, NaN, 0.03601294, "- N/A -   "
44.81, 1856.23, 0.07481125, NaN, NaN, NaN, 0.0347922, "- N/A -   "
44.87, 1859.21, 0.0749195, NaN, NaN, NaN, 0.03112983, "- N/A -   "
44.93, 1861.84, 0.07501951, NaN, NaN, NaN, 0.0299091, "- N/A -   "
44.99, 1864.34, 0.07511947, NaN, NaN, NaN, 0.03112983, "- N/A -   "
45.05, 1866.72, 0.07521388, NaN, NaN, NaN, 0.0323506, "- N/A -   "
45.11, 1868.99, 0.0753027, NaN, NaN, NaN, 0.0372337, "- N/A -   "
45.17, 1871.018, 0.07538604, NaN, NaN, NaN, 0.04577916, "- N/A -   "
45.23, 1873.88, 0.075486, NaN, NaN, NaN, 0.04577916, "- N/A -   "
45.29, 1876.38, 0.07558596, NaN, NaN, NaN, 0.0445584, "- N/A -   "
45.35, 1879.01, 0.0756887, NaN, NaN, NaN, 0.0445584, "- N/A -   "
45.41, 1881.99, 0.075797, NaN, NaN, NaN, 0.0396753, "- N/A -   "
45.47, 1885.33, 0.0759164, NaN, NaN, NaN, 0.03112983, "- N/A -   "
45.53, 1887.95, 0.07602192, NaN, NaN, NaN, 0.0286883, "- N/A -   "
45.59, 1890.34, 0.07611632, NaN, NaN, NaN, 0.0323506, "- N/A -   "
45.65, 1892.6, 0.07620241, NaN, NaN, NaN, 0.0372337, "- N/A -   "
45.71, 1895.35, 0.0763024, NaN, NaN, NaN, 0.0372337, "- N/A -   "
45.77, 1897.73, 0.07640233, NaN, NaN, NaN, 0.0372337, "- N/A -   "
45.83, 1900.35, 0.0764967, NaN, NaN, NaN, 0.0396753, "- N/A -   "
45.89, 1902.739, 0.07659115, NaN, NaN, NaN, 0.04211683, "- N/A -   "
45.95, 1905.12, 0.07668556, NaN, NaN, NaN, 0.0445584, "- N/A -   "
46.01, 1908.22, 0.07679663, NaN, NaN, NaN, 0.0396753, "- N/A -   "
46.07, 1911.44, 0.076916, NaN, NaN, NaN, 0.03112983, "- N/A -   "
46.13, 1914.07, 0.07701599, NaN, NaN, NaN, 0.03112983, "- N/A -   "
46.19, 1916.57, 0.0771104, NaN, NaN, NaN, 0.0335714, "- N/A -   "
46.25, 1919.08, 0.07721037, NaN, NaN, NaN, 0.0335714, "- N/A -   "
46.31, 1921.7, 0.07731032, NaN, NaN, NaN, 0.0335714, "- N/A -   "
46.37, 1924.44, 0.07741862, NaN, NaN, NaN, 0.03112983, "- N/A -   "
46.43, 1926.83, 0.07751026, NaN, NaN, NaN, 0.0347922, "- N/A -   "
46.49, 1929.09, 0.07759355, NaN, NaN, NaN, 0.04089605, "- N/A -   "
46.55, 1931.24, 0.07768519, NaN, NaN, NaN, 0.0445584, "- N/A -   "
46.61, 1933.98, 0.07779071, NaN, NaN, NaN, 0.04211683, "- N/A -   "
46.67, 1936.73, 0.07789344, NaN, NaN, NaN, 0.04089605, "- N/A -   "
46.73, 1939.59, 0.077999, NaN, NaN, NaN, 0.0384545, "- N/A -   "
46.79, 1942.33, 0.07810448, NaN, NaN, NaN, 0.03601294, "- N/A -   "
46.85, 1944.95, 0.07820722, NaN, NaN, NaN, 0.0347922, "- N/A -   "
46.91, 1947.82, 0.07831273, NaN, NaN, NaN, 0.0323506, "- N/A -   "
46.97, 1950.2, 0.07840992, NaN, NaN, NaN, 0.0347922, "- N/A -   "
47.03, 1952.59, 0.07850433, NaN, NaN, NaN, 0.0372337, "- N/A -   "
47.09, 1955.09, 0.0786043, NaN, NaN, NaN, 0.03601294, "- N/A -   "
47.15, 1957.83, 0.07870703, NaN, NaN, NaN, 0.03601294, "- N/A -   "
47.21, 1960.22, 0.07879867, NaN, NaN, NaN, 0.0384545, "- N/A -   "
47.27, 1962.6, 0.07889586, NaN, NaN, NaN, 0.0396753, "- N/A -   "
47.33, 1964.99, 0.07898749, NaN, NaN, NaN, 0.0433376, "- N/A -   "
47.39, 1967.85, 0.079093, NaN, NaN, NaN, 0.04211683, "- N/A -   "
47.45, 1970.71, 0.0792041, NaN, NaN, NaN, 0.0372337, "- N/A -   "
47.51, 1973.57, 0.07931237, NaN, NaN, NaN, 0.0323506, "- N/A -   "
47.57, 1976.2, 0.0794123, NaN, NaN, NaN, 0.0323506, "- N/A -   "
47.63, 1978.7, 0.07951229, NaN, NaN, NaN, 0.0323506, "- N/A -   "
47.69, 1981.45, 0.0796206, NaN, NaN, NaN, 0.0299091, "- N/A -   "
47.75, 1983.95, 0.07971777, NaN, NaN, NaN, 0.0299091, "- N/A -   "
47.81, 1986.33, 0.0798094, NaN, NaN, NaN, 0.0335714, "- N/A -   "
47.87, 1988.36, 0.07989825, NaN, NaN, NaN, 0.0384545, "- N/A -   "
47.93, 1990.51, 0.07998434, NaN, NaN, NaN, 0.0445584, "- N/A -   "
47.987, 1992.89, 0.08007597, NaN, NaN, NaN, 0.04699994, "- N/A -   "