File: 2_Tensile_Data/Hamel_ForceTest_Bolt7_Test4.csv
Time, Load (lb), Position (in), AxialStrain (in), TransverseStrain (in), Auxiliary (), Control Out (V), Stress (psi)
0.0, 1.17947, 0.0, NaN, NaN, NaN, 0.0872856, "- N/A -   "
0.01, 1.88716, 2.77675e-05, NaN, NaN, NaN, 0.09461027, "- N/A -   "
0.02, 2.476897, 6.108854E-5, NaN, NaN, NaN, 0.09338949, "- N/A -   "
0.03, 3.18458, 9.440956E-5, NaN, NaN, NaN, 0.08606482, "- N/A -   "
0.04, 3.89227, 0.000122177, NaN, NaN, NaN, 0.08118171, "- N/A -   "
0.05, 4.36406, 1.499446E-4, NaN, NaN, NaN, 0.0762986, "- N/A -   "
0.06, 4.953794, 0.000177712, NaN, NaN, NaN, 0.07263627, "- N/A -   "
0.07, 5.425584, 0.000199926, NaN, NaN, NaN, 0.0689739, "- N/A -   "
0.08, 5.897373, 0.00022214, NaN, NaN, NaN, 0.06653238, "- N/A -   "
0.09, 6.369163, 0.000244354, NaN, NaN, NaN, 0.0640908, "- N/A -   "
0.1, 6.9589, 0.000269345, NaN, NaN, NaN, 0.0604285, "- N/A -   "
0.11, 7.1948, 0.000288782, NaN, NaN, NaN, 0.0592077, "- N/A -   "
0.12, 7.666586, 3.054427E-4, NaN, NaN, NaN, 0.0592077, "- N/A -   "
0.13, 8.020428, 0.00032488, NaN, NaN, NaN, 0.0579869, "- N/A -   "
0.14, 8.256323, 0.00034154, NaN, NaN, NaN, 0.0579869, "- N/A -   "
0.15, 8.728113, 0.000358201, NaN, NaN, NaN, 0.0579869, "- N/A -   "
0.16, 9.081955, 0.000377638, NaN, NaN, NaN, 0.0579869, "- N/A -   "
0.17, 9.435798, 0.000394299, NaN, NaN, NaN, 0.05676616, "- N/A -   "
0.18, 9.78964, 0.000410959, NaN, NaN, NaN, 0.05676616, "- N/A -   "
0.19, 10.1435, 0.000430397, NaN, NaN, NaN, 0.0555454, "- N/A -   "
0.2, 10.4973, 0.000449834, NaN, NaN, NaN, 0.0543246, "- N/A -   "
0.21, 10.8512, 4.664943E-4, NaN, NaN, NaN, 0.0543246, "- N/A -   "
0.22, 11.205, 0.000485932, NaN, NaN, NaN, 0.0543246, "- N/A -   "
0.23, 11.5589, 0.000502592, NaN, NaN, NaN, 0.0531038, "- N/A -   "
0.24, 11.9127, 5.192526E-4, NaN, NaN, NaN, 0.0531038, "- N/A -   "
0.25, 12.2665, 0.00053869, NaN, NaN, NaN, 0.05188305, "- N/A -   "
0.26, 12.7383, 5.581271E-4, NaN, NaN, NaN, 0.05066227, "- N/A -   "
0.27, 13.09217, 0.000577564, NaN, NaN, NaN, 0.0494415, "- N/A -   "
0.28, 13.446, 0.000597002, NaN, NaN, NaN, 0.0482207, "- N/A -   "
0.29, 13.9178, 6.164389E-4, NaN, NaN, NaN, 0.04699994, "- N/A -   "
0.3, 14.2716, 0.000635876, NaN, NaN, NaN, 0.04577916, "- N/A -   "
0.31, 14.6255, 0.000655313, NaN, NaN, NaN, 0.0445584, "- N/A -   "
0.32, 15.0973, 6.747507E-4, NaN, NaN, NaN, 0.0433376, "- N/A -   "
0.33, 15.3332, 6.914112E-4, NaN, NaN, NaN, 0.0433376, "- N/A -   "
0.34, 15.9229, 7.080717E-4, NaN, NaN, NaN, 0.0433376, "- N/A -   "
0.35, 16.1588, 7.27509E-4, NaN, NaN, NaN, 0.04211683, "- N/A -   "
0.36, 16.5126, 0.000746946, NaN, NaN, NaN, 0.04089605, "- N/A -   "
0.37, 16.9844, 7.663835E-4, NaN, NaN, NaN, 0.0396753, "- N/A -   "
0.38, 17.3383, 0.000785821, NaN, NaN, NaN, 0.0384545, "- N/A -   "
0.39, 17.5742, 0.000802481, NaN, NaN, NaN, 0.0384545, "- N/A -   "
0.4, 18.046, 8.191418E-4, NaN, NaN, NaN, 0.0384545, "- N/A -   "
0.41, 18.3998, 8.358023E-4, NaN, NaN, NaN, 0.0384545, "- N/A -   "
0.42, 18.7536, 8.552396E-4, NaN, NaN, NaN, 0.0384545, "- N/A -   "
0.43, 19.1075, 0.0008719, NaN, NaN, NaN, 0.0384545, "- N/A -   "
0.44, 19.4613, 8.885606E-4, NaN, NaN, NaN, 0.0384545, "- N/A -   "
0.45, 19.8152, 9.052211E-4, NaN, NaN, NaN, 0.0372337, "- N/A -   "
0.46, 20.287, 9.246584E-4, NaN, NaN, NaN, 0.03601294, "- N/A -   "
0.47, 20.6408, 9.440956E-4, NaN, NaN, NaN, 0.0347922, "- N/A -   "
0.48, 21.1126, 0.000960756, NaN, NaN, NaN, 0.0347922, "- N/A -   "
0.49, 21.5844, 9.801934E-4, NaN, NaN, NaN, 0.0335714, "- N/A -   "
0.5, 21.8203, 9.996307E-4, NaN, NaN, NaN, 0.0323506, "- N/A -   "
0.51, 22.1741, 0.00101629, NaN, NaN, NaN, 0.0323506, "- N/A -   "
0.56, 24.0613, 0.00110515, NaN, NaN, NaN, 0.0299091, "- N/A -   "
0.61, 25.9484, 0.00119123, NaN, NaN, NaN, 0.0286883, "- N/A -   "
0.66, 27.7177, 0.00126898, NaN, NaN, NaN, 0.03112983, "- N/A -   "
0.71, 29.251, 0.00134395, NaN, NaN, NaN, 0.0347922, "- N/A -   "
0.76, 30.6663, 0.00141337, NaN, NaN, NaN, 0.04089605, "- N/A -   "
0.81, 32.3176, 0.00148834, NaN, NaN, NaN, 0.0445584, "- N/A -   "
0.86, 34.3227, 0.00157164, NaN, NaN, NaN, 0.0445584, "- N/A -   "
0.91, 36.2099, 0.001654944, NaN, NaN, NaN, 0.0445584, "- N/A -   "
0.96, 38.215, 0.00174102, NaN, NaN, NaN, 0.0433376, "- N/A -   "
1.01, 40.10214, 0.00182988, NaN, NaN, NaN, 0.04211683, "- N/A -   "
1.06, 42.579, 0.001924289, NaN, NaN, NaN, 0.03601294, "- N/A -   "
1.11, 44.70209, 0.0020187, NaN, NaN, NaN, 0.03112983, "- N/A -   "
1.16, 46.7072, 0.00210478, NaN, NaN, NaN, 0.0299091, "- N/A -   "
1.21, 48.59436, 0.00218808, NaN, NaN, NaN, 0.0299091, "- N/A -   "
1.26, 50.4815, 0.00226305, NaN, NaN, NaN, 0.0347922, "- N/A -   "
1.31, 52.36868, 0.00234358, NaN, NaN, NaN, 0.0347922, "- N/A -   "
1.36, 54.2558, 0.00242133, NaN, NaN, NaN, 0.0372337, "- N/A -   "
1.41, 56.37889, 0.00250185, NaN, NaN, NaN, 0.0384545, "- N/A -   "
1.46, 58.384, 0.00258238, NaN, NaN, NaN, 0.0396753, "- N/A -   "
1.51, 60.15321, 0.00265735, NaN, NaN, NaN, 0.0433376, "- N/A -   "
1.56, 62.1583, 0.00273788, NaN, NaN, NaN, 0.0445584, "- N/A -   "
1.61, 64.5173, 0.00282673, NaN, NaN, NaN, 0.04211683, "- N/A -   "
1.66, 66.87622, 0.00292114, NaN, NaN, NaN, 0.0372337, "- N/A -   "
1.71, 69.11722, 0.003012776, NaN, NaN, NaN, 0.0335714, "- N/A -   "
1.76, 71.4762, 0.00310441, NaN, NaN, NaN, 0.0299091, "- N/A -   "
1.81, 73.36333, 0.00318216, NaN, NaN, NaN, 0.0323506, "- N/A -   "
1.86, 75.25049, 0.00325713, NaN, NaN, NaN, 0.03601294, "- N/A -   "
1.91, 77.49149, 0.00333766, NaN, NaN, NaN, 0.0372337, "- N/A -   "
1.96, 79.61454, 0.00342651, NaN, NaN, NaN, 0.0347922, "- N/A -   "
2.01, 81.97349, 0.00351259, NaN, NaN, NaN, 0.0335714, "- N/A -   "
2.06, 83.9786, 0.00359312, NaN, NaN, NaN, 0.0347922, "- N/A -   "
2.11, 86.1017, 0.003670866, NaN, NaN, NaN, 0.0372337, "- N/A -   "
2.16, 87.8709, 0.00374306, NaN, NaN, NaN, 0.04211683, "- N/A -   "
2.21, 90.11186, 0.003826364, NaN, NaN, NaN, 0.04211683, "- N/A -   "
2.26, 92.35287, 0.00391244, NaN, NaN, NaN, 0.04089605, "- N/A -   "
2.31, 94.8298, 0.004004076, NaN, NaN, NaN, 0.0372337, "- N/A -   "
2.36, 96.95282, 0.00409016, NaN, NaN, NaN, 0.03601294, "- N/A -   "
2.41, 99.3118, 0.004173458, NaN, NaN, NaN, 0.03601294, "- N/A -   "
2.46, 101.435, 0.00425954, NaN, NaN, NaN, 0.0347922, "- N/A -   "
2.51, 103.558, 0.00434284, NaN, NaN, NaN, 0.0347922, "- N/A -   "
2.56, 106.035, 0.0044317, NaN, NaN, NaN, 0.0323506, "- N/A -   "
2.61, 108.158, 0.004515, NaN, NaN, NaN, 0.0335714, "- N/A -   "
2.66, 110.281, 0.004595524, NaN, NaN, NaN, 0.0335714, "- N/A -   "
2.71, 112.404, 0.004678827, NaN, NaN, NaN, 0.0335714, "- N/A -   "
2.76, 114.645, 0.00475935, NaN, NaN, NaN, 0.0347922, "- N/A -   "
2.81, 116.65, 0.004839879, NaN, NaN, NaN, 0.03601294, "- N/A -   "
2.86, 118.655, 0.004914851, NaN, NaN, NaN, 0.0396753, "- N/A -   "
2.91, 120.778, 0.004998153, NaN, NaN, NaN, 0.0396753, "- N/A -   "
2.96, 123.019, 0.00507868, NaN, NaN, NaN, 0.04089605, "- N/A -   "
3.01, 125.024, 0.00515643, NaN, NaN, NaN, 0.0433376, "- N/A -   "
3.06, 127.383, 0.00524528, NaN, NaN, NaN, 0.04089605, "- N/A -   "
3.11, 130.096, 0.005345247, NaN, NaN, NaN, 0.0335714, "- N/A -   "
3.16, 132.219, 0.00542855, NaN, NaN, NaN, 0.0335714, "- N/A -   "
3.21, 134.46, 0.005511852, NaN, NaN, NaN, 0.0335714, "- N/A -   "
3.26, 136.583, 0.005592378, NaN, NaN, NaN, 0.0347922, "- N/A -   "
3.31, 138.824, 0.00567846, NaN, NaN, NaN, 0.0335714, "- N/A -   "
3.36, 141.183, 0.00577009, NaN, NaN, NaN, 0.0299091, "- N/A -   "
3.41, 143.424, 0.00585339, NaN, NaN, NaN, 0.0299091, "- N/A -   "
3.46, 145.547, 0.005931142, NaN, NaN, NaN, 0.0323506, "- N/A -   "
3.51, 147.316, 0.006003338, NaN, NaN, NaN, 0.0372337, "- N/A -   "
3.56, 149.204, 0.00607553, NaN, NaN, NaN, 0.0433376, "- N/A -   "
3.61, 150.973, 0.00614773, NaN, NaN, NaN, 0.0482207, "- N/A -   "
3.66, 153.332, 0.00623658, NaN, NaN, NaN, 0.04699994, "- N/A -   "
3.71, 156.0445, 0.00633377, NaN, NaN, NaN, 0.0396753, "- N/A -   "
3.76, 158.521, 0.006425404, NaN, NaN, NaN, 0.03601294, "- N/A -   "
3.81, 160.644, 0.006511484, NaN, NaN, NaN, 0.0347922, "- N/A -   "
3.86, 162.885, 0.006597562, NaN, NaN, NaN, 0.0347922, "- N/A -   "
3.91, 165.126, 0.006683642, NaN, NaN, NaN, 0.0323506, "- N/A -   "
3.96, 167.485, 0.006772498, NaN, NaN, NaN, 0.0299091, "- N/A -   "
4.01, 169.491, 0.006853024, NaN, NaN, NaN, 0.03112983, "- N/A -   "
4.06, 171.614, 0.00693355, NaN, NaN, NaN, 0.0323506, "- N/A -   "
4.11, 173.501, 0.00700852, NaN, NaN, NaN, 0.03601294, "- N/A -   "
4.16, 175.27, 0.007080717, NaN, NaN, NaN, 0.04089605, "- N/A -   "
4.21, 177.1571, 0.00715569, NaN, NaN, NaN, 0.0445584, "- N/A -   "
4.26, 179.3981, 0.00724177, NaN, NaN, NaN, 0.0445584, "- N/A -   "
4.31, 181.639, 0.00732229, NaN, NaN, NaN, 0.0445584, "- N/A -   "
4.36, 183.762, 0.00741115, NaN, NaN, NaN, 0.04211683, "- N/A -   "
4.41, 186.121, 0.00749723, NaN, NaN, NaN, 0.04089605, "- N/A -   "
4.46, 188.598, 0.007594417, NaN, NaN, NaN, 0.0347922, "- N/A -   "
4.51, 191.193, 0.00768883, NaN, NaN, NaN, 0.0299091, "- N/A -   "
4.56, 193.198, 0.00777491, NaN, NaN, NaN, 0.0286883, "- N/A -   "
4.61, 195.321, 0.007855431, NaN, NaN, NaN, 0.0299091, "- N/A -   "
4.66, 197.208, 0.007927627, NaN, NaN, NaN, 0.0347922, "- N/A -   "
4.71, 199.095, 0.008008153, NaN, NaN, NaN, 0.03601294, "- N/A -   "
4.76, 201.336, 0.008094232, NaN, NaN, NaN, 0.0347922, "- N/A -   "
4.81, 203.2235, 0.00817476, NaN, NaN, NaN, 0.03601294, "- N/A -   "
4.86, 205.2286, 0.008252507, NaN, NaN, NaN, 0.0384545, "- N/A -   "
4.91, 206.9978, 0.008330256, NaN, NaN, NaN, 0.04089605, "- N/A -   "
4.96, 208.885, 0.008405227, NaN, NaN, NaN, 0.0445584, "- N/A -   "
5.01, 210.772, 0.008482977, NaN, NaN, NaN, 0.04699994, "- N/A -   "
5.06, 213.485, 0.00858572, NaN, NaN, NaN, 0.0396753, "- N/A -   "
5.11, 215.962, 0.008682903, NaN, NaN, NaN, 0.0323506, "- N/A -   "
5.16, 218.085, 0.008768982, NaN, NaN, NaN, 0.03112983, "- N/A -   "
5.21, 219.8541, 0.008846732, NaN, NaN, NaN, 0.0335714, "- N/A -   "
5.26, 221.741, 0.00892448, NaN, NaN, NaN, 0.03601294, "- N/A -   "
5.31, 223.6284, 0.009005006, NaN, NaN, NaN, 0.0372337, "- N/A -   "
5.36, 225.8694, 0.009093862, NaN, NaN, NaN, 0.0347922, "- N/A -   "
5.41, 228.11, 0.009182718, NaN, NaN, NaN, 0.0323506, "- N/A -   "
5.46, 229.998, 0.009263244, NaN, NaN, NaN, 0.0335714, "- N/A -   "
5.51, 231.767, 0.00933544, NaN, NaN, NaN, 0.0384545, "- N/A -   "
5.56, 233.536, 0.009410412, NaN, NaN, NaN, 0.04211683, "- N/A -   "
5.61, 235.659, 0.009496491, NaN, NaN, NaN, 0.04089605, "- N/A -   "
5.66, 237.7821, 0.00957979, NaN, NaN, NaN, 0.04089605, "- N/A -   "
5.71, 239.787, 0.009665873, NaN, NaN, NaN, 0.0396753, "- N/A -   "
5.76, 242.028, 0.009757506, NaN, NaN, NaN, 0.03601294, "- N/A -   "
5.81, 243.914, 0.009838033, NaN, NaN, NaN, 0.0372337, "- N/A -   "
5.86, 245.917, 0.009921335, NaN, NaN, NaN, 0.0372337, "- N/A -   "
5.91, 248.038, 0.01001019, NaN, NaN, NaN, 0.0347922, "- N/A -   "
5.96, 250.277, 0.0101018, NaN, NaN, NaN, 0.0323506, "- N/A -   "
6.01, 252.162, 0.0101823, NaN, NaN, NaN, 0.0323506, "- N/A -   "
6.06, 254.165, 0.0102657, NaN, NaN, NaN, 0.0323506, "- N/A -   "
6.11, 256.05, 0.0103406, NaN, NaN, NaN, 0.03601294, "- N/A -   "
6.16, 258.053, 0.0104267, NaN, NaN, NaN, 0.0347922, "- N/A -   "
6.21, 259.938, 0.0105128, NaN, NaN, NaN, 0.0347922, "- N/A -   "
6.26, 261.8235, 0.0105905, NaN, NaN, NaN, 0.03601294, "- N/A -   "
6.31, 263.473, 0.0106627, NaN, NaN, NaN, 0.04089605, "- N/A -   "
6.36, 265.358, 0.0107377, NaN, NaN, NaN, 0.0445584, "- N/A -   "
6.41, 267.243, 0.010821, NaN, NaN, NaN, 0.04577916, "- N/A -   "
6.46, 269.6, 0.0109126, NaN, NaN, NaN, 0.04089605, "- N/A -   "
6.51, 271.9565, 0.0110098, NaN, NaN, NaN, 0.0347922, "- N/A -   "
6.56, 273.96, 0.0110987, NaN, NaN, NaN, 0.0323506, "- N/A -   "
6.61, 275.8448, 0.0111792, NaN, NaN, NaN, 0.0335714, "- N/A -   "
6.66, 277.73, 0.0112625, NaN, NaN, NaN, 0.0335714, "- N/A -   "
6.71, 279.733, 0.0113514, NaN, NaN, NaN, 0.03112983, "- N/A -   "
6.76, 281.972, 0.0114458, NaN, NaN, NaN, 0.0262467, "- N/A -   "
6.81, 283.6213, 0.01152352, NaN, NaN, NaN, 0.0286883, "- N/A -   "
6.86, 285.271, 0.0115985, NaN, NaN, NaN, 0.0335714, "- N/A -   "
6.91, 286.8026, 0.0116651, NaN, NaN, NaN, 0.0396753, "- N/A -   "
6.96, 288.334, 0.01173733, NaN, NaN, NaN, 0.0445584, "- N/A -   "
7.01, 290.3374, 0.0118179, NaN, NaN, NaN, 0.04577916, "- N/A -   "
7.06, 292.105, 0.0118984, NaN, NaN, NaN, 0.04699994, "- N/A -   "
7.11, 294.4613, 0.0119928, NaN, NaN, NaN, 0.04211683, "- N/A -   "
7.16, 296.582, 0.0120844, NaN, NaN, NaN, 0.0384545, "- N/A -   "
7.21, 298.821, 0.0121761, NaN, NaN, NaN, 0.0347922, "- N/A -   "
7.26, 300.8239, 0.01226769, NaN, NaN, NaN, 0.0323506, "- N/A -   "
7.31, 302.827, 0.0123538, NaN, NaN, NaN, 0.0299091, "- N/A -   "
7.36, 304.7122, 0.0124426, NaN, NaN, NaN, 0.0274675, "- N/A -   "
7.41, 306.597, 0.01252315, NaN, NaN, NaN, 0.0286883, "- N/A -   "
7.46, 308.247, 0.0126037, NaN, NaN, NaN, 0.0299091, "- N/A -   "
7.51, 310.014, 0.0126759, NaN, NaN, NaN, 0.0347922, "- N/A -   "
7.56, 311.6639, 0.0127536, NaN, NaN, NaN, 0.0372337, "- N/A -   "
7.61, 313.4313, 0.0128286, NaN, NaN, NaN, 0.04211683, "- N/A -   "
7.66, 315.317, 0.0129091, NaN, NaN, NaN, 0.04211683, "- N/A -   "
7.71, 317.202, 0.0129896, NaN, NaN, NaN, 0.0433376, "- N/A -   "
7.76, 319.087, 0.0130702, NaN, NaN, NaN, 0.0445584, "- N/A -   "
7.81, 321.208, 0.013159, NaN, NaN, NaN, 0.04211683, "- N/A -   "
7.86, 323.564, 0.0132562, NaN, NaN, NaN, 0.03601294, "- N/A -   "
7.91, 325.921, 0.013359, NaN, NaN, NaN, 0.0274675, "- N/A -   "
7.96, 327.688, 0.0134367, NaN, NaN, NaN, 0.0299091, "- N/A -   "
8.01, 329.573, 0.0135172, NaN, NaN, NaN, 0.03112983, "- N/A -   "
8.06, 331.4587, 0.0136005, NaN, NaN, NaN, 0.03112983, "- N/A -   "
8.11, 333.226, 0.0136783, NaN, NaN, NaN, 0.0347922, "- N/A -   "
8.16, 334.9935, 0.0137588, NaN, NaN, NaN, 0.03601294, "- N/A -   "
8.21, 337.114, 0.0138421, NaN, NaN, NaN, 0.03601294, "- N/A -   "
8.26, 338.764, 0.0139199, NaN, NaN, NaN, 0.0384545, "- N/A -   "
8.31, 340.6491, 0.0139948, NaN, NaN, NaN, 0.04211683, "- N/A -   "
8.36, 342.417, 0.0140726, NaN, NaN, NaN, 0.0445584, "- N/A -   "
8.41, 344.302, 0.0141531, NaN, NaN, NaN, 0.04577916, "- N/A -   "
8.46, 346.54, 0.0142447, NaN, NaN, NaN, 0.04211683, "- N/A -   "
8.51, 348.897, 0.0143447, NaN, NaN, NaN, 0.0347922, "- N/A -   "
8.56, 351.018, 0.0144363, NaN, NaN, NaN, 0.03112983, "- N/A -   "
8.61, 352.903, 0.0145224, NaN, NaN, NaN, 0.03112983, "- N/A -   "
8.66, 354.6704, 0.0145946, NaN, NaN, NaN, 0.0347922, "- N/A -   "
8.71, 356.556, 0.0146751, NaN, NaN, NaN, 0.03601294, "- N/A -   "
8.76, 358.6765, 0.0147612, NaN, NaN, NaN, 0.03601294, "- N/A -   "
8.81, 360.7974, 0.0148445, NaN, NaN, NaN, 0.0347922, "- N/A -   "
8.86, 362.6826, 0.0149306, NaN, NaN, NaN, 0.0335714, "- N/A -   "
8.91, 364.45, 0.0150083, NaN, NaN, NaN, 0.03601294, "- N/A -   "
8.96, 366.217, 0.0150833, NaN, NaN, NaN, 0.0396753, "- N/A -   "
9.01, 367.985, 0.0151611, NaN, NaN, NaN, 0.04211683, "- N/A -   "
9.06, 370.459, 0.0152555, NaN, NaN, NaN, 0.0372337, "- N/A -   "
9.11, 372.227, 0.0153332, NaN, NaN, NaN, 0.0396753, "- N/A -   "
9.16, 374.23, 0.0154193, NaN, NaN, NaN, 0.0384545, "- N/A -   "
9.21, 376.35, 0.0155054, NaN, NaN, NaN, 0.0372337, "- N/A -   "
9.26, 378.4713, 0.0155942, NaN, NaN, NaN, 0.03601294, "- N/A -   "
9.31, 380.474, 0.0156748, NaN, NaN, NaN, 0.03601294, "- N/A -   "
9.36, 382.36, 0.0157581, NaN, NaN, NaN, 0.03601294, "- N/A -   "
9.41, 384.48, 0.0158441, NaN, NaN, NaN, 0.0347922, "- N/A -   "
9.46, 386.601, 0.0159302, NaN, NaN, NaN, 0.0335714, "- N/A -   "
9.51, 388.487, 0.01601075, NaN, NaN, NaN, 0.0347922, "- N/A -   "
9.56, 390.49, 0.0160941, NaN, NaN, NaN, 0.0347922, "- N/A -   "
9.61, 392.3748, 0.0161801, NaN, NaN, NaN, 0.0335714, "- N/A -   "
9.66, 394.142, 0.0162551, NaN, NaN, NaN, 0.0372337, "- N/A -   "
9.71, 396.027, 0.0163329, NaN, NaN, NaN, 0.0396753, "- N/A -   "
9.76, 397.9126, 0.0164106, NaN, NaN, NaN, 0.04211683, "- N/A -   "
9.81, 399.798, 0.0164911, NaN, NaN, NaN, 0.0445584, "- N/A -   "
9.86, 401.9187, 0.0165717, NaN, NaN, NaN, 0.0445584, "- N/A -   "
9.91, 404.393, 0.0166688, NaN, NaN, NaN, 0.0384545, "- N/A -   "
9.96, 406.514, 0.0167633, NaN, NaN, NaN, 0.0335714, "- N/A -   "
10.01, 408.517, 0.0168466, NaN, NaN, NaN, 0.0335714, "- N/A -   "
10.06, 410.402, 0.0169271, NaN, NaN, NaN, 0.0347922, "- N/A -   "
10.11, 412.641, 0.0170159, NaN, NaN, NaN, 0.0323506, "- N/A -   "
10.16, 414.644, 0.017102, NaN, NaN, NaN, 0.03112983, "- N/A -   "
10.21, 416.647, 0.0171881, NaN, NaN, NaN, 0.0299091, "- N/A -   "
10.26, 418.65, 0.0172658, NaN, NaN, NaN, 0.0323506, "- N/A -   "
10.31, 420.4174, 0.0173436, NaN, NaN, NaN, 0.0347922, "- N/A -   "
10.36, 421.949, 0.0174102, NaN, NaN, NaN, 0.04211683, "- N/A -   "
10.41, 423.952, 0.01749076, NaN, NaN, NaN, 0.0433376, "- N/A -   "
10.46, 425.955, 0.0175741, NaN, NaN, NaN, 0.0433376, "- N/A -   "
10.51, 428.076, 0.0176601, NaN, NaN, NaN, 0.04211683, "- N/A -   "
10.56, 430.197, 0.0177518, NaN, NaN, NaN, 0.0396753, "- N/A -   "
10.61, 432.5535, 0.0178434, NaN, NaN, NaN, 0.0347922, "- N/A -   "
10.66, 434.557, 0.0179295, NaN, NaN, NaN, 0.0335714, "- N/A -   "
10.71, 436.7952, 0.0180156, NaN, NaN, NaN, 0.0323506, "- N/A -   "
10.76, 438.798, 0.0180989, NaN, NaN, NaN, 0.0323506, "- N/A -   "
10.81, 440.919, 0.0181877, NaN, NaN, NaN, 0.0299091, "- N/A -   "
10.86, 443.1578, 0.01827658, NaN, NaN, NaN, 0.0274675, "- N/A -   "
10.91, 445.043, 0.01835433, NaN, NaN, NaN, 0.0299091, "- N/A -   "
10.96, 446.928, 0.0184321, NaN, NaN, NaN, 0.0323506, "- N/A -   "
11.01, 448.578, 0.0185015, NaN, NaN, NaN, 0.0384545, "- N/A -   "
11.06, 450.3452, 0.01857647, NaN, NaN, NaN, 0.04211683, "- N/A -   "
11.11, 452.348, 0.018657, NaN, NaN, NaN, 0.0433376, "- N/A -   "
11.16, 454.351, 0.0187375, NaN, NaN, NaN, 0.0445584, "- N/A -   "
11.21, 456.59, 0.0188292, NaN, NaN, NaN, 0.04089605, "- N/A -   "
11.26, 458.829, 0.0189152, NaN, NaN, NaN, 0.0396753, "- N/A -   "
11.31, 461.067, 0.01900409, NaN, NaN, NaN, 0.0372337, "- N/A -   "
11.36, 463.07, 0.0190902, NaN, NaN, NaN, 0.03601294, "- N/A -   "
11.41, 465.309, 0.019179, NaN, NaN, NaN, 0.0335714, "- N/A -   "
11.46, 467.666, 0.0192707, NaN, NaN, NaN, 0.0299091, "- N/A -   "
11.51, 469.6687, 0.0193512, NaN, NaN, NaN, 0.03112983, "- N/A -   "
11.56, 471.318, 0.0194234, NaN, NaN, NaN, 0.03601294, "- N/A -   "
11.61, 473.439, 0.0195039, NaN, NaN, NaN, 0.0372337, "- N/A -   "
11.66, 475.56, 0.01959, NaN, NaN, NaN, 0.03601294, "- N/A -   "
11.71, 477.3274, 0.019665, NaN, NaN, NaN, 0.0396753, "- N/A -   "
11.76, 479.33, 0.0197455, NaN, NaN, NaN, 0.04089605, "- N/A -   "
11.81, 481.3335, 0.01982323, NaN, NaN, NaN, 0.0433376, "- N/A -   "
11.86, 483.808, 0.0199176, NaN, NaN, NaN, 0.0384545, "- N/A -   "
11.91, 486.164, 0.02001205, NaN, NaN, NaN, 0.0335714, "- N/A -   "
11.96, 488.403, 0.02009813, NaN, NaN, NaN, 0.0323506, "- N/A -   "
12.01, 490.5239, 0.020187, NaN, NaN, NaN, 0.0299091, "- N/A -   "
12.06, 492.527, 0.02026751, NaN, NaN, NaN, 0.03112983, "- N/A -   "
12.11, 494.412, 0.0203397, NaN, NaN, NaN, 0.03601294, "- N/A -   "
12.16, 496.2974, 0.0204202, NaN, NaN, NaN, 0.0372337, "- N/A -   "
12.21, 498.772, 0.0205119, NaN, NaN, NaN, 0.0335714, "- N/A -   "
12.26, 501.01, 0.0205979, NaN, NaN, NaN, 0.0323506, "- N/A -   "
12.31, 503.0135, 0.0206757, NaN, NaN, NaN, 0.0347922, "- N/A -   "
12.36, 504.781, 0.0207534, NaN, NaN, NaN, 0.0372337, "- N/A -   "
12.41, 506.7839, 0.0208284, NaN, NaN, NaN, 0.04089605, "- N/A -   "
12.46, 508.9048, 0.0209145, NaN, NaN, NaN, 0.0396753, "- N/A -   "
12.51, 511.026, 0.0209978, NaN, NaN, NaN, 0.04089605, "- N/A -   "
12.56, 513.264, 0.0210839, NaN, NaN, NaN, 0.0384545, "- N/A -   "
12.61, 515.6291, 0.02117551, NaN, NaN, NaN, 0.03601294, "- N/A -   "
12.66, 517.64, 0.021256, NaN, NaN, NaN, 0.0372337, "- N/A -   "
12.71, 519.7689, 0.0213421, NaN, NaN, NaN, 0.0372337, "- N/A -   "
12.76, 522.0162, 0.021431, NaN, NaN, NaN, 0.0335714, "- N/A -   "
12.81, 524.264, 0.0215198, NaN, NaN, NaN, 0.03112983, "- N/A -   "
12.86, 526.393, 0.0216004, NaN, NaN, NaN, 0.0323506, "- N/A -   "
12.91, 528.2851, 0.0216781, NaN, NaN, NaN, 0.0347922, "- N/A -   "
12.96, 530.2959, 0.0217559, NaN, NaN, NaN, 0.0372337, "- N/A -   "
13.01, 532.7798, 0.0218475, NaN, NaN, NaN, 0.0335714, "- N/A -   "
13.06, 534.672, 0.0219252, NaN, NaN, NaN, 0.03601294, "- N/A -   "
13.11, 536.683, 0.022003, NaN, NaN, NaN, 0.0384545, "- N/A -   "
13.16, 538.576, 0.02208073, NaN, NaN, NaN, 0.04089605, "- N/A -   "
13.21, 540.468, 0.0221529, NaN, NaN, NaN, 0.04577916, "- N/A -   "
13.26, 542.715, 0.0222418, NaN, NaN, NaN, 0.0433376, "- N/A -   "
13.31, 545.081, 0.0223334, NaN, NaN, NaN, 0.0396753, "- N/A -   "
13.36, 547.5649, 0.0224223, NaN, NaN, NaN, 0.0372337, "- N/A -   "
13.41, 549.812, 0.0225139, NaN, NaN, NaN, 0.0335714, "- N/A -   "
13.46, 551.9413, 0.02259443, NaN, NaN, NaN, 0.0347922, "- N/A -   "
13.51, 553.952, 0.022675, NaN, NaN, NaN, 0.03601294, "- N/A -   "
13.56, 556.3177, 0.0227666, NaN, NaN, NaN, 0.0323506, "- N/A -   "
13.61, 558.565, 0.0228527, NaN, NaN, NaN, 0.03112983, "- N/A -   "
13.66, 560.576, 0.0229332, NaN, NaN, NaN, 0.0323506, "- N/A -   "
13.71, 562.587, 0.0230109, NaN, NaN, NaN, 0.0347922, "- N/A -   "
13.76, 564.1242, 0.0230776, NaN, NaN, NaN, 0.0433376, "- N/A -   "
13.81, 566.135, 0.02314978, NaN, NaN, NaN, 0.04699994, "- N/A -   "
13.86, 568.264, 0.02323586, NaN, NaN, NaN, 0.04577916, "- N/A -   "
13.91, 570.63, 0.0233219, NaN, NaN, NaN, 0.0445584, "- N/A -   "
13.96, 573.2318, 0.02341635, NaN, NaN, NaN, 0.0396753, "- N/A -   "
14.01, 575.5975, 0.02350798, NaN, NaN, NaN, 0.03601294, "- N/A -   "
14.06, 577.7265, 0.02359406, NaN, NaN, NaN, 0.0347922, "- N/A -   "
14.11, 580.092, 0.0236857, NaN, NaN, NaN, 0.03112983, "- N/A -   "
14.16, 582.4577, 0.0237773, NaN, NaN, NaN, 0.0274675, "- N/A -   "
14.21, 584.5868, 0.0238579, NaN, NaN, NaN, 0.0286883, "- N/A -   "
14.26, 586.7158, 0.0239412, NaN, NaN, NaN, 0.0286883, "- N/A -   "
14.31, 588.608, 0.0240161, NaN, NaN, NaN, 0.0335714, "- N/A -   "
14.36, 590.501, 0.0240883, NaN, NaN, NaN, 0.0372337, "- N/A -   "
14.41, 592.275, 0.0241605, NaN, NaN, NaN, 0.04211683, "- N/A -   "
14.46, 594.2858, 0.0242383, NaN, NaN, NaN, 0.0445584, "- N/A -   "
14.51, 596.7697, 0.0243271, NaN, NaN, NaN, 0.04211683, "- N/A -   "
14.56, 598.8988, 0.0244076, NaN, NaN, NaN, 0.0433376, "- N/A -   "
14.61, 601.1461, 0.0244965, NaN, NaN, NaN, 0.04089605, "- N/A -   "
14.66, 603.7483, 0.0245909, NaN, NaN, NaN, 0.0372337, "- N/A -   "
14.71, 606.35, 0.0246853, NaN, NaN, NaN, 0.03112983, "- N/A -   "
14.76, 608.4795, 0.0247714, NaN, NaN, NaN, 0.0299091, "- N/A -   "
14.81, 610.6086, 0.0248575, NaN, NaN, NaN, 0.0286883, "- N/A -   "
14.86, 612.8559, 0.0249352, NaN, NaN, NaN, 0.03112983, "- N/A -   "
14.91, 614.7484, 0.0250102, NaN, NaN, NaN, 0.0347922, "- N/A -   "
14.96, 616.7592, 0.025088, NaN, NaN, NaN, 0.0372337, "- N/A -   "
15.01, 619.125, 0.0251713, NaN, NaN, NaN, 0.0384545, "- N/A -   "
15.06, 621.136, 0.0252546, NaN, NaN, NaN, 0.0372337, "- N/A -   "
15.11, 623.2646, 0.0253295, NaN, NaN, NaN, 0.04211683, "- N/A -   "
15.16, 625.0389, 0.0254045, NaN, NaN, NaN, 0.0445584, "- N/A -   "
15.21, 627.1679, 0.025485, NaN, NaN, NaN, 0.04577916, "- N/A -   "
15.26, 629.533, 0.0255711, NaN, NaN, NaN, 0.0445584, "- N/A -   "
15.31, 632.254, 0.0256738, NaN, NaN, NaN, 0.03601294, "- N/A -   "
15.36, 634.8562, 0.0257683, NaN, NaN, NaN, 0.03112983, "- N/A -   "
15.41, 637.222, 0.0258543, NaN, NaN, NaN, 0.0299091, "- N/A -   "
15.46, 639.3508, 0.0259349, NaN, NaN, NaN, 0.03112983, "- N/A -   "
15.51, 641.3616, 0.0260154, NaN, NaN, NaN, 0.0323506, "- N/A -   "
15.56, 643.491, 0.0260931, NaN, NaN, NaN, 0.0347922, "- N/A -   "
15.61, 645.975, 0.02618477, NaN, NaN, NaN, 0.03112983, "- N/A -   "
15.66, 648.104, 0.0262681, NaN, NaN, NaN, 0.03112983, "- N/A -   "
15.71, 649.9961, 0.0263403, NaN, NaN, NaN, 0.03601294, "- N/A -   "
15.76, 651.8886, 0.026418, NaN, NaN, NaN, 0.0396753, "- N/A -   "
15.81, 653.899, 0.0264902, NaN, NaN, NaN, 0.0433376, "- N/A -   "
15.86, 656.265, 0.0265791, NaN, NaN, NaN, 0.04089605, "- N/A -   "
15.91, 658.6306, 0.0266651, NaN, NaN, NaN, 0.0396753, "- N/A -   "
15.96, 660.878, 0.02674845, NaN, NaN, NaN, 0.0396753, "- N/A -   "
16.01, 663.2435, 0.0268373, NaN, NaN, NaN, 0.0372337, "- N/A -   "
16.06, 665.609, 0.0269262, NaN, NaN, NaN, 0.0347922, "- N/A -   "
16.11, 667.7382, 0.02700669, NaN, NaN, NaN, 0.03601294, "- N/A -   "
16.16, 669.867, 0.0270928, NaN, NaN, NaN, 0.03601294, "- N/A -   "
16.21, 672.3512, 0.0271788, NaN, NaN, NaN, 0.0335714, "- N/A -   "
16.26, 674.7168, 0.0272677, NaN, NaN, NaN, 0.03112983, "- N/A -   "
16.31, 676.8459, 0.0273482, NaN, NaN, NaN, 0.0323506, "- N/A -   "
16.36, 678.857, 0.027426, NaN, NaN, NaN, 0.0347922, "- N/A -   "
16.41, 681.104, 0.0275148, NaN, NaN, NaN, 0.0323506, "- N/A -   "
16.46, 683.233, 0.0275926, NaN, NaN, NaN, 0.0347922, "- N/A -   "
16.51, 685.1255, 0.0276676, NaN, NaN, NaN, 0.0384545, "- N/A -   "
16.56, 687.491, 0.02774808, NaN, NaN, NaN, 0.0396753, "- N/A -   "
16.61, 689.5019, 0.0278286, NaN, NaN, NaN, 0.04089605, "- N/A -   "
16.66, 691.6309, 0.02790358, NaN, NaN, NaN, 0.0445584, "- N/A -   "
16.71, 693.8783, 0.0279897, NaN, NaN, NaN, 0.0433376, "- N/A -   "
16.76, 696.3622, 0.02808407, NaN, NaN, NaN, 0.0384545, "- N/A -   "
16.81, 698.846, 0.0281729, NaN, NaN, NaN, 0.03601294, "- N/A -   "
16.86, 700.8569, 0.028259, NaN, NaN, NaN, 0.0347922, "- N/A -   "
16.91, 703.1042, 0.02833953, NaN, NaN, NaN, 0.03601294, "- N/A -   "
16.96, 705.588, 0.0284367, NaN, NaN, NaN, 0.0299091, "- N/A -   "
17.01, 708.3086, 0.0285339, NaN, NaN, NaN, 0.0238052, "- N/A -   "
17.06, 710.3193, 0.0286089, NaN, NaN, NaN, 0.0274675, "- N/A -   "
17.11, 712.3301, 0.0286866, NaN, NaN, NaN, 0.03112983, "- N/A -   "
17.16, 713.986, 0.0287533, NaN, NaN, NaN, 0.0384545, "- N/A -   "
17.21, 715.879, 0.02882546, NaN, NaN, NaN, 0.0433376, "- N/A -   "
17.26, 717.8893, 0.0289032, NaN, NaN, NaN, 0.04577916, "- N/A -   "
17.31, 720.373, 0.02898929, NaN, NaN, NaN, 0.0445584, "- N/A -   "
17.36, 722.7388, 0.0290781, NaN, NaN, NaN, 0.04211683, "- N/A -   "
17.41, 725.341, 0.0291753, NaN, NaN, NaN, 0.0372337, "- N/A -   "
17.46, 727.7066, 0.029267, NaN, NaN, NaN, 0.0323506, "- N/A -   "
17.51, 729.8357, 0.0293447, NaN, NaN, NaN, 0.0347922, "- N/A -   "
17.56, 732.3196, 0.02943357, NaN, NaN, NaN, 0.0323506, "- N/A -   "
17.61, 734.5669, 0.0295224, NaN, NaN, NaN, 0.03112983, "- N/A -   "
17.66, 736.933, 0.0296057, NaN, NaN, NaN, 0.0299091, "- N/A -   "
17.71, 738.825, 0.0296807, NaN, NaN, NaN, 0.0335714, "- N/A -   "
17.76, 740.717, 0.0297557, NaN, NaN, NaN, 0.0372337, "- N/A -   "
17.81, 742.7283, 0.0298334, NaN, NaN, NaN, 0.0396753, "- N/A -   "
17.86, 744.7391, 0.02990562, NaN, NaN, NaN, 0.04577916, "- N/A -   "
17.91, 746.9864, 0.02998892, NaN, NaN, NaN, 0.0445584, "- N/A -   "
17.96, 749.352, 0.030075, NaN, NaN, NaN, 0.0433376, "- N/A -   "
18.01, 751.5993, 0.0301583, NaN, NaN, NaN, 0.0433376, "- N/A -   "
18.06, 753.965, 0.0302499, NaN, NaN, NaN, 0.04089605, "- N/A -   "
18.11, 756.6854, 0.0303443, NaN, NaN, NaN, 0.0347922, "- N/A -   "
18.16, 759.1693, 0.03044153, NaN, NaN, NaN, 0.0299091, "- N/A -   "
18.21, 761.4166, 0.0305221, NaN, NaN, NaN, 0.0299091, "- N/A -   "
18.26, 763.9006, 0.0306109, NaN, NaN, NaN, 0.0274675, "- N/A -   "
18.31, 765.9113, 0.0306859, NaN, NaN, NaN, 0.03112983, "- N/A -   "
18.36, 767.9221, 0.0307636, NaN, NaN, NaN, 0.0335714, "- N/A -   "
18.41, 769.933, 0.0308386, NaN, NaN, NaN, 0.0372337, "- N/A -   "
18.46, 772.298, 0.0309275, NaN, NaN, NaN, 0.0347922, "- N/A -   "
18.51, 774.428, 0.0310052, NaN, NaN, NaN, 0.0372337, "- N/A -   "
18.56, 776.0835, 0.03107463, NaN, NaN, NaN, 0.0433376, "- N/A -   "
18.61, 778.3308, 0.0311524, NaN, NaN, NaN, 0.04577916, "- N/A -   "
18.66, 780.6964, 0.0312357, NaN, NaN, NaN, 0.04577916, "- N/A -   "
18.71, 783.2986, 0.03133287, NaN, NaN, NaN, 0.0396753, "- N/A -   "
18.76, 786.019, 0.0314301, NaN, NaN, NaN, 0.0347922, "- N/A -   "
18.81, 788.5029, 0.03152169, NaN, NaN, NaN, 0.0299091, "- N/A -   "
18.86, 790.514, 0.0315967, NaN, NaN, NaN, 0.0335714, "- N/A -   "
18.91, 792.288, 0.0316689, NaN, NaN, NaN, 0.0384545, "- N/A -   "
18.96, 794.772, 0.0317549, NaN, NaN, NaN, 0.0372337, "- N/A -   "
19.01, 797.256, 0.0318466, NaN, NaN, NaN, 0.0335714, "- N/A -   "
19.06, 799.7397, 0.0319326, NaN, NaN, NaN, 0.0323506, "- N/A -   "
19.11, 801.6321, 0.0320104, NaN, NaN, NaN, 0.0347922, "- N/A -   "
19.16, 803.761, 0.03209092, NaN, NaN, NaN, 0.03601294, "- N/A -   "
19.21, 805.89, 0.0321659, NaN, NaN, NaN, 0.0396753, "- N/A -   "
19.26, 808.1376, 0.032252, NaN, NaN, NaN, 0.0384545, "- N/A -   "
19.31, 810.1484, 0.0323297, NaN, NaN, NaN, 0.04089605, "- N/A -   "
19.36, 812.514, 0.03241025, NaN, NaN, NaN, 0.04211683, "- N/A -   "
19.41, 814.88, 0.0324991, NaN, NaN, NaN, 0.0396753, "- N/A -   "
19.46, 817.2452, 0.03258796, NaN, NaN, NaN, 0.0372337, "- N/A -   "
19.51, 819.374, 0.0326685, NaN, NaN, NaN, 0.0384545, "- N/A -   "
19.56, 821.858, 0.0327601, NaN, NaN, NaN, 0.0347922, "- N/A -   "
19.61, 824.342, 0.0328518, NaN, NaN, NaN, 0.0323506, "- N/A -   "
19.66, 826.708, 0.03293783, NaN, NaN, NaN, 0.0299091, "- N/A -   "
19.71, 828.955, 0.0330211, NaN, NaN, NaN, 0.0299091, "- N/A -   "
19.76, 831.0841, 0.03309888, NaN, NaN, NaN, 0.0323506, "- N/A -   "
19.81, 833.3314, 0.0331822, NaN, NaN, NaN, 0.0323506, "- N/A -   "
19.86, 835.5787, 0.03326271, NaN, NaN, NaN, 0.0335714, "- N/A -   "
19.91, 837.4712, 0.0333377, NaN, NaN, NaN, 0.0384545, "- N/A -   "
19.96, 839.482, 0.0334127, NaN, NaN, NaN, 0.04089605, "- N/A -   "
20.01, 841.4928, 0.0334904, NaN, NaN, NaN, 0.0433376, "- N/A -   "
20.06, 843.7401, 0.03356815, NaN, NaN, NaN, 0.04577916, "- N/A -   "
20.11, 846.224, 0.0336598, NaN, NaN, NaN, 0.04211683, "- N/A -   "
20.16, 848.9445, 0.0337542, NaN, NaN, NaN, 0.0372337, "- N/A -   "
20.21, 851.3101, 0.03384305, NaN, NaN, NaN, 0.0347922, "- N/A -   "
20.26, 853.5574, 0.0339264, NaN, NaN, NaN, 0.0347922, "- N/A -   "
20.31, 855.686, 0.0340097, NaN, NaN, NaN, 0.03601294, "- N/A -   "
20.36, 858.052, 0.0340985, NaN, NaN, NaN, 0.0335714, "- N/A -   "
20.41, 860.7725, 0.0341901, NaN, NaN, NaN, 0.0286883, "- N/A -   "
20.46, 862.9016, 0.03427067, NaN, NaN, NaN, 0.0299091, "- N/A -   "
20.51, 864.9124, 0.0343456, NaN, NaN, NaN, 0.0335714, "- N/A -   "
20.56, 866.8049, 0.0344178, NaN, NaN, NaN, 0.0384545, "- N/A -   "
20.61, 868.8156, 0.03449, NaN, NaN, NaN, 0.0433376, "- N/A -   "
20.66, 870.8264, 0.0345678, NaN, NaN, NaN, 0.04577916, "- N/A -   "
20.71, 873.1921, 0.03465386, NaN, NaN, NaN, 0.0445584, "- N/A -   "
20.76, 875.9125, 0.0347455, NaN, NaN, NaN, 0.04089605, "- N/A -   "
20.81, 878.278, 0.03483713, NaN, NaN, NaN, 0.0372337, "- N/A -   "
20.86, 880.762, 0.03492876, NaN, NaN, NaN, 0.0335714, "- N/A -   "
20.91, 883.0094, 0.03501484, NaN, NaN, NaN, 0.0323506, "- N/A -   "
20.96, 885.6116, 0.0351037, NaN, NaN, NaN, 0.0299091, "- N/A -   "
21.01, 887.9772, 0.0351926, NaN, NaN, NaN, 0.0274675, "- N/A -   "
21.06, 890.2244, 0.03528141, NaN, NaN, NaN, 0.0262467, "- N/A -   "
21.11, 892.3535, 0.0353536, NaN, NaN, NaN, 0.0299091, "- N/A -   "
21.16, 894.246, 0.0354258, NaN, NaN, NaN, 0.0347922, "- N/A -   "
21.21, 896.139, 0.035498, NaN, NaN, NaN, 0.0396753, "- N/A -   "
21.26, 898.1493, 0.0355757, NaN, NaN, NaN, 0.04211683, "- N/A -   "
21.31, 900.3966, 0.03565627, NaN, NaN, NaN, 0.0433376, "- N/A -   "
21.36, 902.7622, 0.0357396, NaN, NaN, NaN, 0.0433376, "- N/A -   "
21.41, 905.128, 0.03582565, NaN, NaN, NaN, 0.04211683, "- N/A -   "
21.46, 907.493, 0.0359145, NaN, NaN, NaN, 0.0396753, "- N/A -   "
21.51, 909.977, 0.03600614, NaN, NaN, NaN, 0.03601294, "- N/A -   "
21.56, 912.8161, 0.0361061, NaN, NaN, NaN, 0.0286883, "- N/A -   "
21.61, 915.0635, 0.03618663, NaN, NaN, NaN, 0.0299091, "- N/A -   "
21.66, 917.1925, 0.0362672, NaN, NaN, NaN, 0.0323506, "- N/A -   "
21.71, 919.2033, 0.03634213, NaN, NaN, NaN, 0.03601294, "- N/A -   "
21.76, 921.332, 0.0364227, NaN, NaN, NaN, 0.0372337, "- N/A -   "
21.81, 923.698, 0.036506, NaN, NaN, NaN, 0.0372337, "- N/A -   "
21.86, 925.827, 0.0365865, NaN, NaN, NaN, 0.0384545, "- N/A -   "
21.91, 928.074, 0.0366642, NaN, NaN, NaN, 0.04089605, "- N/A -   "
21.96, 930.2034, 0.03674198, NaN, NaN, NaN, 0.0433376, "- N/A -   "
22.01, 932.451, 0.0368225, NaN, NaN, NaN, 0.0445584, "- N/A -   "
22.06, 934.6981, 0.0369086, NaN, NaN, NaN, 0.0433376, "- N/A -   "
22.11, 937.4186, 0.0370058, NaN, NaN, NaN, 0.0372337, "- N/A -   "
22.16, 939.902, 0.0370974, NaN, NaN, NaN, 0.0335714, "- N/A -   "
22.21, 942.505, 0.0371918, NaN, NaN, NaN, 0.0299091, "- N/A -   "
22.26, 944.5154, 0.0372696, NaN, NaN, NaN, 0.03112983, "- N/A -   "
22.31, 946.6445, 0.0373445, NaN, NaN, NaN, 0.0347922, "- N/A -   "
22.36, 948.7735, 0.03742506, NaN, NaN, NaN, 0.03601294, "- N/A -   "
22.41, 951.139, 0.0375084, NaN, NaN, NaN, 0.03601294, "- N/A -   "
22.46, 953.741, 0.03760277, NaN, NaN, NaN, 0.03112983, "- N/A -   "
22.51, 955.87, 0.0376833, NaN, NaN, NaN, 0.0335714, "- N/A -   "
22.56, 957.8811, 0.0377555, NaN, NaN, NaN, 0.0372337, "- N/A -   "
22.61, 959.7736, 0.03783047, NaN, NaN, NaN, 0.04089605, "- N/A -   "
22.66, 962.021, 0.037911, NaN, NaN, NaN, 0.04211683, "- N/A -   "
22.71, 964.5049, 0.03799985, NaN, NaN, NaN, 0.04089605, "- N/A -   "
22.76, 966.6339, 0.0380776, NaN, NaN, NaN, 0.04211683, "- N/A -   "
22.81, 969.1178, 0.0381665, NaN, NaN, NaN, 0.0396753, "- N/A -   "
22.86, 971.602, 0.0382581, NaN, NaN, NaN, 0.03601294, "- N/A -   "
22.91, 973.849, 0.0383442, NaN, NaN, NaN, 0.0347922, "- N/A -   "
22.96, 976.3329, 0.0384302, NaN, NaN, NaN, 0.0347922, "- N/A -   "
23.01, 978.699, 0.0385163, NaN, NaN, NaN, 0.0323506, "- N/A -   "
23.06, 980.591, 0.03859407, NaN, NaN, NaN, 0.0347922, "- N/A -   "
23.11, 982.957, 0.03867738, NaN, NaN, NaN, 0.03601294, "- N/A -   "
23.16, 985.322, 0.0387579, NaN, NaN, NaN, 0.03601294, "- N/A -   "
23.21, 987.451, 0.038844, NaN, NaN, NaN, 0.0347922, "- N/A -   "
23.26, 989.817, 0.0389273, NaN, NaN, NaN, 0.0347922, "- N/A -   "
23.31, 991.8277, 0.0390023, NaN, NaN, NaN, 0.0384545, "- N/A -   "
23.36, 994.0751, 0.0390828, NaN, NaN, NaN, 0.0396753, "- N/A -   "
23.41, 996.0858, 0.0391605, NaN, NaN, NaN, 0.04211683, "- N/A -   "
23.46, 998.3332, 0.0392411, NaN, NaN, NaN, 0.0433376, "- N/A -   "
23.51, 1000.94, 0.0393299, NaN, NaN, NaN, 0.04089605, "- N/A -   "
23.56, 1003.42, 0.0394243, NaN, NaN, NaN, 0.03601294, "- N/A -   "
23.61, 1005.9, 0.03951873, NaN, NaN, NaN, 0.03112983, "- N/A -   "
23.66, 1008.15, 0.039602, NaN, NaN, NaN, 0.03112983, "- N/A -   "
23.71, 1010.28, 0.03968256, NaN, NaN, NaN, 0.0323506, "- N/A -   "
23.76, 1012.65, 0.03976864, NaN, NaN, NaN, 0.0323506, "- N/A -   "
23.81, 1015.15, 0.03986027, NaN, NaN, NaN, 0.0286883, "- N/A -   "
23.86, 1017.65, 0.0399436, NaN, NaN, NaN, 0.0274675, "- N/A -   "
23.91, 1019.68, 0.0400213, NaN, NaN, NaN, 0.0299091, "- N/A -   "
23.96, 1021.47, 0.040088, NaN, NaN, NaN, 0.0372337, "- N/A -   "
24.01, 1023.37, 0.04015738, NaN, NaN, NaN, 0.0433376, "- N/A -   "
24.06, 1025.4, 0.0402351, NaN, NaN, NaN, 0.04699994, "- N/A -   "
24.11, 1027.43, 0.0403129, NaN, NaN, NaN, 0.0494415, "- N/A -   "
24.16, 1030.053, 0.0404045, NaN, NaN, NaN, 0.0445584, "- N/A -   "
24.21, 1032.8, 0.0404989, NaN, NaN, NaN, 0.0396753, "- N/A -   "
24.26, 1035.18, 0.0405933, NaN, NaN, NaN, 0.0347922, "- N/A -   "
24.31, 1037.57, 0.0406794, NaN, NaN, NaN, 0.0335714, "- N/A -   "
24.36, 1040.19, 0.04077105, NaN, NaN, NaN, 0.0299091, "- N/A -   "
24.41, 1042.57, 0.0408571, NaN, NaN, NaN, 0.0286883, "- N/A -   "
24.46, 1044.72, 0.0409377, NaN, NaN, NaN, 0.0299091, "- N/A -   "
24.51, 1046.87, 0.0410182, NaN, NaN, NaN, 0.03112983, "- N/A -   "
24.56, 1048.89, 0.0410959, NaN, NaN, NaN, 0.0335714, "- N/A -   "
24.61, 1050.92, 0.0411709, NaN, NaN, NaN, 0.0372337, "- N/A -   "
24.66, 1052.83, 0.0412431, NaN, NaN, NaN, 0.04211683, "- N/A -   "
24.71, 1055.096, 0.0413264, NaN, NaN, NaN, 0.04211683, "- N/A -   "
24.76, 1057.24, 0.0414041, NaN, NaN, NaN, 0.0445584, "- N/A -   "
24.81, 1059.389, 0.0414847, NaN, NaN, NaN, 0.04577916, "- N/A -   "
24.86, 1062.01, 0.04157908, NaN, NaN, NaN, 0.04089605, "- N/A -   "
24.91, 1064.64, 0.0416735, NaN, NaN, NaN, 0.0372337, "- N/A -   "
24.96, 1067.38, 0.0417679, NaN, NaN, NaN, 0.03112983, "- N/A -   "
25.01, 1069.64, 0.0418512, NaN, NaN, NaN, 0.03112983, "- N/A -   "
25.06, 1072.03, 0.04194006, NaN, NaN, NaN, 0.0286883, "- N/A -   "
25.11, 1074.3, 0.04202336, NaN, NaN, NaN, 0.0286883, "- N/A -   "
25.16, 1076.32, 0.04210111, NaN, NaN, NaN, 0.0323506, "- N/A -   "
25.21, 1078.59, 0.04217886, NaN, NaN, NaN, 0.0335714, "- N/A -   "
25.26, 1080.74, 0.0422594, NaN, NaN, NaN, 0.0347922, "- N/A -   "
25.31, 1082.76, 0.04233714, NaN, NaN, NaN, 0.0372337, "- N/A -   "
25.36, 1084.79, 0.04241211, NaN, NaN, NaN, 0.04211683, "- N/A -   "
25.41, 1086.94, 0.0424899, NaN, NaN, NaN, 0.0433376, "- N/A -   "
25.46, 1088.96, 0.0425648, NaN, NaN, NaN, 0.04699994, "- N/A -   "
25.51, 1091.47, 0.0426537, NaN, NaN, NaN, 0.0445584, "- N/A -   "
25.56, 1094.33, 0.0427564, NaN, NaN, NaN, 0.0372337, "- N/A -   "
25.61, 1096.83, 0.04284528, NaN, NaN, NaN, 0.0335714, "- N/A -   "
25.66, 1099.34, 0.0429369, NaN, NaN, NaN, 0.0299091, "- N/A -   "
25.71, 1101.485, 0.0430147, NaN, NaN, NaN, 0.0323506, "- N/A -   "
25.76, 1103.51, 0.04309241, NaN, NaN, NaN, 0.0347922, "- N/A -   "
25.81, 1105.9, 0.0431785, NaN, NaN, NaN, 0.0335714, "- N/A -   "
25.86, 1108.4, 0.04326457, NaN, NaN, NaN, 0.0323506, "- N/A -   "
25.91, 1110.31, 0.04334232, NaN, NaN, NaN, 0.0347922, "- N/A -   "
25.96, 1112.456, 0.04342007, NaN, NaN, NaN, 0.0372337, "- N/A -   "
26.01, 1114.6, 0.0434978, NaN, NaN, NaN, 0.0396753, "- N/A -   "
26.06, 1116.75, 0.0435756, NaN, NaN, NaN, 0.04211683, "- N/A -   "
26.11, 1119.13, 0.0436589, NaN, NaN, NaN, 0.04211683, "- N/A -   "
26.16, 1121.52, 0.0437477, NaN, NaN, NaN, 0.0396753, "- N/A -   "
26.21, 1124.14, 0.0438394, NaN, NaN, NaN, 0.0372337, "- N/A -   "
26.26, 1126.53, 0.0439282, NaN, NaN, NaN, 0.0347922, "- N/A -   "
26.31, 1128.79, 0.04401152, NaN, NaN, NaN, 0.0347922, "- N/A -   "
26.36, 1130.94, 0.04409482, NaN, NaN, NaN, 0.03601294, "- N/A -   "
26.41, 1133.44, 0.0441837, NaN, NaN, NaN, 0.0335714, "- N/A -   "
26.46, 1135.83, 0.0442698, NaN, NaN, NaN, 0.0323506, "- N/A -   "
26.51, 1138.1, 0.04435028, NaN, NaN, NaN, 0.0323506, "- N/A -   "
26.56, 1140.242, 0.0444308, NaN, NaN, NaN, 0.0335714, "- N/A -   "
26.61, 1142.63, 0.04451411, NaN, NaN, NaN, 0.0335714, "- N/A -   "
26.66, 1144.89, 0.0445974, NaN, NaN, NaN, 0.0335714, "- N/A -   "
26.71, 1146.92, 0.04467238, NaN, NaN, NaN, 0.0372337, "- N/A -   "
26.76, 1148.71, 0.0447446, NaN, NaN, NaN, 0.04211683, "- N/A -   "
26.81, 1151.09, 0.0448279, NaN, NaN, NaN, 0.04211683, "- N/A -   "
26.86, 1153, 0.0449029, NaN, NaN, NaN, 0.04577916, "- N/A -   "
26.91, 1155.63, 0.0449889, NaN, NaN, NaN, 0.0445584, "- N/A -   "
26.96, 1158.01, 0.0450778, NaN, NaN, NaN, 0.04211683, "- N/A -   "
27.01, 1160.634, 0.0451722, NaN, NaN, NaN, 0.0384545, "- N/A -   "
27.06, 1163.14, 0.0452611, NaN, NaN, NaN, 0.0347922, "- N/A -   "
27.11, 1165.404, 0.04534158, NaN, NaN, NaN, 0.03601294, "- N/A -   "
27.16, 1167.67, 0.0454304, NaN, NaN, NaN, 0.0335714, "- N/A -   "
27.21, 1170.41, 0.0455248, NaN, NaN, NaN, 0.0286883, "- N/A -   "
27.26, 1172.68, 0.0456054, NaN, NaN, NaN, 0.0299091, "- N/A -   "
27.31, 1174.825, 0.0456887, NaN, NaN, NaN, 0.03112983, "- N/A -   "
27.36, 1176.85, 0.04576087, NaN, NaN, NaN, 0.0347922, "- N/A -   "
27.41, 1178.52, 0.04582751, NaN, NaN, NaN, 0.04211683, "- N/A -   "
27.46, 1180.55, 0.0459025, NaN, NaN, NaN, 0.04577916, "- N/A -   "
27.51, 1182.7, 0.0459802, NaN, NaN, NaN, 0.0482207, "- N/A -   "
27.56, 1185.32, 0.04607187, NaN, NaN, NaN, 0.0445584, "- N/A -   "
27.61, 1187.94, 0.0461663, NaN, NaN, NaN, 0.0396753, "- N/A -   "
27.66, 1190.69, 0.0462635, NaN, NaN, NaN, 0.0335714, "- N/A -   "
27.71, 1192.95, 0.0463468, NaN, NaN, NaN, 0.0335714, "- N/A -   "
27.76, 1195.46, 0.04643562, NaN, NaN, NaN, 0.03112983, "- N/A -   "
27.81, 1197.96, 0.0465273, NaN, NaN, NaN, 0.0274675, "- N/A -   "
27.86, 1200.23, 0.0466106, NaN, NaN, NaN, 0.0286883, "- N/A -   "
27.91, 1202.49, 0.0466911, NaN, NaN, NaN, 0.0299091, "- N/A -   "
27.96, 1204.52, 0.04676328, NaN, NaN, NaN, 0.0335714, "- N/A -   "
28.01, 1206.43, 0.0468355, NaN, NaN, NaN, 0.0384545, "- N/A -   "
28.06, 1208.57, 0.04691322, NaN, NaN, NaN, 0.04089605, "- N/A -   "
28.11, 1210.6, 0.0469882, NaN, NaN, NaN, 0.0445584, "- N/A -   "
28.16, 1212.747, 0.0470715, NaN, NaN, NaN, 0.04577916, "- N/A -   "
28.21, 1215.01, 0.0471492, NaN, NaN, NaN, 0.04699994, "- N/A -   "
28.26, 1217.52, 0.0472381, NaN, NaN, NaN, 0.0445584, "- N/A -   "
28.31, 1219.783, 0.04732418, NaN, NaN, NaN, 0.0433376, "- N/A -   "
28.36, 1222.64, 0.0474241, NaN, NaN, NaN, 0.0372337, "- N/A -   "
28.41, 1225.39, 0.0475186, NaN, NaN, NaN, 0.03112983, "- N/A -   "
28.46, 1227.77, 0.04760463, NaN, NaN, NaN, 0.0299091, "- N/A -   "
28.51, 1229.8, 0.0476879, NaN, NaN, NaN, 0.03112983, "- N/A -   "
28.56, 1232.185, 0.0477685, NaN, NaN, NaN, 0.03112983, "- N/A -   "
28.61, 1234.21, 0.04784066, NaN, NaN, NaN, 0.03601294, "- N/A -   "
28.66, 1236.359, 0.04791841, NaN, NaN, NaN, 0.0384545, "- N/A -   "
28.71, 1238.86, 0.0480045, NaN, NaN, NaN, 0.0372337, "- N/A -   "
28.76, 1240.89, 0.04808501, NaN, NaN, NaN, 0.0396753, "- N/A -   "
28.81, 1243.037, 0.0481628, NaN, NaN, NaN, 0.04089605, "- N/A -   "
28.86, 1245.18, 0.0482405, NaN, NaN, NaN, 0.0445584, "- N/A -   "
28.91, 1247.57, 0.0483238, NaN, NaN, NaN, 0.0433376, "- N/A -   "
28.96, 1250.43, 0.04842655, NaN, NaN, NaN, 0.03601294, "- N/A -   "
29.01, 1253.05, 0.04852374, NaN, NaN, NaN, 0.0299091, "- N/A -   "
29.06, 1255.44, 0.04860982, NaN, NaN, NaN, 0.0274675, "- N/A -   "
29.11, 1257.47, 0.048682, NaN, NaN, NaN, 0.0323506, "- N/A -   "
29.16, 1259.37, 0.04875421, NaN, NaN, NaN, 0.0372337, "- N/A -   "
29.21, 1261.76, 0.0488375, NaN, NaN, NaN, 0.0372337, "- N/A -   "
29.26, 1264.5, 0.0489319, NaN, NaN, NaN, 0.0323506, "- N/A -   "
29.31, 1266.65, 0.0490152, NaN, NaN, NaN, 0.0323506, "- N/A -   "
29.36, 1268.8, 0.0490902, NaN, NaN, NaN, 0.03601294, "- N/A -   "
29.41, 1270.82, 0.04916517, NaN, NaN, NaN, 0.0396753, "- N/A -   "
29.46, 1272.97, 0.0492429, NaN, NaN, NaN, 0.04211683, "- N/A -   "
29.51, 1275.35, 0.0493318, NaN, NaN, NaN, 0.0396753, "- N/A -   "
29.56, 1277.62, 0.0494123, NaN, NaN, NaN, 0.04089605, "- N/A -   "
29.61, 1280.01, 0.04949838, NaN, NaN, NaN, 0.0396753, "- N/A -   "
29.66, 1282.39, 0.04958168, NaN, NaN, NaN, 0.0396753, "- N/A -   "
29.71, 1284.656, 0.04966498, NaN, NaN, NaN, 0.0396753, "- N/A -   "
29.76, 1286.8, 0.0497483, NaN, NaN, NaN, 0.0396753, "- N/A -   "
29.81, 1289.31, 0.04983992, NaN, NaN, NaN, 0.0372337, "- N/A -   "
29.86, 1291.811, 0.0499288, NaN, NaN, NaN, 0.0335714, "- N/A -   "
29.91, 1294.2, 0.0500149, NaN, NaN, NaN, 0.0335714, "- N/A -   "
29.96, 1296.58, 0.0501009, NaN, NaN, NaN, 0.0323506, "- N/A -   "
30.01, 1298.97, 0.050187, NaN, NaN, NaN, 0.0299091, "- N/A -   "
30.06, 1301.11, 0.05026754, NaN, NaN, NaN, 0.0323506, "- N/A -   "
30.11, 1303.02, 0.0503397, NaN, NaN, NaN, 0.03601294, "- N/A -   "
30.16, 1305.17, 0.0504203, NaN, NaN, NaN, 0.0384545, "- N/A -   "
30.21, 1307.43, 0.050498, NaN, NaN, NaN, 0.0396753, "- N/A -   "
30.26, 1309.34, 0.05057298, NaN, NaN, NaN, 0.0445584, "- N/A -   "
30.31, 1311.73, 0.05065351, NaN, NaN, NaN, 0.0445584, "- N/A -   "
30.36, 1314.11, 0.0507424, NaN, NaN, NaN, 0.04211683, "- N/A -   "
30.41, 1316.854, 0.0508423, NaN, NaN, NaN, 0.03601294, "- N/A -   "
30.46, 1319.36, 0.05093118, NaN, NaN, NaN, 0.0323506, "- N/A -   "
30.51, 1321.624, 0.0510145, NaN, NaN, NaN, 0.0323506, "- N/A -   "
30.56, 1323.89, 0.0511006, NaN, NaN, NaN, 0.0323506, "- N/A -   "
30.61, 1326.39, 0.0511866, NaN, NaN, NaN, 0.0299091, "- N/A -   "
30.66, 1328.78, 0.05127828, NaN, NaN, NaN, 0.0262467, "- N/A -   "
30.71, 1330.69, 0.0513505, NaN, NaN, NaN, 0.0323506, "- N/A -   "
30.76, 1332.83, 0.05142822, NaN, NaN, NaN, 0.0347922, "- N/A -   "
30.81, 1334.62, 0.05149764, NaN, NaN, NaN, 0.04089605, "- N/A -   "
30.86, 1336.53, 0.0515698, NaN, NaN, NaN, 0.04577916, "- N/A -   "
30.91, 1338.68, 0.0516476, NaN, NaN, NaN, 0.0482207, "- N/A -   "
30.96, 1341.18, 0.0517337, NaN, NaN, NaN, 0.04699994, "- N/A -   "
31.01, 1343.69, 0.05183085, NaN, NaN, NaN, 0.04211683, "- N/A -   "
31.06, 1346.19, 0.0519197, NaN, NaN, NaN, 0.0384545, "- N/A -   "
31.11, 1348.69, 0.0520086, NaN, NaN, NaN, 0.03601294, "- N/A -   "
31.16, 1350.96, 0.05209742, NaN, NaN, NaN, 0.0347922, "- N/A -   "
31.21, 1353.58, 0.0521863, NaN, NaN, NaN, 0.03112983, "- N/A -   "
31.26, 1355.85, 0.0522724, NaN, NaN, NaN, 0.0299091, "- N/A -   "
31.31, 1358, 0.0523557, NaN, NaN, NaN, 0.0299091, "- N/A -   "
31.36, 1360.26, 0.0524362, NaN, NaN, NaN, 0.03112983, "- N/A -   "
31.41, 1362.17, 0.0525056, NaN, NaN, NaN, 0.0372337, "- N/A -   "
31.46, 1363.96, 0.0525778, NaN, NaN, NaN, 0.04211683, "- N/A -   "
31.51, 1366.11, 0.0526583, NaN, NaN, NaN, 0.0433376, "- N/A -   "
31.56, 1368.49, 0.0527444, NaN, NaN, NaN, 0.04211683, "- N/A -   "
31.61, 1370.52, 0.05282493, NaN, NaN, NaN, 0.0433376, "- N/A -   "
31.66, 1372.9, 0.05290823, NaN, NaN, NaN, 0.0433376, "- N/A -   "
31.71, 1375.29, 0.0529971, NaN, NaN, NaN, 0.04089605, "- N/A -   "
31.76, 1377.911, 0.0530943, NaN, NaN, NaN, 0.0347922, "- N/A -   "
31.81, 1380.65, 0.0531915, NaN, NaN, NaN, 0.0286883, "- N/A -   "
31.86, 1383.039, 0.0532775, NaN, NaN, NaN, 0.0274675, "- N/A -   "
31.91, 1385.07, 0.0533553, NaN, NaN, NaN, 0.0299091, "- N/A -   "
31.96, 1387.09, 0.05343026, NaN, NaN, NaN, 0.0335714, "- N/A -   "
32.01, 1389.24, 0.053508, NaN, NaN, NaN, 0.03601294, "- N/A -   "
32.06, 1391.39, 0.0535885, NaN, NaN, NaN, 0.0372337, "- N/A -   "
32.11, 1393.77, 0.0536746, NaN, NaN, NaN, 0.03601294, "- N/A -   "
32.16, 1395.8, 0.0537524, NaN, NaN, NaN, 0.0384545, "- N/A -   "
32.21, 1397.95, 0.0538273, NaN, NaN, NaN, 0.04211683, "- N/A -   "
32.26, 1399.85, 0.0539023, NaN, NaN, NaN, 0.04577916, "- N/A -   "
32.31, 1402.24, 0.0539884, NaN, NaN, NaN, 0.0445584, "- N/A -   "
32.36, 1404.74, 0.05408002, NaN, NaN, NaN, 0.04089605, "- N/A -   "
32.41, 1407.6, 0.05417998, NaN, NaN, NaN, 0.0335714, "- N/A -   "
32.46, 1409.87, 0.05426606, NaN, NaN, NaN, 0.0335714, "- N/A -   "
32.51, 1411.9, 0.05434381, NaN, NaN, NaN, 0.0347922, "- N/A -   "
32.56, 1413.93, 0.05442156, NaN, NaN, NaN, 0.0372337, "- N/A -   "
32.61, 1416.43, 0.0545104, NaN, NaN, NaN, 0.03601294, "- N/A -   "
32.66, 1418.7, 0.0545965, NaN, NaN, NaN, 0.0335714, "- N/A -   "
32.71, 1421.08, 0.0546826, NaN, NaN, NaN, 0.0323506, "- N/A -   "
32.76, 1423.23, 0.0547631, NaN, NaN, NaN, 0.0335714, "- N/A -   "
32.81, 1425.13, 0.05483807, NaN, NaN, NaN, 0.0372337, "- N/A -   "
32.86, 1426.92, 0.0549103, NaN, NaN, NaN, 0.04211683, "- N/A -   "
32.91, 1429.55, 0.05499912, NaN, NaN, NaN, 0.0396753, "- N/A -   "
32.96, 1431.69, 0.0550852, NaN, NaN, NaN, 0.0384545, "- N/A -   "
33.01, 1434.08, 0.05516573, NaN, NaN, NaN, 0.0396753, "- N/A -   "
33.06, 1436.23, 0.0552518, NaN, NaN, NaN, 0.0384545, "- N/A -   "
33.11, 1438.73, 0.0553407, NaN, NaN, NaN, 0.03601294, "- N/A -   "
33.16, 1441.11, 0.0554267, NaN, NaN, NaN, 0.0347922, "- N/A -   "
33.21, 1443.5, 0.05551282, NaN, NaN, NaN, 0.0335714, "- N/A -   "
33.26, 1445.88, 0.05560168, NaN, NaN, NaN, 0.03112983, "- N/A -   "
33.31, 1448.15, 0.0556822, NaN, NaN, NaN, 0.0323506, "- N/A -   "
33.36, 1450.297, 0.05576273, NaN, NaN, NaN, 0.0347922, "- N/A -   "
33.41, 1452.44, 0.0558433, NaN, NaN, NaN, 0.0347922, "- N/A -   "
33.46, 1454.71, 0.0559293, NaN, NaN, NaN, 0.0335714, "- N/A -   "
33.51, 1456.86, 0.05600986, NaN, NaN, NaN, 0.0347922, "- N/A -   "
33.56, 1458.64, 0.0560821, NaN, NaN, NaN, 0.0396753, "- N/A -   "
33.61, 1460.91, 0.0561626, NaN, NaN, NaN, 0.04089605, "- N/A -   "
33.66, 1463.057, 0.0562431, NaN, NaN, NaN, 0.04211683, "- N/A -   "
33.71, 1465.2, 0.0563181, NaN, NaN, NaN, 0.04577916, "- N/A -   "
33.76, 1467.47, 0.0564069, NaN, NaN, NaN, 0.0433376, "- N/A -   "
33.81, 1470.33, 0.0565041, NaN, NaN, NaN, 0.0372337, "- N/A -   "
33.86, 1472.72, 0.056593, NaN, NaN, NaN, 0.0347922, "- N/A -   "
33.91, 1474.98, 0.05667906, NaN, NaN, NaN, 0.0335714, "- N/A -   "
33.96, 1477.37, 0.05676514, NaN, NaN, NaN, 0.0323506, "- N/A -   "
34.01, 1479.75, 0.0568512, NaN, NaN, NaN, 0.03112983, "- N/A -   "
34.06, 1482.14, 0.05694007, NaN, NaN, NaN, 0.0286883, "- N/A -   "
34.11, 1484.28, 0.0570234, NaN, NaN, NaN, 0.0299091, "- N/A -   "
34.16, 1486.311, 0.0571011, NaN, NaN, NaN, 0.0323506, "- N/A -   "
34.21, 1488.1, 0.05716499, NaN, NaN, NaN, 0.0396753, "- N/A -   "
34.26, 1489.77, 0.0572372, NaN, NaN, NaN, 0.0445584, "- N/A -   "
34.31, 1492.15, 0.05731771, NaN, NaN, NaN, 0.04577916, "- N/A -   "
34.36, 1494.42, 0.057401, NaN, NaN, NaN, 0.04577916, "- N/A -   "
34.41, 1496.92, 0.0574982, NaN, NaN, NaN, 0.0396753, "- N/A -   "
34.46, 1499.67, 0.0575926, NaN, NaN, NaN, 0.0347922, "- N/A -   "
34.51, 1502.05, 0.0576842, NaN, NaN, NaN, 0.03112983, "- N/A -   "
34.56, 1504.32, 0.0577675, NaN, NaN, NaN, 0.03112983, "- N/A -   "
34.61, 1506.7, 0.0578564, NaN, NaN, NaN, 0.0286883, "- N/A -   "
34.652, 1508.61, 0.05792582, NaN, NaN, NaN, 0.0299091, "- N/A -   "