File: 2_Tensile_Data/Hamel_ForceTest_Bolt10_Test2.csv
Time, Load (lb), Position (in), AxialStrain (in), TransverseStrain (in), Auxiliary (), Control Out (V), Stress (psi)
0.0, 1.29742, 0.0, NaN, NaN, NaN, 0.095831, "- N/A -   "
0.01, 1.76921, 3.054427E-5, NaN, NaN, NaN, 0.09094793, "- N/A -   "
0.02, 2.12305, 6.108854E-5, NaN, NaN, NaN, 0.084844, "- N/A -   "
0.03, 2.712792, 8.607931E-5, NaN, NaN, NaN, 0.0799609, "- N/A -   "
0.04, 3.06663, 0.000113847, NaN, NaN, NaN, 0.0750778, "- N/A -   "
0.05, 3.30253, 1.388376E-4, NaN, NaN, NaN, 0.07141549, "- N/A -   "
0.06, 3.65637, 0.000163828, NaN, NaN, NaN, 0.06775316, "- N/A -   "
0.07, 3.89227, 0.000186042, NaN, NaN, NaN, 0.0653116, "- N/A -   "
0.08, 4.246109, 0.000211033, NaN, NaN, NaN, 0.06287005, "- N/A -   "
0.09, 4.717899, 0.000233247, NaN, NaN, NaN, 0.0592077, "- N/A -   "
0.1, 4.83585, 2.582379E-4, NaN, NaN, NaN, 0.0555454, "- N/A -   "
0.11, 5.307636, 2.832287E-4, NaN, NaN, NaN, 0.05188305, "- N/A -   "
0.12, 5.54353, 3.054427E-4, NaN, NaN, NaN, 0.0494415, "- N/A -   "
0.13, 5.779426, 0.000330433, NaN, NaN, NaN, 0.04699994, "- N/A -   "
0.14, 6.01532, 0.000349871, NaN, NaN, NaN, 0.0445584, "- N/A -   "
0.15, 6.369163, 3.69308E-4, NaN, NaN, NaN, 0.0433376, "- N/A -   "
0.16, 6.60506, 0.000391522, NaN, NaN, NaN, 0.04211683, "- N/A -   "
0.17, 6.84095, 0.000410959, NaN, NaN, NaN, 0.04089605, "- N/A -   "
0.18, 7.07685, 0.000430397, NaN, NaN, NaN, 0.0396753, "- N/A -   "
0.19, 7.312743, 0.000449834, NaN, NaN, NaN, 0.0372337, "- N/A -   "
0.2, 7.548638, 4.664943E-4, NaN, NaN, NaN, 0.0372337, "- N/A -   "
0.21, 7.666586, 0.000485932, NaN, NaN, NaN, 0.0372337, "- N/A -   "
0.22, 7.90248, 5.053688E-4, NaN, NaN, NaN, 0.0347922, "- N/A -   "
0.23, 8.138375, 0.000522029, NaN, NaN, NaN, 0.0347922, "- N/A -   "
0.24, 8.492218, 5.414666E-4, NaN, NaN, NaN, 0.0335714, "- N/A -   "
0.25, 8.728113, 5.581271E-4, NaN, NaN, NaN, 0.0335714, "- N/A -   "
0.26, 8.964007, 5.747876E-4, NaN, NaN, NaN, 0.0347922, "- N/A -   "
0.27, 9.081955, 0.000588671, NaN, NaN, NaN, 0.0347922, "- N/A -   "
0.28, 9.199903, 0.000602555, NaN, NaN, NaN, 0.03601294, "- N/A -   "
0.29, 9.435798, 0.000619216, NaN, NaN, NaN, 0.03601294, "- N/A -   "
0.3, 9.671693, 0.000635876, NaN, NaN, NaN, 0.0372337, "- N/A -   "
0.31, 9.78964, 6.497599E-4, NaN, NaN, NaN, 0.0372337, "- N/A -   "
0.32, 10.0255, 6.636437E-4, NaN, NaN, NaN, 0.0384545, "- N/A -   "
0.33, 10.26143, 6.803042E-4, NaN, NaN, NaN, 0.0384545, "- N/A -   "
0.34, 10.3794, 0.000694188, NaN, NaN, NaN, 0.0396753, "- N/A -   "
0.35, 10.6153, 7.080717E-4, NaN, NaN, NaN, 0.04089605, "- N/A -   "
0.36, 10.73322, 7.219555E-4, NaN, NaN, NaN, 0.04211683, "- N/A -   "
0.37, 10.8512, 0.000735839, NaN, NaN, NaN, 0.0433376, "- N/A -   "
0.38, 11.0871, 0.0007525, NaN, NaN, NaN, 0.0433376, "- N/A -   "
0.39, 11.323, 7.663835E-4, NaN, NaN, NaN, 0.0445584, "- N/A -   "
0.4, 11.4409, 0.000783044, NaN, NaN, NaN, 0.04577916, "- N/A -   "
0.41, 11.7947, 7.997045E-4, NaN, NaN, NaN, 0.04577916, "- N/A -   "
0.42, 11.9127, 8.16365E-4, NaN, NaN, NaN, 0.0445584, "- N/A -   "
0.43, 12.14859, 0.000833026, NaN, NaN, NaN, 0.04577916, "- N/A -   "
0.45, 12.6204, 8.635698E-4, NaN, NaN, NaN, 0.04577916, "- N/A -   "
0.47, 12.9742, 8.968908E-4, NaN, NaN, NaN, 0.04577916, "- N/A -   "
0.49, 13.3281, 0.000930212, NaN, NaN, NaN, 0.04577916, "- N/A -   "
0.51, 13.9178, 9.635329E-4, NaN, NaN, NaN, 0.04577916, "- N/A -   "
0.53, 14.2716, 9.968539E-4, NaN, NaN, NaN, 0.04577916, "- N/A -   "
0.55, 14.8614, 0.00103295, NaN, NaN, NaN, 0.0445584, "- N/A -   "
0.57, 15.3332, 0.00106905, NaN, NaN, NaN, 0.0433376, "- N/A -   "
0.59, 15.687, 0.00110792, NaN, NaN, NaN, 0.04211683, "- N/A -   "
0.61, 16.27675, 0.0011468, NaN, NaN, NaN, 0.0384545, "- N/A -   "
0.63, 16.86649, 0.001185673, NaN, NaN, NaN, 0.03601294, "- N/A -   "
0.65, 17.3383, 0.00122732, NaN, NaN, NaN, 0.0335714, "- N/A -   "
0.67, 17.8101, 0.0012662, NaN, NaN, NaN, 0.0299091, "- N/A -   "
0.69, 18.3998, 0.00130507, NaN, NaN, NaN, 0.0274675, "- N/A -   "
0.71, 18.8716, 0.00134117, NaN, NaN, NaN, 0.0262467, "- N/A -   "
0.73, 19.2254, 0.00137172, NaN, NaN, NaN, 0.0274675, "- N/A -   "
0.75, 19.57928, 0.00140226, NaN, NaN, NaN, 0.0286883, "- N/A -   "
0.77, 20.05107, 0.0014328, NaN, NaN, NaN, 0.0299091, "- N/A -   "
0.79, 20.52286, 0.00146335, NaN, NaN, NaN, 0.03112983, "- N/A -   "
0.81, 20.8767, 0.00149667, NaN, NaN, NaN, 0.03112983, "- N/A -   "
0.83, 21.3485, 0.00152999, NaN, NaN, NaN, 0.03112983, "- N/A -   "
0.85, 21.8203, 0.00155776, NaN, NaN, NaN, 0.0335714, "- N/A -   "
0.87, 22.1741, 0.00159108, NaN, NaN, NaN, 0.0335714, "- N/A -   "
0.89, 22.528, 0.001621623, NaN, NaN, NaN, 0.0347922, "- N/A -   "
0.91, 22.9998, 0.00165217, NaN, NaN, NaN, 0.03601294, "- N/A -   "
0.93, 23.3536, 0.00168271, NaN, NaN, NaN, 0.0372337, "- N/A -   "
0.95, 23.82539, 0.00171326, NaN, NaN, NaN, 0.0384545, "- N/A -   "
0.97, 24.29718, 0.00174658, NaN, NaN, NaN, 0.0396753, "- N/A -   "
0.99, 24.769, 0.001779898, NaN, NaN, NaN, 0.0384545, "- N/A -   "
1.01, 25.2408, 0.001816, NaN, NaN, NaN, 0.0384545, "- N/A -   "
1.03, 25.5946, 0.00184654, NaN, NaN, NaN, 0.0384545, "- N/A -   "
1.05, 26.0664, 0.00187708, NaN, NaN, NaN, 0.0396753, "- N/A -   "
1.07, 26.5382, 0.00190763, NaN, NaN, NaN, 0.04089605, "- N/A -   "
1.09, 27.01, 0.00193817, NaN, NaN, NaN, 0.04211683, "- N/A -   "
1.11, 27.4818, 0.00197427, NaN, NaN, NaN, 0.04211683, "- N/A -   "
1.13, 27.8356, 0.002002038, NaN, NaN, NaN, 0.0433376, "- N/A -   "
1.15, 28.3074, 0.00203536, NaN, NaN, NaN, 0.0433376, "- N/A -   "
1.17, 28.89713, 0.00207146, NaN, NaN, NaN, 0.04211683, "- N/A -   "
1.19, 29.3689, 0.00210755, NaN, NaN, NaN, 0.04089605, "- N/A -   "
1.21, 29.84071, 0.00214365, NaN, NaN, NaN, 0.04089605, "- N/A -   "
1.23, 30.4304, 0.00217975, NaN, NaN, NaN, 0.0384545, "- N/A -   "
1.25, 30.9022, 0.00221862, NaN, NaN, NaN, 0.0372337, "- N/A -   "
1.27, 31.374, 0.00225472, NaN, NaN, NaN, 0.0347922, "- N/A -   "
1.29, 31.9638, 0.00229082, NaN, NaN, NaN, 0.0335714, "- N/A -   "
1.31, 32.5535, 0.002326918, NaN, NaN, NaN, 0.0323506, "- N/A -   "
1.33, 33.02529, 0.002363016, NaN, NaN, NaN, 0.0323506, "- N/A -   "
1.35, 33.49708, 0.00239911, NaN, NaN, NaN, 0.0299091, "- N/A -   "
1.37, 33.9689, 0.00243243, NaN, NaN, NaN, 0.0299091, "- N/A -   "
1.39, 34.4407, 0.00246576, NaN, NaN, NaN, 0.0299091, "- N/A -   "
1.41, 34.9125, 0.0024963, NaN, NaN, NaN, 0.03112983, "- N/A -   "
1.43, 35.3842, 0.00252407, NaN, NaN, NaN, 0.0335714, "- N/A -   "
1.45, 35.85603, 0.00255739, NaN, NaN, NaN, 0.0347922, "- N/A -   "
1.47, 36.44577, 0.00259071, NaN, NaN, NaN, 0.0347922, "- N/A -   "
1.49, 36.79961, 0.00262125, NaN, NaN, NaN, 0.03601294, "- N/A -   "
1.51, 37.3893, 0.00265457, NaN, NaN, NaN, 0.0347922, "- N/A -   "
1.53, 37.9791, 0.00269067, NaN, NaN, NaN, 0.0335714, "- N/A -   "
1.55, 38.4509, 0.00272677, NaN, NaN, NaN, 0.0323506, "- N/A -   "
1.57, 39.04061, 0.00276009, NaN, NaN, NaN, 0.0323506, "- N/A -   "
1.59, 39.5124, 0.002796189, NaN, NaN, NaN, 0.03112983, "- N/A -   "
1.61, 40.10214, 0.00282951, NaN, NaN, NaN, 0.0323506, "- N/A -   "
1.63, 40.57393, 0.00285728, NaN, NaN, NaN, 0.0335714, "- N/A -   "
1.65, 41.04572, 0.002887822, NaN, NaN, NaN, 0.0347922, "- N/A -   "
1.67, 41.39956, 0.00292114, NaN, NaN, NaN, 0.03601294, "- N/A -   "
1.69, 41.8714, 0.00294891, NaN, NaN, NaN, 0.0372337, "- N/A -   "
1.71, 42.3431, 0.00298223, NaN, NaN, NaN, 0.0396753, "- N/A -   "
1.73, 42.8149, 0.003009999, NaN, NaN, NaN, 0.04089605, "- N/A -   "
1.75, 43.2867, 0.003040543, NaN, NaN, NaN, 0.0433376, "- N/A -   "
1.77, 43.75851, 0.00307109, NaN, NaN, NaN, 0.0445584, "- N/A -   "
1.79, 44.2303, 0.003101632, NaN, NaN, NaN, 0.0445584, "- N/A -   "
1.81, 44.82, 0.00313773, NaN, NaN, NaN, 0.0445584, "- N/A -   "
1.83, 45.29183, 0.003171051, NaN, NaN, NaN, 0.0433376, "- N/A -   "
1.85, 45.8816, 0.00320437, NaN, NaN, NaN, 0.0433376, "- N/A -   "
1.87, 46.3534, 0.00324047, NaN, NaN, NaN, 0.04211683, "- N/A -   "
1.89, 46.9431, 0.00327379, NaN, NaN, NaN, 0.04211683, "- N/A -   "
1.91, 47.65078, 0.003312665, NaN, NaN, NaN, 0.04089605, "- N/A -   "
1.93, 48.12257, 0.00334876, NaN, NaN, NaN, 0.0396753, "- N/A -   "
1.95, 48.7123, 0.003382084, NaN, NaN, NaN, 0.0384545, "- N/A -   "
1.97, 49.30204, 0.00341818, NaN, NaN, NaN, 0.0372337, "- N/A -   "
1.99, 49.8918, 0.00345428, NaN, NaN, NaN, 0.0372337, "- N/A -   "
2.01, 50.3636, 0.0034876, NaN, NaN, NaN, 0.0372337, "- N/A -   "
2.03, 50.9533, 0.00352092, NaN, NaN, NaN, 0.03601294, "- N/A -   "
2.05, 51.4251, 0.00355424, NaN, NaN, NaN, 0.03601294, "- N/A -   "
2.07, 52.1328, 0.00358756, NaN, NaN, NaN, 0.03601294, "- N/A -   "
2.09, 52.6046, 0.00362366, NaN, NaN, NaN, 0.03601294, "- N/A -   "
2.11, 53.19431, 0.00365698, NaN, NaN, NaN, 0.0347922, "- N/A -   "
2.13, 53.784, 0.0036903, NaN, NaN, NaN, 0.0347922, "- N/A -   "
2.15, 54.2558, 0.00372362, NaN, NaN, NaN, 0.0347922, "- N/A -   "
2.17, 54.8456, 0.00375695, NaN, NaN, NaN, 0.0347922, "- N/A -   "
2.19, 55.43531, 0.00378749, NaN, NaN, NaN, 0.03601294, "- N/A -   "
2.21, 55.9071, 0.00382081, NaN, NaN, NaN, 0.03601294, "- N/A -   "
2.23, 56.37889, 0.00385691, NaN, NaN, NaN, 0.03601294, "- N/A -   "
2.25, 56.9686, 0.00389023, NaN, NaN, NaN, 0.0347922, "- N/A -   "
2.27, 57.6763, 0.00392633, NaN, NaN, NaN, 0.0347922, "- N/A -   "
2.29, 58.26605, 0.00395687, NaN, NaN, NaN, 0.0347922, "- N/A -   "
2.31, 58.7378, 0.00399019, NaN, NaN, NaN, 0.0347922, "- N/A -   "
2.33, 59.3276, 0.00402351, NaN, NaN, NaN, 0.0347922, "- N/A -   "
2.35, 59.79937, 0.00405683, NaN, NaN, NaN, 0.03601294, "- N/A -   "
2.37, 60.3891, 0.00408738, NaN, NaN, NaN, 0.03601294, "- N/A -   "
2.39, 61.09679, 0.0041207, NaN, NaN, NaN, 0.03601294, "- N/A -   "
2.41, 61.56858, 0.004154021, NaN, NaN, NaN, 0.0372337, "- N/A -   "
2.43, 62.0404, 0.00418179, NaN, NaN, NaN, 0.0384545, "- N/A -   "
2.45, 62.5122, 0.00421511, NaN, NaN, NaN, 0.0396753, "- N/A -   "
2.47, 63.1019, 0.00424565, NaN, NaN, NaN, 0.0396753, "- N/A -   "
2.49, 63.6916, 0.004276198, NaN, NaN, NaN, 0.04089605, "- N/A -   "
2.51, 64.28137, 0.004312296, NaN, NaN, NaN, 0.04089605, "- N/A -   "
2.53, 64.75317, 0.004345617, NaN, NaN, NaN, 0.04089605, "- N/A -   "
2.55, 65.22495, 0.004373384, NaN, NaN, NaN, 0.04211683, "- N/A -   "
2.57, 65.81469, 0.00440393, NaN, NaN, NaN, 0.0433376, "- N/A -   "
2.59, 66.40443, 0.004440026, NaN, NaN, NaN, 0.0433376, "- N/A -   "
2.61, 67.1121, 0.00447057, NaN, NaN, NaN, 0.0433376, "- N/A -   "
2.63, 67.70185, 0.004506668, NaN, NaN, NaN, 0.04211683, "- N/A -   "
2.65, 68.29159, 0.004542766, NaN, NaN, NaN, 0.04089605, "- N/A -   "
2.67, 68.9993, 0.004581641, NaN, NaN, NaN, 0.0384545, "- N/A -   "
2.69, 69.589, 0.004617738, NaN, NaN, NaN, 0.0372337, "- N/A -   "
2.71, 70.29669, 0.004656613, NaN, NaN, NaN, 0.0347922, "- N/A -   "
2.73, 70.88643, 0.004695487, NaN, NaN, NaN, 0.0323506, "- N/A -   "
2.75, 71.59412, 0.004728808, NaN, NaN, NaN, 0.0323506, "- N/A -   "
2.77, 72.1838, 0.004764906, NaN, NaN, NaN, 0.0323506, "- N/A -   "
2.79, 72.77359, 0.004798227, NaN, NaN, NaN, 0.0323506, "- N/A -   "
2.81, 73.36333, 0.00483155, NaN, NaN, NaN, 0.03112983, "- N/A -   "
2.83, 73.83511, 0.00486209, NaN, NaN, NaN, 0.0323506, "- N/A -   "
2.85, 74.3069, 0.00489264, NaN, NaN, NaN, 0.0335714, "- N/A -   "
2.87, 75.0146, 0.00492596, NaN, NaN, NaN, 0.0335714, "- N/A -   "
2.89, 75.6043, 0.00496206, NaN, NaN, NaN, 0.0323506, "- N/A -   "
2.91, 76.19407, 0.00499538, NaN, NaN, NaN, 0.0323506, "- N/A -   "
2.93, 76.7838, 0.00503147, NaN, NaN, NaN, 0.03112983, "- N/A -   "
2.95, 77.49149, 0.005067572, NaN, NaN, NaN, 0.0299091, "- N/A -   "
2.97, 78.08122, 0.00510089, NaN, NaN, NaN, 0.0299091, "- N/A -   "
2.99, 78.55301, 0.00513144, NaN, NaN, NaN, 0.03112983, "- N/A -   "
3.01, 79.14275, 0.00516476, NaN, NaN, NaN, 0.03112983, "- N/A -   "
3.03, 79.73249, 0.0051953, NaN, NaN, NaN, 0.0323506, "- N/A -   "
3.05, 80.20428, 0.00522585, NaN, NaN, NaN, 0.0347922, "- N/A -   "
3.07, 80.794, 0.005256391, NaN, NaN, NaN, 0.03601294, "- N/A -   "
3.09, 81.26581, 0.00528416, NaN, NaN, NaN, 0.0372337, "- N/A -   "
3.11, 81.7376, 0.00531193, NaN, NaN, NaN, 0.0396753, "- N/A -   "
3.13, 82.20939, 0.00533969, NaN, NaN, NaN, 0.04211683, "- N/A -   "
3.15, 82.68118, 0.00536746, NaN, NaN, NaN, 0.0445584, "- N/A -   "
3.17, 83.15297, 0.00539523, NaN, NaN, NaN, 0.04699994, "- N/A -   "
3.19, 83.74271, 0.00542855, NaN, NaN, NaN, 0.04699994, "- N/A -   "
3.21, 84.33244, 0.005459094, NaN, NaN, NaN, 0.0482207, "- N/A -   "
3.23, 84.92217, 0.005492415, NaN, NaN, NaN, 0.0482207, "- N/A -   "
3.25, 85.51192, 0.005528513, NaN, NaN, NaN, 0.0482207, "- N/A -   "
3.27, 86.2196, 0.00556461, NaN, NaN, NaN, 0.04577916, "- N/A -   "
3.29, 86.92729, 0.005603485, NaN, NaN, NaN, 0.0433376, "- N/A -   "
3.31, 87.51702, 0.00564236, NaN, NaN, NaN, 0.04089605, "- N/A -   "
3.33, 88.34265, 0.00568401, NaN, NaN, NaN, 0.0384545, "- N/A -   "
3.35, 89.05035, 0.00572289, NaN, NaN, NaN, 0.03601294, "- N/A -   "
3.37, 89.758, 0.00576176, NaN, NaN, NaN, 0.0335714, "- N/A -   "
3.39, 90.34776, 0.00579508, NaN, NaN, NaN, 0.0323506, "- N/A -   "
3.41, 90.81956, 0.005828402, NaN, NaN, NaN, 0.0323506, "- N/A -   "
3.43, 91.40929, 0.005858946, NaN, NaN, NaN, 0.0335714, "- N/A -   "
3.45, 91.99903, 0.005892267, NaN, NaN, NaN, 0.0335714, "- N/A -   "
3.47, 92.58876, 0.005931142, NaN, NaN, NaN, 0.03112983, "- N/A -   "
3.49, 93.2965, 0.00596724, NaN, NaN, NaN, 0.03112983, "- N/A -   "
3.51, 93.76824, 0.00600056, NaN, NaN, NaN, 0.0299091, "- N/A -   "
3.53, 94.35797, 0.006033882, NaN, NaN, NaN, 0.0299091, "- N/A -   "
3.55, 94.9477, 0.006064426, NaN, NaN, NaN, 0.0323506, "- N/A -   "
3.57, 95.5374, 0.006097747, NaN, NaN, NaN, 0.0323506, "- N/A -   "
3.59, 96.12719, 0.006131068, NaN, NaN, NaN, 0.03112983, "- N/A -   "
3.61, 96.71693, 0.006167166, NaN, NaN, NaN, 0.0299091, "- N/A -   "
3.63, 97.4246, 0.006200487, NaN, NaN, NaN, 0.0299091, "- N/A -   "
3.65, 97.8964, 0.006233808, NaN, NaN, NaN, 0.0299091, "- N/A -   "
3.67, 98.4861, 0.00626435, NaN, NaN, NaN, 0.03112983, "- N/A -   "
3.69, 99.0759, 0.0062949, NaN, NaN, NaN, 0.0323506, "- N/A -   "
3.71, 99.42972, 0.006322664, NaN, NaN, NaN, 0.0347922, "- N/A -   "
3.73, 99.7836, 0.00634765, NaN, NaN, NaN, 0.0384545, "- N/A -   "
3.75, 100.3733, 0.006378199, NaN, NaN, NaN, 0.0396753, "- N/A -   "
3.77, 100.845, 0.00640597, NaN, NaN, NaN, 0.04211683, "- N/A -   "
3.79, 101.435, 0.006433734, NaN, NaN, NaN, 0.0445584, "- N/A -   "
3.81, 101.907, 0.00646428, NaN, NaN, NaN, 0.04577916, "- N/A -   "
3.83, 102.3784, 0.006497599, NaN, NaN, NaN, 0.04577916, "- N/A -   "
3.85, 102.968, 0.0065337, NaN, NaN, NaN, 0.0445584, "- N/A -   "
3.87, 103.676, 0.006569795, NaN, NaN, NaN, 0.0433376, "- N/A -   "
3.89, 104.384, 0.006603116, NaN, NaN, NaN, 0.0433376, "- N/A -   "
3.91, 104.855, 0.006636437, NaN, NaN, NaN, 0.0433376, "- N/A -   "
3.93, 105.445, 0.00667253, NaN, NaN, NaN, 0.04211683, "- N/A -   "
3.95, 106.153, 0.006708632, NaN, NaN, NaN, 0.04211683, "- N/A -   "
3.97, 106.742, 0.00674195, NaN, NaN, NaN, 0.04211683, "- N/A -   "
3.99, 107.3322, 0.00677527, NaN, NaN, NaN, 0.04089605, "- N/A -   "
4.01, 107.804, 0.00681137, NaN, NaN, NaN, 0.04089605, "- N/A -   "
4.03, 108.394, 0.00684747, NaN, NaN, NaN, 0.0396753, "- N/A -   "
4.05, 109.101, 0.00688634, NaN, NaN, NaN, 0.0372337, "- N/A -   "
4.07, 109.8091, 0.006928, NaN, NaN, NaN, 0.0323506, "- N/A -   "
4.09, 110.517, 0.00696687, NaN, NaN, NaN, 0.0299091, "- N/A -   "
4.11, 110.989, 0.00700297, NaN, NaN, NaN, 0.0299091, "- N/A -   "
4.13, 111.578, 0.007036289, NaN, NaN, NaN, 0.0286883, "- N/A -   "
4.15, 112.286, 0.00706961, NaN, NaN, NaN, 0.0286883, "- N/A -   "
4.17, 112.758, 0.00710293, NaN, NaN, NaN, 0.0286883, "- N/A -   "
4.19, 113.23, 0.00713625, NaN, NaN, NaN, 0.0286883, "- N/A -   "
4.21, 113.819, 0.0071668, NaN, NaN, NaN, 0.0299091, "- N/A -   "
4.23, 114.2911, 0.00719734, NaN, NaN, NaN, 0.03112983, "- N/A -   "
4.25, 114.881, 0.007230662, NaN, NaN, NaN, 0.0323506, "- N/A -   "
4.27, 115.353, 0.007261206, NaN, NaN, NaN, 0.0323506, "- N/A -   "
4.29, 115.824, 0.007294527, NaN, NaN, NaN, 0.0335714, "- N/A -   "
4.31, 116.296, 0.00732507, NaN, NaN, NaN, 0.0335714, "- N/A -   "
4.33, 116.768, 0.00735562, NaN, NaN, NaN, 0.0347922, "- N/A -   "
4.35, 117.358, 0.00738616, NaN, NaN, NaN, 0.03601294, "- N/A -   "
4.37, 117.83, 0.007419481, NaN, NaN, NaN, 0.03601294, "- N/A -   "
4.39, 118.419, 0.007452802, NaN, NaN, NaN, 0.03601294, "- N/A -   "
4.41, 118.891, 0.00748612, NaN, NaN, NaN, 0.0372337, "- N/A -   "
4.43, 119.481, 0.007516667, NaN, NaN, NaN, 0.0372337, "- N/A -   "
4.45, 119.953, 0.007547212, NaN, NaN, NaN, 0.0384545, "- N/A -   "
4.47, 120.424, 0.007577756, NaN, NaN, NaN, 0.0396753, "- N/A -   "
4.49, 120.778, 0.0076083, NaN, NaN, NaN, 0.04211683, "- N/A -   "
4.51, 121.368, 0.00763329, NaN, NaN, NaN, 0.0445584, "- N/A -   "
4.53, 121.84, 0.007666612, NaN, NaN, NaN, 0.0445584, "- N/A -   "
4.55, 122.194, 0.007699933, NaN, NaN, NaN, 0.0445584, "- N/A -   "
4.57, 122.665, 0.0077277, NaN, NaN, NaN, 0.04699994, "- N/A -   "
4.59, 123.255, 0.007761021, NaN, NaN, NaN, 0.04699994, "- N/A -   "
4.61, 123.845, 0.007794342, NaN, NaN, NaN, 0.0482207, "- N/A -   "
4.63, 124.317, 0.00783044, NaN, NaN, NaN, 0.04577916, "- N/A -   "
4.65, 125.024, 0.007872092, NaN, NaN, NaN, 0.04211683, "- N/A -   "
4.67, 125.732, 0.007910966, NaN, NaN, NaN, 0.0396753, "- N/A -   "
4.69, 126.44, 0.00794984, NaN, NaN, NaN, 0.0372337, "- N/A -   "
4.71, 127.029, 0.007988716, NaN, NaN, NaN, 0.0347922, "- N/A -   "
4.73, 127.619, 0.008024813, NaN, NaN, NaN, 0.0335714, "- N/A -   "
4.75, 128.209, 0.008063687, NaN, NaN, NaN, 0.0323506, "- N/A -   "
4.77, 128.799, 0.008097008, NaN, NaN, NaN, 0.03112983, "- N/A -   "
4.79, 129.152, 0.00813033, NaN, NaN, NaN, 0.0323506, "- N/A -   "
4.81, 129.742, 0.00816365, NaN, NaN, NaN, 0.0323506, "- N/A -   "
4.83, 130.214, 0.008196971, NaN, NaN, NaN, 0.03112983, "- N/A -   "
4.85, 130.6858, 0.008227515, NaN, NaN, NaN, 0.0323506, "- N/A -   "
4.87, 131.276, 0.008260837, NaN, NaN, NaN, 0.0323506, "- N/A -   "
4.89, 131.747, 0.008291381, NaN, NaN, NaN, 0.0347922, "- N/A -   "
4.91, 132.219, 0.008321925, NaN, NaN, NaN, 0.03601294, "- N/A -   "
4.93, 132.6909, 0.00835247, NaN, NaN, NaN, 0.03601294, "- N/A -   "
4.95, 133.163, 0.00838579, NaN, NaN, NaN, 0.0372337, "- N/A -   "
4.97, 133.752, 0.008421889, NaN, NaN, NaN, 0.03601294, "- N/A -   "
4.99, 134.46, 0.008457987, NaN, NaN, NaN, 0.0335714, "- N/A -   "
5.01, 135.05, 0.008496861, NaN, NaN, NaN, 0.0323506, "- N/A -   "
5.03, 135.522, 0.008532958, NaN, NaN, NaN, 0.03112983, "- N/A -   "
5.05, 136.111, 0.00856628, NaN, NaN, NaN, 0.03112983, "- N/A -   "
5.07, 136.583, 0.008594046, NaN, NaN, NaN, 0.0323506, "- N/A -   "
5.09, 137.055, 0.008621815, NaN, NaN, NaN, 0.0347922, "- N/A -   "
5.11, 137.527, 0.008649582, NaN, NaN, NaN, 0.0372337, "- N/A -   "
5.13, 137.763, 0.008680127, NaN, NaN, NaN, 0.0396753, "- N/A -   "
5.15, 138.352, 0.008705117, NaN, NaN, NaN, 0.04211683, "- N/A -   "
5.17, 138.706, 0.008735661, NaN, NaN, NaN, 0.0433376, "- N/A -   "
5.19, 139.414, 0.008768982, NaN, NaN, NaN, 0.0433376, "- N/A -   "
5.21, 140.004, 0.008805079, NaN, NaN, NaN, 0.04211683, "- N/A -   "
5.23, 140.475, 0.008838401, NaN, NaN, NaN, 0.04211683, "- N/A -   "
5.25, 140.947, 0.008874499, NaN, NaN, NaN, 0.04089605, "- N/A -   "
5.27, 141.419, 0.00890782, NaN, NaN, NaN, 0.04089605, "- N/A -   "
5.29, 142.009, 0.008943918, NaN, NaN, NaN, 0.0396753, "- N/A -   "
5.31, 142.5985, 0.008980015, NaN, NaN, NaN, 0.0384545, "- N/A -   "
5.33, 143.188, 0.009016113, NaN, NaN, NaN, 0.0372337, "- N/A -   "
5.35, 143.66, 0.00905221, NaN, NaN, NaN, 0.03601294, "- N/A -   "
5.37, 144.368, 0.009085532, NaN, NaN, NaN, 0.03601294, "- N/A -   "
5.39, 144.8395, 0.009116076, NaN, NaN, NaN, 0.0372337, "- N/A -   "
5.41, 145.429, 0.009149397, NaN, NaN, NaN, 0.0372337, "- N/A -   "
5.43, 145.901, 0.009182718, NaN, NaN, NaN, 0.0372337, "- N/A -   "
5.45, 146.3728, 0.009216039, NaN, NaN, NaN, 0.0372337, "- N/A -   "
5.47, 146.8446, 0.009252137, NaN, NaN, NaN, 0.03601294, "- N/A -   "
5.49, 147.434, 0.009285458, NaN, NaN, NaN, 0.03601294, "- N/A -   "
5.51, 148.024, 0.009321556, NaN, NaN, NaN, 0.0347922, "- N/A -   "
5.53, 148.6138, 0.009357654, NaN, NaN, NaN, 0.0335714, "- N/A -   "
5.55, 149.204, 0.009396528, NaN, NaN, NaN, 0.0323506, "- N/A -   "
5.57, 149.793, 0.009432626, NaN, NaN, NaN, 0.0299091, "- N/A -   "
5.59, 150.147, 0.009463171, NaN, NaN, NaN, 0.0323506, "- N/A -   "
5.61, 150.737, 0.009496491, NaN, NaN, NaN, 0.0323506, "- N/A -   "
5.63, 151.209, 0.009529813, NaN, NaN, NaN, 0.03112983, "- N/A -   "
5.65, 151.798, 0.009563133, NaN, NaN, NaN, 0.03112983, "- N/A -   "
5.67, 152.27, 0.009596455, NaN, NaN, NaN, 0.03112983, "- N/A -   "
5.69, 152.86, 0.009629776, NaN, NaN, NaN, 0.03112983, "- N/A -   "
5.71, 153.214, 0.00966032, NaN, NaN, NaN, 0.0323506, "- N/A -   "
5.73, 153.8035, 0.009693641, NaN, NaN, NaN, 0.0323506, "- N/A -   "
5.75, 154.2753, 0.009726962, NaN, NaN, NaN, 0.0323506, "- N/A -   "
5.77, 154.747, 0.00976306, NaN, NaN, NaN, 0.0323506, "- N/A -   "
5.79, 155.337, 0.009796382, NaN, NaN, NaN, 0.03112983, "- N/A -   "
5.81, 155.691, 0.009826926, NaN, NaN, NaN, 0.0323506, "- N/A -   "
5.83, 156.162, 0.009854692, NaN, NaN, NaN, 0.0347922, "- N/A -   "
5.85, 156.634, 0.00988246, NaN, NaN, NaN, 0.0372337, "- N/A -   "
5.87, 157.106, 0.009913004, NaN, NaN, NaN, 0.0384545, "- N/A -   "
5.89, 157.696, 0.009946326, NaN, NaN, NaN, 0.0384545, "- N/A -   "
5.91, 158.0496, 0.00997687, NaN, NaN, NaN, 0.0396753, "- N/A -   "
5.93, 158.639, 0.0100074, NaN, NaN, NaN, 0.04089605, "- N/A -   "
5.95, 158.9932, 0.010038, NaN, NaN, NaN, 0.04211683, "- N/A -   "
5.97, 159.583, 0.0100713, NaN, NaN, NaN, 0.0433376, "- N/A -   "
5.99, 160.173, 0.010099, NaN, NaN, NaN, 0.0445584, "- N/A -   "
6.01, 160.644, 0.0101324, NaN, NaN, NaN, 0.0445584, "- N/A -   "
6.03, 161.234, 0.0101657, NaN, NaN, NaN, 0.0445584, "- N/A -   "
6.05, 161.824, 0.0102046, NaN, NaN, NaN, 0.04211683, "- N/A -   "
6.07, 162.414, 0.0102407, NaN, NaN, NaN, 0.04089605, "- N/A -   "
6.09, 163.0034, 0.0102795, NaN, NaN, NaN, 0.0384545, "- N/A -   "
6.11, 163.593, 0.0103184, NaN, NaN, NaN, 0.03601294, "- N/A -   "
6.13, 164.301, 0.0103601, NaN, NaN, NaN, 0.0335714, "- N/A -   "
6.15, 164.891, 0.0103934, NaN, NaN, NaN, 0.0323506, "- N/A -   "
6.17, 165.4803, 0.0104267, NaN, NaN, NaN, 0.0323506, "- N/A -   "
6.19, 165.834, 0.01046, NaN, NaN, NaN, 0.0323506, "- N/A -   "
6.21, 166.306, 0.0104906, NaN, NaN, NaN, 0.0335714, "- N/A -   "
6.23, 167.014, 0.01052389, NaN, NaN, NaN, 0.0335714, "- N/A -   "
6.25, 167.485, 0.01056, NaN, NaN, NaN, 0.0347922, "- N/A -   "
6.27, 168.075, 0.0105933, NaN, NaN, NaN, 0.0335714, "- N/A -   "
6.29, 168.665, 0.01062663, NaN, NaN, NaN, 0.0347922, "- N/A -   "
6.31, 169.137, 0.01066, NaN, NaN, NaN, 0.0335714, "- N/A -   "
6.33, 169.726, 0.0106933, NaN, NaN, NaN, 0.0335714, "- N/A -   "
6.35, 170.316, 0.01072937, NaN, NaN, NaN, 0.0323506, "- N/A -   "
6.37, 170.788, 0.0107655, NaN, NaN, NaN, 0.03112983, "- N/A -   "
6.39, 171.378, 0.0107988, NaN, NaN, NaN, 0.03112983, "- N/A -   "
6.41, 171.9674, 0.0108321, NaN, NaN, NaN, 0.03112983, "- N/A -   "
6.43, 172.4392, 0.01086543, NaN, NaN, NaN, 0.03112983, "- N/A -   "
6.45, 172.911, 0.010896, NaN, NaN, NaN, 0.0323506, "- N/A -   "
6.47, 173.383, 0.0109265, NaN, NaN, NaN, 0.0335714, "- N/A -   "
6.49, 173.855, 0.0109571, NaN, NaN, NaN, 0.0347922, "- N/A -   "
6.51, 174.208, 0.0109821, NaN, NaN, NaN, 0.0384545, "- N/A -   "
6.53, 174.6802, 0.0110098, NaN, NaN, NaN, 0.04089605, "- N/A -   "
6.55, 175.152, 0.0110376, NaN, NaN, NaN, 0.0433376, "- N/A -   "
6.57, 175.624, 0.0110654, NaN, NaN, NaN, 0.04577916, "- N/A -   "
6.59, 176.096, 0.0110959, NaN, NaN, NaN, 0.0482207, "- N/A -   "
6.61, 176.6853, 0.0111292, NaN, NaN, NaN, 0.04699994, "- N/A -   "
6.63, 177.1571, 0.0111625, NaN, NaN, NaN, 0.04699994, "- N/A -   "
6.65, 177.747, 0.0111959, NaN, NaN, NaN, 0.04699994, "- N/A -   "
6.67, 178.455, 0.0112347, NaN, NaN, NaN, 0.0445584, "- N/A -   "
6.69, 179.162, 0.0112736, NaN, NaN, NaN, 0.04211683, "- N/A -   "
6.71, 179.752, 0.0113125, NaN, NaN, NaN, 0.0396753, "- N/A -   "
6.73, 180.342, 0.0113514, NaN, NaN, NaN, 0.0384545, "- N/A -   "
6.75, 180.931, 0.0113847, NaN, NaN, NaN, 0.0372337, "- N/A -   "
6.77, 181.639, 0.0114208, NaN, NaN, NaN, 0.03601294, "- N/A -   "
6.79, 182.1109, 0.0114541, NaN, NaN, NaN, 0.03601294, "- N/A -   "
6.81, 182.583, 0.0114874, NaN, NaN, NaN, 0.03601294, "- N/A -   "
6.83, 183.29, 0.0115207, NaN, NaN, NaN, 0.03601294, "- N/A -   "
6.85, 183.762, 0.0115568, NaN, NaN, NaN, 0.0347922, "- N/A -   "
6.87, 184.3519, 0.0115902, NaN, NaN, NaN, 0.0347922, "- N/A -   "
6.89, 184.942, 0.0116263, NaN, NaN, NaN, 0.0335714, "- N/A -   "
6.91, 185.531, 0.0116651, NaN, NaN, NaN, 0.0323506, "- N/A -   "
6.93, 186.239, 0.011704, NaN, NaN, NaN, 0.0286883, "- N/A -   "
6.95, 186.829, 0.0117401, NaN, NaN, NaN, 0.0274675, "- N/A -   "
6.97, 187.419, 0.0117734, NaN, NaN, NaN, 0.0286883, "- N/A -   "
6.99, 188.008, 0.0118067, NaN, NaN, NaN, 0.0286883, "- N/A -   "
7.01, 188.48, 0.0118373, NaN, NaN, NaN, 0.0286883, "- N/A -   "
7.03, 188.952, 0.0118706, NaN, NaN, NaN, 0.0286883, "- N/A -   "
7.05, 189.424, 0.0119012, NaN, NaN, NaN, 0.0299091, "- N/A -   "
7.07, 190.013, 0.0119317, NaN, NaN, NaN, 0.03112983, "- N/A -   "
7.09, 190.603, 0.011965, NaN, NaN, NaN, 0.03112983, "- N/A -   "
7.11, 191.075, 0.0119956, NaN, NaN, NaN, 0.0335714, "- N/A -   "
7.13, 191.547, 0.0120233, NaN, NaN, NaN, 0.0347922, "- N/A -   "
7.15, 192.018, 0.01205388, NaN, NaN, NaN, 0.0372337, "- N/A -   "
7.17, 192.372, 0.0120816, NaN, NaN, NaN, 0.0384545, "- N/A -   "
7.19, 192.962, 0.0121122, NaN, NaN, NaN, 0.04089605, "- N/A -   "
7.21, 193.5518, 0.0121427, NaN, NaN, NaN, 0.04211683, "- N/A -   "
7.23, 194.024, 0.0121705, NaN, NaN, NaN, 0.0433376, "- N/A -   "
7.25, 194.495, 0.012201, NaN, NaN, NaN, 0.0445584, "- N/A -   "
7.27, 195.085, 0.0122344, NaN, NaN, NaN, 0.0445584, "- N/A -   "
7.29, 195.675, 0.01226769, NaN, NaN, NaN, 0.0445584, "- N/A -   "
7.31, 196.147, 0.012301, NaN, NaN, NaN, 0.04577916, "- N/A -   "
7.33, 196.736, 0.0123316, NaN, NaN, NaN, 0.04577916, "- N/A -   "
7.35, 197.326, 0.0123649, NaN, NaN, NaN, 0.04577916, "- N/A -   "
7.37, 197.916, 0.0123982, NaN, NaN, NaN, 0.04577916, "- N/A -   "
7.39, 198.741, 0.0124371, NaN, NaN, NaN, 0.0445584, "- N/A -   "
7.41, 199.331, 0.0124759, NaN, NaN, NaN, 0.04211683, "- N/A -   "
7.43, 200.039, 0.0125148, NaN, NaN, NaN, 0.0396753, "- N/A -   "
7.45, 200.7466, 0.0125537, NaN, NaN, NaN, 0.03601294, "- N/A -   "
7.47, 201.454, 0.0125953, NaN, NaN, NaN, 0.0323506, "- N/A -   "
7.49, 202.162, 0.012637, NaN, NaN, NaN, 0.0299091, "- N/A -   "
7.51, 202.87, 0.0126731, NaN, NaN, NaN, 0.0274675, "- N/A -   "
7.53, 203.459, 0.0127064, NaN, NaN, NaN, 0.0274675, "- N/A -   "
7.55, 203.813, 0.012737, NaN, NaN, NaN, 0.0286883, "- N/A -   "
7.57, 204.403, 0.0127703, NaN, NaN, NaN, 0.0299091, "- N/A -   "
7.59, 204.9927, 0.0128036, NaN, NaN, NaN, 0.0299091, "- N/A -   "
7.61, 205.7, 0.0128341, NaN, NaN, NaN, 0.0299091, "- N/A -   "
7.63, 206.172, 0.0128675, NaN, NaN, NaN, 0.03112983, "- N/A -   "
7.65, 206.762, 0.012898, NaN, NaN, NaN, 0.03112983, "- N/A -   "
7.67, 207.2337, 0.0129286, NaN, NaN, NaN, 0.0323506, "- N/A -   "
7.69, 207.823, 0.0129591, NaN, NaN, NaN, 0.0347922, "- N/A -   "
7.71, 208.295, 0.0129869, NaN, NaN, NaN, 0.03601294, "- N/A -   "
7.73, 208.885, 0.0130146, NaN, NaN, NaN, 0.0384545, "- N/A -   "
7.75, 209.357, 0.013048, NaN, NaN, NaN, 0.0396753, "- N/A -   "
7.77, 210.064, 0.0130813, NaN, NaN, NaN, 0.0384545, "- N/A -   "
7.79, 210.654, 0.0131146, NaN, NaN, NaN, 0.0384545, "- N/A -   "
7.81, 211.244, 0.0131451, NaN, NaN, NaN, 0.0396753, "- N/A -   "
7.83, 211.834, 0.0131785, NaN, NaN, NaN, 0.0396753, "- N/A -   "
7.85, 212.4234, 0.0132118, NaN, NaN, NaN, 0.0396753, "- N/A -   "
7.87, 212.895, 0.0132396, NaN, NaN, NaN, 0.04211683, "- N/A -   "
7.89, 213.367, 0.0132701, NaN, NaN, NaN, 0.0445584, "- N/A -   "
7.91, 213.957, 0.0133006, NaN, NaN, NaN, 0.0445584, "- N/A -   "
7.93, 214.546, 0.0133312, NaN, NaN, NaN, 0.04577916, "- N/A -   "
7.95, 215.136, 0.0133645, NaN, NaN, NaN, 0.04577916, "- N/A -   "
7.97, 215.844, 0.0134006, NaN, NaN, NaN, 0.0445584, "- N/A -   "
7.99, 216.316, 0.0134339, NaN, NaN, NaN, 0.0445584, "- N/A -   "
8.01, 216.905, 0.0134672, NaN, NaN, NaN, 0.0445584, "- N/A -   "
8.03, 217.613, 0.0135033, NaN, NaN, NaN, 0.0433376, "- N/A -   "
8.05, 218.4387, 0.01354222, NaN, NaN, NaN, 0.04089605, "- N/A -   "
8.07, 219.264, 0.0135839, NaN, NaN, NaN, 0.0372337, "- N/A -   "
8.09, 219.972, 0.0136227, NaN, NaN, NaN, 0.0347922, "- N/A -   "
8.11, 220.68, 0.01366162, NaN, NaN, NaN, 0.0335714, "- N/A -   "
8.13, 221.387, 0.0136977, NaN, NaN, NaN, 0.03112983, "- N/A -   "
8.15, 221.977, 0.0137338, NaN, NaN, NaN, 0.0299091, "- N/A -   "
8.17, 222.685, 0.01377269, NaN, NaN, NaN, 0.0286883, "- N/A -   "
8.19, 223.275, 0.0138032, NaN, NaN, NaN, 0.0286883, "- N/A -   "
8.21, 223.746, 0.0138338, NaN, NaN, NaN, 0.0299091, "- N/A -   "
8.23, 224.218, 0.0138643, NaN, NaN, NaN, 0.03112983, "- N/A -   "
8.25, 224.926, 0.0138976, NaN, NaN, NaN, 0.03112983, "- N/A -   "
8.27, 225.398, 0.0139254, NaN, NaN, NaN, 0.0335714, "- N/A -   "
8.29, 225.8694, 0.013956, NaN, NaN, NaN, 0.0347922, "- N/A -   "
8.31, 226.459, 0.0139893, NaN, NaN, NaN, 0.0347922, "- N/A -   "
8.33, 227.167, 0.0140226, NaN, NaN, NaN, 0.0347922, "- N/A -   "
8.35, 227.875, 0.0140587, NaN, NaN, NaN, 0.0335714, "- N/A -   "
8.37, 228.464, 0.014092, NaN, NaN, NaN, 0.0335714, "- N/A -   "
8.39, 229.172, 0.0141281, NaN, NaN, NaN, 0.0323506, "- N/A -   "
8.41, 229.762, 0.0141642, NaN, NaN, NaN, 0.03112983, "- N/A -   "
8.43, 230.351, 0.0141975, NaN, NaN, NaN, 0.03112983, "- N/A -   "
8.45, 230.8232, 0.0142281, NaN, NaN, NaN, 0.0323506, "- N/A -   "
8.47, 231.531, 0.0142586, NaN, NaN, NaN, 0.0335714, "- N/A -   "
8.49, 232.121, 0.0142892, NaN, NaN, NaN, 0.0347922, "- N/A -   "
8.51, 232.71, 0.01431971, NaN, NaN, NaN, 0.03601294, "- N/A -   "
8.53, 233.0642, 0.0143475, NaN, NaN, NaN, 0.0384545, "- N/A -   "
8.55, 233.654, 0.0143752, NaN, NaN, NaN, 0.04089605, "- N/A -   "
8.57, 234.126, 0.0144058, NaN, NaN, NaN, 0.04211683, "- N/A -   "
8.59, 234.833, 0.0144391, NaN, NaN, NaN, 0.04211683, "- N/A -   "
8.61, 235.423, 0.0144752, NaN, NaN, NaN, 0.04211683, "- N/A -   "
8.63, 236.131, 0.0145085, NaN, NaN, NaN, 0.04089605, "- N/A -   "
8.65, 236.721, 0.01454185, NaN, NaN, NaN, 0.04089605, "- N/A -   "
8.67, 237.428, 0.0145779, NaN, NaN, NaN, 0.04089605, "- N/A -   "
8.69, 238.018, 0.0146113, NaN, NaN, NaN, 0.04089605, "- N/A -   "
8.71, 238.608, 0.0146446, NaN, NaN, NaN, 0.04089605, "- N/A -   "
8.73, 239.315, 0.0146779, NaN, NaN, NaN, 0.04089605, "- N/A -   "
8.75, 239.905, 0.014714, NaN, NaN, NaN, 0.0384545, "- N/A -   "
8.77, 240.731, 0.0147473, NaN, NaN, NaN, 0.0384545, "- N/A -   "
8.79, 241.321, 0.0147834, NaN, NaN, NaN, 0.0372337, "- N/A -   "
8.81, 241.91, 0.0148167, NaN, NaN, NaN, 0.0372337, "- N/A -   "
8.83, 242.618, 0.0148528, NaN, NaN, NaN, 0.03601294, "- N/A -   "
8.85, 243.207, 0.0148889, NaN, NaN, NaN, 0.03601294, "- N/A -   "
8.87, 243.7961, 0.0149195, NaN, NaN, NaN, 0.03601294, "- N/A -   "
8.89, 244.385, 0.01495, NaN, NaN, NaN, 0.0372337, "- N/A -   "
8.91, 245.21, 0.01498613, NaN, NaN, NaN, 0.03601294, "- N/A -   "
8.93, 245.799, 0.015025, NaN, NaN, NaN, 0.0347922, "- N/A -   "
8.95, 246.506, 0.0150611, NaN, NaN, NaN, 0.0335714, "- N/A -   "
8.97, 247.095, 0.0150944, NaN, NaN, NaN, 0.0323506, "- N/A -   "
8.99, 247.802, 0.0151277, NaN, NaN, NaN, 0.0335714, "- N/A -   "
9.01, 248.273, 0.0151583, NaN, NaN, NaN, 0.0335714, "- N/A -   "
9.03, 248.98, 0.01519161, NaN, NaN, NaN, 0.0335714, "- N/A -   "
9.05, 249.57, 0.0152249, NaN, NaN, NaN, 0.0335714, "- N/A -   "
9.07, 250.159, 0.0152583, NaN, NaN, NaN, 0.0335714, "- N/A -   "
9.09, 250.748, 0.0152916, NaN, NaN, NaN, 0.0347922, "- N/A -   "
9.11, 251.337, 0.0153221, NaN, NaN, NaN, 0.0347922, "- N/A -   "
9.13, 251.926, 0.0153499, NaN, NaN, NaN, 0.0372337, "- N/A -   "
9.15, 252.515, 0.015386, NaN, NaN, NaN, 0.0372337, "- N/A -   "
9.17, 253.34, 0.01542208, NaN, NaN, NaN, 0.0347922, "- N/A -   "
9.19, 253.929, 0.0154554, NaN, NaN, NaN, 0.0347922, "- N/A -   "
9.21, 254.518, 0.0154915, NaN, NaN, NaN, 0.0335714, "- N/A -   "
9.23, 255.225, 0.0155248, NaN, NaN, NaN, 0.0347922, "- N/A -   "
9.25, 255.814, 0.0155526, NaN, NaN, NaN, 0.03601294, "- N/A -   "
9.27, 256.403, 0.0155831, NaN, NaN, NaN, 0.0372337, "- N/A -   "
9.29, 256.757, 0.0156109, NaN, NaN, NaN, 0.04089605, "- N/A -   "
9.31, 257.4639, 0.0156414, NaN, NaN, NaN, 0.04089605, "- N/A -   "
9.33, 258.053, 0.0156775, NaN, NaN, NaN, 0.04089605, "- N/A -   "
9.35, 258.76, 0.0157081, NaN, NaN, NaN, 0.04211683, "- N/A -   "
9.37, 259.349, 0.01573863, NaN, NaN, NaN, 0.04211683, "- N/A -   "
9.39, 259.938, 0.0157692, NaN, NaN, NaN, 0.0433376, "- N/A -   "
9.41, 260.6452, 0.0158053, NaN, NaN, NaN, 0.04211683, "- N/A -   "
9.43, 261.47, 0.01584137, NaN, NaN, NaN, 0.04089605, "- N/A -   "
9.45, 262.059, 0.0158747, NaN, NaN, NaN, 0.04089605, "- N/A -   "
9.47, 262.8839, 0.0159108, NaN, NaN, NaN, 0.0396753, "- N/A -   "
9.49, 263.473, 0.0159469, NaN, NaN, NaN, 0.0384545, "- N/A -   "
9.51, 264.18, 0.01598576, NaN, NaN, NaN, 0.0372337, "- N/A -   "
9.53, 264.887, 0.0160219, NaN, NaN, NaN, 0.0347922, "- N/A -   "
9.55, 265.5939, 0.0160607, NaN, NaN, NaN, 0.0335714, "- N/A -   "
9.57, 266.183, 0.0160913, NaN, NaN, NaN, 0.0335714, "- N/A -   "
9.59, 267.0078, 0.0161246, NaN, NaN, NaN, 0.0335714, "- N/A -   "
9.61, 267.479, 0.0161607, NaN, NaN, NaN, 0.0335714, "- N/A -   "
9.63, 268.068, 0.01619124, NaN, NaN, NaN, 0.0335714, "- N/A -   "
9.65, 268.657, 0.0162246, NaN, NaN, NaN, 0.0335714, "- N/A -   "
9.67, 269.364, 0.0162551, NaN, NaN, NaN, 0.0347922, "- N/A -   "
9.69, 269.9535, 0.01628565, NaN, NaN, NaN, 0.03601294, "- N/A -   "
9.71, 270.66, 0.0163217, NaN, NaN, NaN, 0.03601294, "- N/A -   "
9.73, 271.25, 0.01635507, NaN, NaN, NaN, 0.0347922, "- N/A -   "
9.75, 271.9565, 0.0163939, NaN, NaN, NaN, 0.0323506, "- N/A -   "
9.77, 272.899, 0.0164328, NaN, NaN, NaN, 0.0299091, "- N/A -   "
9.79, 273.37, 0.0164661, NaN, NaN, NaN, 0.0299091, "- N/A -   "
9.81, 274.0774, 0.01649946, NaN, NaN, NaN, 0.0299091, "- N/A -   "
9.83, 274.784, 0.01653278, NaN, NaN, NaN, 0.0299091, "- N/A -   "
9.85, 275.373, 0.0165661, NaN, NaN, NaN, 0.0299091, "- N/A -   "
9.87, 275.963, 0.0165994, NaN, NaN, NaN, 0.0299091, "- N/A -   "
9.89, 276.67, 0.01663, NaN, NaN, NaN, 0.03112983, "- N/A -   "
9.91, 277.141, 0.0166605, NaN, NaN, NaN, 0.0335714, "- N/A -   "
9.93, 277.612, 0.0166855, NaN, NaN, NaN, 0.03601294, "- N/A -   "
9.95, 278.2013, 0.01671327, NaN, NaN, NaN, 0.0384545, "- N/A -   "
9.97, 278.79, 0.0167438, NaN, NaN, NaN, 0.0396753, "- N/A -   "
9.99, 279.262, 0.0167744, NaN, NaN, NaN, 0.04089605, "- N/A -   "
10.01, 279.851, 0.0168021, NaN, NaN, NaN, 0.0433376, "- N/A -   "
10.03, 280.44, 0.01683267, NaN, NaN, NaN, 0.0445584, "- N/A -   "
10.05, 281.0291, 0.0168632, NaN, NaN, NaN, 0.04577916, "- N/A -   "
10.07, 281.736, 0.0168993, NaN, NaN, NaN, 0.0445584, "- N/A -   "
10.09, 282.561, 0.0169382, NaN, NaN, NaN, 0.0433376, "- N/A -   "
10.11, 283.268, 0.0169743, NaN, NaN, NaN, 0.04089605, "- N/A -   "
10.13, 283.9748, 0.0170104, NaN, NaN, NaN, 0.0396753, "- N/A -   "
10.15, 284.8, 0.01704648, NaN, NaN, NaN, 0.0384545, "- N/A -   "
10.17, 285.3887, 0.0170826, NaN, NaN, NaN, 0.0384545, "- N/A -   "
10.19, 286.213, 0.0171187, NaN, NaN, NaN, 0.0372337, "- N/A -   "
10.21, 286.9204, 0.017152, NaN, NaN, NaN, 0.03601294, "- N/A -   "
10.23, 287.6274, 0.0171881, NaN, NaN, NaN, 0.0347922, "- N/A -   "
10.25, 288.334, 0.0172242, NaN, NaN, NaN, 0.0335714, "- N/A -   "
10.27, 289.041, 0.0172575, NaN, NaN, NaN, 0.0335714, "- N/A -   "
10.29, 289.748, 0.0172964, NaN, NaN, NaN, 0.0323506, "- N/A -   "
10.31, 290.3374, 0.01732971, NaN, NaN, NaN, 0.03112983, "- N/A -   "
10.33, 291.162, 0.0173658, NaN, NaN, NaN, 0.0299091, "- N/A -   "
10.35, 291.8691, 0.0173991, NaN, NaN, NaN, 0.0299091, "- N/A -   "
10.37, 292.458, 0.01743245, NaN, NaN, NaN, 0.0299091, "- N/A -   "
10.39, 293.165, 0.0174685, NaN, NaN, NaN, 0.0286883, "- N/A -   "
10.41, 293.99, 0.0175019, NaN, NaN, NaN, 0.0286883, "- N/A -   "
10.43, 294.4613, 0.01753519, NaN, NaN, NaN, 0.0286883, "- N/A -   "
10.45, 295.05, 0.0175657, NaN, NaN, NaN, 0.0299091, "- N/A -   "
10.47, 295.7574, 0.0175991, NaN, NaN, NaN, 0.03112983, "- N/A -   "
10.49, 296.347, 0.0176268, NaN, NaN, NaN, 0.0323506, "- N/A -   "
10.51, 296.936, 0.0176546, NaN, NaN, NaN, 0.0347922, "- N/A -   "
10.53, 297.289, 0.0176824, NaN, NaN, NaN, 0.0384545, "- N/A -   "
10.55, 297.9961, 0.0177101, NaN, NaN, NaN, 0.0396753, "- N/A -   "
10.57, 298.467, 0.0177407, NaN, NaN, NaN, 0.04211683, "- N/A -   "
10.59, 299.057, 0.0177684, NaN, NaN, NaN, 0.0433376, "- N/A -   "
10.61, 299.646, 0.017799, NaN, NaN, NaN, 0.0445584, "- N/A -   "
10.63, 300.353, 0.0178323, NaN, NaN, NaN, 0.0445584, "- N/A -   "
10.65, 301.1774, 0.0178712, NaN, NaN, NaN, 0.0433376, "- N/A -   "
10.67, 301.7665, 0.0179045, NaN, NaN, NaN, 0.04211683, "- N/A -   "
10.69, 302.473, 0.0179378, NaN, NaN, NaN, 0.04211683, "- N/A -   "
10.71, 303.063, 0.0179684, NaN, NaN, NaN, 0.0433376, "- N/A -   "
10.73, 303.77, 0.0180017, NaN, NaN, NaN, 0.0433376, "- N/A -   "
10.75, 304.477, 0.018035, NaN, NaN, NaN, 0.0445584, "- N/A -   "
10.77, 305.066, 0.0180683, NaN, NaN, NaN, 0.0445584, "- N/A -   "
10.79, 305.8904, 0.0181044, NaN, NaN, NaN, 0.0433376, "- N/A -   "
10.81, 306.597, 0.0181433, NaN, NaN, NaN, 0.04211683, "- N/A -   "
10.83, 307.187, 0.0181766, NaN, NaN, NaN, 0.04089605, "- N/A -   "
10.85, 308.129, 0.0182155, NaN, NaN, NaN, 0.0396753, "- N/A -   "
10.87, 308.9539, 0.0182571, NaN, NaN, NaN, 0.03601294, "- N/A -   "
10.89, 309.7787, 0.018296, NaN, NaN, NaN, 0.0323506, "- N/A -   "
10.91, 310.7213, 0.0183349, NaN, NaN, NaN, 0.0299091, "- N/A -   "
10.93, 311.31, 0.0183738, NaN, NaN, NaN, 0.0274675, "- N/A -   "
10.95, 312.0174, 0.01840709, NaN, NaN, NaN, 0.0274675, "- N/A -   "
10.97, 312.724, 0.0184404, NaN, NaN, NaN, 0.0274675, "- N/A -   "
10.99, 313.4313, 0.0184737, NaN, NaN, NaN, 0.0274675, "- N/A -   "
11.01, 314.02, 0.0185043, NaN, NaN, NaN, 0.0286883, "- N/A -   "
11.03, 314.7274, 0.0185376, NaN, NaN, NaN, 0.0286883, "- N/A -   "
11.05, 315.1987, 0.01856814, NaN, NaN, NaN, 0.0299091, "- N/A -   "
11.07, 315.906, 0.0185987, NaN, NaN, NaN, 0.03112983, "- N/A -   "
11.09, 316.377, 0.0186265, NaN, NaN, NaN, 0.0335714, "- N/A -   "
11.11, 317.084, 0.0186598, NaN, NaN, NaN, 0.0347922, "- N/A -   "
11.13, 317.673, 0.0186903, NaN, NaN, NaN, 0.0347922, "- N/A -   "
11.15, 318.262, 0.0187236, NaN, NaN, NaN, 0.03601294, "- N/A -   "
11.17, 318.969, 0.0187514, NaN, NaN, NaN, 0.0372337, "- N/A -   "
11.19, 319.558, 0.01878195, NaN, NaN, NaN, 0.0384545, "- N/A -   "
11.21, 320.2652, 0.0188153, NaN, NaN, NaN, 0.0384545, "- N/A -   "
11.23, 320.854, 0.0188486, NaN, NaN, NaN, 0.0396753, "- N/A -   "
11.25, 321.679, 0.01888469, NaN, NaN, NaN, 0.0384545, "- N/A -   "
11.27, 322.3861, 0.018918, NaN, NaN, NaN, 0.0372337, "- N/A -   "
11.29, 322.9752, 0.0189486, NaN, NaN, NaN, 0.0384545, "- N/A -   "
11.31, 323.564, 0.0189763, NaN, NaN, NaN, 0.04089605, "- N/A -   "
11.33, 324.153, 0.0190069, NaN, NaN, NaN, 0.0433376, "- N/A -   "
11.35, 324.7426, 0.0190374, NaN, NaN, NaN, 0.0445584, "- N/A -   "
11.37, 325.332, 0.019068, NaN, NaN, NaN, 0.0445584, "- N/A -   "
11.39, 326.0387, 0.0190985, NaN, NaN, NaN, 0.04577916, "- N/A -   "
11.41, 326.746, 0.01913182, NaN, NaN, NaN, 0.04699994, "- N/A -   "
11.43, 327.4526, 0.0191679, NaN, NaN, NaN, 0.0445584, "- N/A -   "
11.45, 328.277, 0.0192068, NaN, NaN, NaN, 0.0433376, "- N/A -   "
11.47, 329.22, 0.0192457, NaN, NaN, NaN, 0.04089605, "- N/A -   "
11.49, 330.0448, 0.0192845, NaN, NaN, NaN, 0.0372337, "- N/A -   "
11.51, 330.752, 0.01932064, NaN, NaN, NaN, 0.03601294, "- N/A -   "
11.53, 331.5765, 0.01935396, NaN, NaN, NaN, 0.03601294, "- N/A -   "
11.55, 332.4013, 0.0193928, NaN, NaN, NaN, 0.0347922, "- N/A -   "
[...]
25.11, 866.5683, 0.04197338, NaN, NaN, NaN, 0.0433376, "- N/A -   "
25.13, 867.5146, 0.0420095, NaN, NaN, NaN, 0.04089605, "- N/A -   "
25.15, 868.4608, 0.0420484, NaN, NaN, NaN, 0.0396753, "- N/A -   "
25.17, 869.407, 0.04208445, NaN, NaN, NaN, 0.0384545, "- N/A -   "
25.19, 870.353, 0.04212332, NaN, NaN, NaN, 0.03601294, "- N/A -   "
25.21, 871.3, 0.0421566, NaN, NaN, NaN, 0.0347922, "- N/A -   "
25.23, 872.128, 0.0421927, NaN, NaN, NaN, 0.0335714, "- N/A -   "
25.25, 873.0738, 0.0422288, NaN, NaN, NaN, 0.0335714, "- N/A -   "
25.27, 873.783, 0.0422594, NaN, NaN, NaN, 0.0335714, "- N/A -   "
25.29, 874.4931, 0.0422899, NaN, NaN, NaN, 0.0347922, "- N/A -   "
25.31, 875.3211, 0.04232047, NaN, NaN, NaN, 0.03601294, "- N/A -   "
25.33, 876.149, 0.0423538, NaN, NaN, NaN, 0.0372337, "- N/A -   "
25.35, 876.977, 0.04238434, NaN, NaN, NaN, 0.0372337, "- N/A -   "
25.37, 877.687, 0.04241766, NaN, NaN, NaN, 0.0372337, "- N/A -   "
25.39, 878.5147, 0.04245098, NaN, NaN, NaN, 0.0372337, "- N/A -   "
25.41, 879.343, 0.0424899, NaN, NaN, NaN, 0.0347922, "- N/A -   "
25.43, 880.407, 0.0425232, NaN, NaN, NaN, 0.0347922, "- N/A -   "
25.45, 881.235, 0.0425593, NaN, NaN, NaN, 0.0335714, "- N/A -   "
25.47, 882.0631, 0.0425926, NaN, NaN, NaN, 0.0335714, "- N/A -   "
25.49, 882.8911, 0.0426231, NaN, NaN, NaN, 0.0347922, "- N/A -   "
25.51, 883.601, 0.04265646, NaN, NaN, NaN, 0.0347922, "- N/A -   "
25.53, 884.4287, 0.04268978, NaN, NaN, NaN, 0.03601294, "- N/A -   "
25.55, 885.2567, 0.0427231, NaN, NaN, NaN, 0.03601294, "- N/A -   "
25.57, 886.085, 0.0427536, NaN, NaN, NaN, 0.03601294, "- N/A -   "
25.59, 886.9126, 0.0427842, NaN, NaN, NaN, 0.0384545, "- N/A -   "
25.61, 887.504, 0.0428147, NaN, NaN, NaN, 0.0384545, "- N/A -   "
25.63, 888.095, 0.0428425, NaN, NaN, NaN, 0.04089605, "- N/A -   "
25.65, 889.0417, 0.0428758, NaN, NaN, NaN, 0.04089605, "- N/A -   "
25.67, 889.8696, 0.0429091, NaN, NaN, NaN, 0.04089605, "- N/A -   "
25.69, 890.698, 0.04294524, NaN, NaN, NaN, 0.04089605, "- N/A -   "
25.71, 891.644, 0.0429786, NaN, NaN, NaN, 0.0396753, "- N/A -   "
25.73, 892.5901, 0.04301188, NaN, NaN, NaN, 0.0396753, "- N/A -   "
25.75, 893.4181, 0.04304798, NaN, NaN, NaN, 0.0384545, "- N/A -   "
25.77, 894.128, 0.0430813, NaN, NaN, NaN, 0.0396753, "- N/A -   "
25.79, 895.074, 0.0431174, NaN, NaN, NaN, 0.0384545, "- N/A -   "
25.81, 896.02, 0.0431507, NaN, NaN, NaN, 0.0372337, "- N/A -   "
25.83, 896.8482, 0.0431813, NaN, NaN, NaN, 0.0384545, "- N/A -   "
25.85, 897.676, 0.0432174, NaN, NaN, NaN, 0.0384545, "- N/A -   "
25.87, 898.504, 0.0432507, NaN, NaN, NaN, 0.0384545, "- N/A -   "
25.89, 899.3321, 0.043284, NaN, NaN, NaN, 0.0372337, "- N/A -   "
25.91, 900.2783, 0.0433201, NaN, NaN, NaN, 0.03601294, "- N/A -   "
25.93, 901.1063, 0.0433534, NaN, NaN, NaN, 0.03601294, "- N/A -   "
25.95, 901.934, 0.0433867, NaN, NaN, NaN, 0.03601294, "- N/A -   "
25.97, 902.8805, 0.04342284, NaN, NaN, NaN, 0.0347922, "- N/A -   "
25.99, 903.7085, 0.0434562, NaN, NaN, NaN, 0.0347922, "- N/A -   "
26.01, 904.5365, 0.04349226, NaN, NaN, NaN, 0.0347922, "- N/A -   "
26.03, 905.364, 0.0435256, NaN, NaN, NaN, 0.0335714, "- N/A -   "
26.05, 906.3107, 0.0435589, NaN, NaN, NaN, 0.0335714, "- N/A -   "
26.07, 907.1387, 0.0435922, NaN, NaN, NaN, 0.0335714, "- N/A -   "
26.09, 908.0849, 0.0436311, NaN, NaN, NaN, 0.03112983, "- N/A -   "
26.11, 908.9129, 0.0436644, NaN, NaN, NaN, 0.03112983, "- N/A -   "
26.13, 909.741, 0.043695, NaN, NaN, NaN, 0.0323506, "- N/A -   "
26.15, 910.5688, 0.0437283, NaN, NaN, NaN, 0.0323506, "- N/A -   "
26.17, 911.3968, 0.0437644, NaN, NaN, NaN, 0.03112983, "- N/A -   "
26.19, 912.225, 0.0437977, NaN, NaN, NaN, 0.03112983, "- N/A -   "
26.21, 913.171, 0.0438338, NaN, NaN, NaN, 0.03112983, "- N/A -   "
26.23, 913.8807, 0.0438671, NaN, NaN, NaN, 0.0299091, "- N/A -   "
26.25, 914.8269, 0.04390044, NaN, NaN, NaN, 0.0299091, "- N/A -   "
26.27, 915.537, 0.04393099, NaN, NaN, NaN, 0.03112983, "- N/A -   "
26.29, 916.128, 0.0439588, NaN, NaN, NaN, 0.0335714, "- N/A -   "
26.31, 916.8377, 0.0439865, NaN, NaN, NaN, 0.0372337, "- N/A -   "
26.33, 917.666, 0.04401429, NaN, NaN, NaN, 0.0384545, "- N/A -   "
26.35, 918.3753, 0.0440448, NaN, NaN, NaN, 0.0396753, "- N/A -   "
26.37, 919.2033, 0.0440782, NaN, NaN, NaN, 0.0396753, "- N/A -   "
26.39, 920.031, 0.04411148, NaN, NaN, NaN, 0.0396753, "- N/A -   "
26.41, 920.8592, 0.0441448, NaN, NaN, NaN, 0.0396753, "- N/A -   "
26.43, 921.6872, 0.04417812, NaN, NaN, NaN, 0.04089605, "- N/A -   "
26.45, 922.3969, 0.0442087, NaN, NaN, NaN, 0.04089605, "- N/A -   "
26.47, 923.343, 0.044242, NaN, NaN, NaN, 0.04089605, "- N/A -   "
26.49, 924.0528, 0.04427253, NaN, NaN, NaN, 0.04211683, "- N/A -   "
26.51, 924.8808, 0.0443031, NaN, NaN, NaN, 0.0433376, "- N/A -   "
26.53, 925.59, 0.0443364, NaN, NaN, NaN, 0.0433376, "- N/A -   "
26.55, 926.4184, 0.04437249, NaN, NaN, NaN, 0.0433376, "- N/A -   "
26.57, 927.483, 0.0444058, NaN, NaN, NaN, 0.04211683, "- N/A -   "
26.59, 928.3109, 0.0444419, NaN, NaN, NaN, 0.04089605, "- N/A -   "
26.61, 929.257, 0.04447801, NaN, NaN, NaN, 0.0396753, "- N/A -   "
26.63, 930.2034, 0.04451411, NaN, NaN, NaN, 0.0384545, "- N/A -   "
26.65, 931.0314, 0.0445447, NaN, NaN, NaN, 0.0396753, "- N/A -   "
26.67, 931.741, 0.04457797, NaN, NaN, NaN, 0.0396753, "- N/A -   "
26.69, 932.569, 0.04461129, NaN, NaN, NaN, 0.0396753, "- N/A -   "
26.71, 933.397, 0.04464739, NaN, NaN, NaN, 0.0396753, "- N/A -   "
26.73, 934.3432, 0.0446807, NaN, NaN, NaN, 0.0384545, "- N/A -   "
26.75, 935.1712, 0.044714, NaN, NaN, NaN, 0.0384545, "- N/A -   "
26.77, 935.999, 0.0447474, NaN, NaN, NaN, 0.0384545, "- N/A -   "
26.79, 936.9454, 0.0447835, NaN, NaN, NaN, 0.0372337, "- N/A -   "
26.81, 938.01, 0.0448251, NaN, NaN, NaN, 0.0335714, "- N/A -   "
26.83, 939.074, 0.0448668, NaN, NaN, NaN, 0.03112983, "- N/A -   "
26.85, 939.902, 0.0449029, NaN, NaN, NaN, 0.0286883, "- N/A -   "
26.87, 940.8487, 0.0449362, NaN, NaN, NaN, 0.0286883, "- N/A -   "
26.89, 941.677, 0.04497227, NaN, NaN, NaN, 0.0286883, "- N/A -   "
26.91, 942.505, 0.0450028, NaN, NaN, NaN, 0.0286883, "- N/A -   "
26.93, 943.3326, 0.04503336, NaN, NaN, NaN, 0.0299091, "- N/A -   "
26.95, 943.924, 0.0450611, NaN, NaN, NaN, 0.0323506, "- N/A -   "
26.97, 944.5154, 0.04509167, NaN, NaN, NaN, 0.0335714, "- N/A -   "
26.99, 945.2251, 0.04511944, NaN, NaN, NaN, 0.03601294, "- N/A -   "
27.01, 945.935, 0.0451472, NaN, NaN, NaN, 0.0384545, "- N/A -   "
27.03, 946.6445, 0.0451778, NaN, NaN, NaN, 0.04089605, "- N/A -   "
27.05, 947.4724, 0.0452083, NaN, NaN, NaN, 0.04089605, "- N/A -   "
27.07, 948.064, 0.0452388, NaN, NaN, NaN, 0.04211683, "- N/A -   "
27.09, 949.0101, 0.04526938, NaN, NaN, NaN, 0.0433376, "- N/A -   "
27.11, 949.838, 0.04529993, NaN, NaN, NaN, 0.0445584, "- N/A -   "
27.13, 950.7843, 0.045336, NaN, NaN, NaN, 0.0433376, "- N/A -   "
27.15, 951.612, 0.0453721, NaN, NaN, NaN, 0.04211683, "- N/A -   "
27.17, 952.5585, 0.0454082, NaN, NaN, NaN, 0.04089605, "- N/A -   "
27.19, 953.623, 0.0454471, NaN, NaN, NaN, 0.0384545, "- N/A -   "
27.21, 954.5693, 0.04548597, NaN, NaN, NaN, 0.0372337, "- N/A -   "
27.23, 955.3972, 0.04551929, NaN, NaN, NaN, 0.03601294, "- N/A -   "
27.25, 956.3435, 0.0455554, NaN, NaN, NaN, 0.03601294, "- N/A -   "
27.27, 957.29, 0.0455915, NaN, NaN, NaN, 0.0335714, "- N/A -   "
27.29, 958.3543, 0.0456304, NaN, NaN, NaN, 0.0323506, "- N/A -   "
27.31, 959.064, 0.04566368, NaN, NaN, NaN, 0.03112983, "- N/A -   "
27.33, 960.0102, 0.045697, NaN, NaN, NaN, 0.03112983, "- N/A -   "
27.35, 960.9565, 0.0457331, NaN, NaN, NaN, 0.0299091, "- N/A -   "
27.37, 961.7844, 0.0457692, NaN, NaN, NaN, 0.0286883, "- N/A -   "
27.39, 962.731, 0.0458053, NaN, NaN, NaN, 0.0274675, "- N/A -   "
27.41, 963.559, 0.04583584, NaN, NaN, NaN, 0.0286883, "- N/A -   "
27.43, 964.3866, 0.0458692, NaN, NaN, NaN, 0.0286883, "- N/A -   "
27.45, 965.215, 0.0459053, NaN, NaN, NaN, 0.0274675, "- N/A -   "
27.47, 966.043, 0.04593858, NaN, NaN, NaN, 0.0286883, "- N/A -   "
27.49, 966.7522, 0.0459719, NaN, NaN, NaN, 0.0286883, "- N/A -   "
27.51, 967.58, 0.0460024, NaN, NaN, NaN, 0.0286883, "- N/A -   "
27.53, 968.2898, 0.04603299, NaN, NaN, NaN, 0.0299091, "- N/A -   "
27.55, 969.1178, 0.0460663, NaN, NaN, NaN, 0.03112983, "- N/A -   "
27.57, 969.9458, 0.04609408, NaN, NaN, NaN, 0.0323506, "- N/A -   "
27.59, 970.5372, 0.04612185, NaN, NaN, NaN, 0.0347922, "- N/A -   "
27.61, 971.2469, 0.04615239, NaN, NaN, NaN, 0.0372337, "- N/A -   "
27.63, 972.0748, 0.04618016, NaN, NaN, NaN, 0.0384545, "- N/A -   "
27.65, 972.6662, 0.0462107, NaN, NaN, NaN, 0.0396753, "- N/A -   "
27.67, 973.3759, 0.04623847, NaN, NaN, NaN, 0.04211683, "- N/A -   "
27.69, 974.086, 0.046269, NaN, NaN, NaN, 0.0433376, "- N/A -   "
27.71, 974.9136, 0.04629956, NaN, NaN, NaN, 0.0445584, "- N/A -   "
27.73, 975.7415, 0.04633288, NaN, NaN, NaN, 0.0445584, "- N/A -   "
27.75, 976.8061, 0.04636898, NaN, NaN, NaN, 0.0445584, "- N/A -   "
27.77, 977.516, 0.0464023, NaN, NaN, NaN, 0.0433376, "- N/A -   "
27.79, 978.3437, 0.04643284, NaN, NaN, NaN, 0.0445584, "- N/A -   "
27.81, 979.1717, 0.0464662, NaN, NaN, NaN, 0.0445584, "- N/A -   "
27.83, 980, 0.0464995, NaN, NaN, NaN, 0.04577916, "- N/A -   "
27.85, 980.8276, 0.04653558, NaN, NaN, NaN, 0.0445584, "- N/A -   "
27.87, 981.774, 0.04657168, NaN, NaN, NaN, 0.0433376, "- N/A -   "
27.89, 982.6018, 0.046605, NaN, NaN, NaN, 0.04211683, "- N/A -   "
27.91, 983.6663, 0.0466439, NaN, NaN, NaN, 0.0396753, "- N/A -   "
27.93, 984.6126, 0.04668, NaN, NaN, NaN, 0.0384545, "- N/A -   "
27.95, 985.6771, 0.0467188, NaN, NaN, NaN, 0.03601294, "- N/A -   "
27.97, 986.742, 0.0467633, NaN, NaN, NaN, 0.0323506, "- N/A -   "
27.99, 987.6879, 0.0467994, NaN, NaN, NaN, 0.0299091, "- N/A -   "
28.01, 988.516, 0.0468327, NaN, NaN, NaN, 0.0299091, "- N/A -   "
28.03, 989.3438, 0.04686602, NaN, NaN, NaN, 0.0299091, "- N/A -   "
28.05, 990.1718, 0.0468993, NaN, NaN, NaN, 0.03112983, "- N/A -   "
28.07, 991.118, 0.04693266, NaN, NaN, NaN, 0.0299091, "- N/A -   "
28.09, 991.946, 0.04696598, NaN, NaN, NaN, 0.0299091, "- N/A -   "
28.11, 992.774, 0.0469993, NaN, NaN, NaN, 0.0299091, "- N/A -   "
28.13, 993.484, 0.04702984, NaN, NaN, NaN, 0.03112983, "- N/A -   "
28.15, 994.0751, 0.0470576, NaN, NaN, NaN, 0.0347922, "- N/A -   "
28.17, 995.021, 0.0470882, NaN, NaN, NaN, 0.03601294, "- N/A -   "
28.19, 995.731, 0.0471187, NaN, NaN, NaN, 0.03601294, "- N/A -   "
28.21, 996.677, 0.047152, NaN, NaN, NaN, 0.03601294, "- N/A -   "
28.23, 997.387, 0.0471826, NaN, NaN, NaN, 0.0372337, "- N/A -   "
28.25, 998.2149, 0.0472159, NaN, NaN, NaN, 0.0372337, "- N/A -   "
28.27, 999.043, 0.04724921, NaN, NaN, NaN, 0.0372337, "- N/A -   "
28.29, 999.989, 0.0472853, NaN, NaN, NaN, 0.03601294, "- N/A -   "
28.31, 1000.7, 0.0473158, NaN, NaN, NaN, 0.0372337, "- N/A -   "
28.33, 1001.41, 0.0473464, NaN, NaN, NaN, 0.0396753, "- N/A -   "
28.35, 1002.12, 0.04737694, NaN, NaN, NaN, 0.04089605, "- N/A -   "
28.37, 1003.06, 0.04740748, NaN, NaN, NaN, 0.04211683, "- N/A -   "
28.39, 1003.89, 0.047438, NaN, NaN, NaN, 0.04211683, "- N/A -   "
28.41, 1004.72, 0.0474714, NaN, NaN, NaN, 0.04211683, "- N/A -   "
28.43, 1005.43, 0.04750467, NaN, NaN, NaN, 0.0433376, "- N/A -   "
28.45, 1006.258, 0.0475352, NaN, NaN, NaN, 0.0433376, "- N/A -   "
28.47, 1007.09, 0.04756576, NaN, NaN, NaN, 0.0445584, "- N/A -   "
28.49, 1007.91, 0.0476019, NaN, NaN, NaN, 0.0433376, "- N/A -   "
28.51, 1008.98, 0.04764073, NaN, NaN, NaN, 0.04089605, "- N/A -   "
28.53, 1010.04, 0.0476824, NaN, NaN, NaN, 0.0384545, "- N/A -   "
28.55, 1011.11, 0.04772126, NaN, NaN, NaN, 0.0347922, "- N/A -   "
28.57, 1011.94, 0.04775735, NaN, NaN, NaN, 0.0335714, "- N/A -   "
28.59, 1012.88, 0.0477934, NaN, NaN, NaN, 0.0323506, "- N/A -   "
28.61, 1013.954, 0.0478295, NaN, NaN, NaN, 0.03112983, "- N/A -   "
28.63, 1014.79, 0.0478656, NaN, NaN, NaN, 0.0299091, "- N/A -   "
28.65, 1015.62, 0.0479017, NaN, NaN, NaN, 0.0299091, "- N/A -   "
28.67, 1016.46, 0.04793229, NaN, NaN, NaN, 0.0299091, "- N/A -   "
28.69, 1017.29, 0.0479656, NaN, NaN, NaN, 0.03112983, "- N/A -   "
28.71, 1018.13, 0.0479962, NaN, NaN, NaN, 0.03112983, "- N/A -   "
28.73, 1019.08, 0.0480295, NaN, NaN, NaN, 0.03112983, "- N/A -   "
28.75, 1019.68, 0.04806002, NaN, NaN, NaN, 0.0323506, "- N/A -   "
28.77, 1020.51, 0.0480906, NaN, NaN, NaN, 0.0347922, "- N/A -   "
28.79, 1021.23, 0.04811833, NaN, NaN, NaN, 0.03601294, "- N/A -   "
28.81, 1022.06, 0.04815165, NaN, NaN, NaN, 0.03601294, "- N/A -   "
28.83, 1022.9, 0.048185, NaN, NaN, NaN, 0.03601294, "- N/A -   "
28.85, 1023.97, 0.0482238, NaN, NaN, NaN, 0.0347922, "- N/A -   "
28.87, 1025.04, 0.0482599, NaN, NaN, NaN, 0.0335714, "- N/A -   "
28.89, 1025.88, 0.04829604, NaN, NaN, NaN, 0.0323506, "- N/A -   "
28.91, 1026.83, 0.0483294, NaN, NaN, NaN, 0.0323506, "- N/A -   "
28.93, 1027.55, 0.0483599, NaN, NaN, NaN, 0.0335714, "- N/A -   "
28.95, 1028.38, 0.04839323, NaN, NaN, NaN, 0.0347922, "- N/A -   "
28.97, 1028.98, 0.048421, NaN, NaN, NaN, 0.03601294, "- N/A -   "
28.99, 1029.7, 0.04845154, NaN, NaN, NaN, 0.0372337, "- N/A -   "
29.01, 1030.53, 0.0484821, NaN, NaN, NaN, 0.0396753, "- N/A -   "
29.03, 1031.25, 0.04851263, NaN, NaN, NaN, 0.0396753, "- N/A -   "
29.05, 1031.961, 0.0485432, NaN, NaN, NaN, 0.04211683, "- N/A -   "
29.07, 1032.68, 0.0485709, NaN, NaN, NaN, 0.0433376, "- N/A -   "
29.09, 1033.63, 0.04860704, NaN, NaN, NaN, 0.04211683, "- N/A -   "
29.11, 1034.58, 0.04864314, NaN, NaN, NaN, 0.04211683, "- N/A -   "
29.13, 1035.42, 0.0486792, NaN, NaN, NaN, 0.04089605, "- N/A -   "
29.15, 1036.37, 0.04871256, NaN, NaN, NaN, 0.0396753, "- N/A -   "
29.17, 1037.21, 0.0487431, NaN, NaN, NaN, 0.04089605, "- N/A -   "
29.19, 1038.04, 0.04877642, NaN, NaN, NaN, 0.04089605, "- N/A -   "
29.21, 1038.997, 0.04881252, NaN, NaN, NaN, 0.04089605, "- N/A -   "
29.23, 1039.95, 0.0488486, NaN, NaN, NaN, 0.0396753, "- N/A -   "
29.25, 1040.905, 0.0488847, NaN, NaN, NaN, 0.0372337, "- N/A -   "
29.27, 1041.74, 0.048918, NaN, NaN, NaN, 0.0372337, "- N/A -   "
29.29, 1042.57, 0.0489514, NaN, NaN, NaN, 0.0384545, "- N/A -   "
29.31, 1043.29, 0.0489819, NaN, NaN, NaN, 0.0396753, "- N/A -   "
29.33, 1044.12, 0.0490152, NaN, NaN, NaN, 0.0396753, "- N/A -   "
29.35, 1044.96, 0.0490485, NaN, NaN, NaN, 0.0396753, "- N/A -   "
29.37, 1045.79, 0.0490819, NaN, NaN, NaN, 0.0384545, "- N/A -   "
29.39, 1046.87, 0.04912074, NaN, NaN, NaN, 0.03601294, "- N/A -   "
29.41, 1047.7, 0.04915406, NaN, NaN, NaN, 0.03601294, "- N/A -   "
29.43, 1048.54, 0.04919016, NaN, NaN, NaN, 0.03601294, "- N/A -   "
29.45, 1049.49, 0.04922348, NaN, NaN, NaN, 0.0347922, "- N/A -   "
29.47, 1050.33, 0.0492568, NaN, NaN, NaN, 0.0347922, "- N/A -   "
29.49, 1051.16, 0.04929012, NaN, NaN, NaN, 0.0347922, "- N/A -   "
29.51, 1052, 0.04932344, NaN, NaN, NaN, 0.03601294, "- N/A -   "
29.53, 1052.83, 0.04935676, NaN, NaN, NaN, 0.0347922, "- N/A -   "
29.55, 1053.66, 0.0493901, NaN, NaN, NaN, 0.0347922, "- N/A -   "
29.57, 1054.5, 0.04942063, NaN, NaN, NaN, 0.03601294, "- N/A -   "
29.59, 1055.22, 0.0494539, NaN, NaN, NaN, 0.0372337, "- N/A -   "
29.61, 1056.17, 0.04948727, NaN, NaN, NaN, 0.03601294, "- N/A -   "
29.63, 1057, 0.04952059, NaN, NaN, NaN, 0.03601294, "- N/A -   "
29.65, 1057.84, 0.0495567, NaN, NaN, NaN, 0.0347922, "- N/A -   "
29.67, 1058.67, 0.04959, NaN, NaN, NaN, 0.0347922, "- N/A -   "
29.69, 1059.51, 0.0496206, NaN, NaN, NaN, 0.03601294, "- N/A -   "
29.71, 1060.22, 0.0496511, NaN, NaN, NaN, 0.0372337, "- N/A -   "
29.73, 1061.06, 0.04968164, NaN, NaN, NaN, 0.0384545, "- N/A -   "
29.75, 1061.774, 0.049715, NaN, NaN, NaN, 0.0396753, "- N/A -   "
29.77, 1062.728, 0.0497483, NaN, NaN, NaN, 0.0384545, "- N/A -   "
29.79, 1063.44, 0.04977883, NaN, NaN, NaN, 0.0396753, "- N/A -   "
29.81, 1064.28, 0.0498094, NaN, NaN, NaN, 0.04089605, "- N/A -   "
29.83, 1065.11, 0.0498427, NaN, NaN, NaN, 0.04089605, "- N/A -   "
29.85, 1065.95, 0.049876, NaN, NaN, NaN, 0.04089605, "- N/A -   "
29.87, 1066.78, 0.0499093, NaN, NaN, NaN, 0.04211683, "- N/A -   "
29.89, 1067.74, 0.04994266, NaN, NaN, NaN, 0.04089605, "- N/A -   "
29.91, 1068.57, 0.04997598, NaN, NaN, NaN, 0.04089605, "- N/A -   "
29.93, 1069.53, 0.05001485, NaN, NaN, NaN, 0.0396753, "- N/A -   "
29.95, 1070.48, 0.0500509, NaN, NaN, NaN, 0.0372337, "- N/A -   "
29.97, 1071.43, 0.050087, NaN, NaN, NaN, 0.0372337, "- N/A -   "
29.99, 1072.39, 0.0501231, NaN, NaN, NaN, 0.0347922, "- N/A -   "
30.01, 1073.22, 0.0501592, NaN, NaN, NaN, 0.0335714, "- N/A -   "
30.03, 1074.18, 0.05019256, NaN, NaN, NaN, 0.0335714, "- N/A -   "
30.05, 1075.011, 0.05022866, NaN, NaN, NaN, 0.0323506, "- N/A -   "
30.07, 1076.08, 0.0502648, NaN, NaN, NaN, 0.0323506, "- N/A -   "
30.09, 1076.8, 0.0502953, NaN, NaN, NaN, 0.0323506, "- N/A -   "
30.11, 1077.63, 0.0503286, NaN, NaN, NaN, 0.0323506, "- N/A -   "
30.13, 1078.23, 0.0503619, NaN, NaN, NaN, 0.0335714, "- N/A -   "
30.15, 1079.07, 0.05039249, NaN, NaN, NaN, 0.0335714, "- N/A -   "
30.17, 1079.9, 0.05042581, NaN, NaN, NaN, 0.0347922, "- N/A -   "
30.19, 1080.85, 0.05045913, NaN, NaN, NaN, 0.0335714, "- N/A -   "
30.21, 1081.69, 0.05049523, NaN, NaN, NaN, 0.0323506, "- N/A -   "
30.23, 1082.76, 0.0505341, NaN, NaN, NaN, 0.0299091, "- N/A -   "
30.25, 1083.72, 0.0505702, NaN, NaN, NaN, 0.0286883, "- N/A -   "
30.27, 1084.67, 0.0506063, NaN, NaN, NaN, 0.0274675, "- N/A -   "
30.29, 1085.51, 0.0506396, NaN, NaN, NaN, 0.0286883, "- N/A -   "
30.31, 1086.22, 0.05066739, NaN, NaN, NaN, 0.0299091, "- N/A -   "
30.33, 1086.94, 0.0506979, NaN, NaN, NaN, 0.03112983, "- N/A -   "
30.35, 1087.65, 0.0507285, NaN, NaN, NaN, 0.0323506, "- N/A -   "
30.37, 1088.25, 0.05075347, NaN, NaN, NaN, 0.03601294, "- N/A -   "
30.39, 1088.84, 0.0507785, NaN, NaN, NaN, 0.0396753, "- N/A -   "
30.41, 1089.44, 0.0508062, NaN, NaN, NaN, 0.04211683, "- N/A -   "
30.43, 1090.28, 0.05083677, NaN, NaN, NaN, 0.0433376, "- N/A -   "
30.45, 1090.87, 0.05086454, NaN, NaN, NaN, 0.04577916, "- N/A -   "
30.47, 1091.71, 0.0508923, NaN, NaN, NaN, 0.0482207, "- N/A -   "
30.49, 1092.42, 0.05092285, NaN, NaN, NaN, 0.0494415, "- N/A -   "
30.51, 1093.26, 0.05095617, NaN, NaN, NaN, 0.0494415, "- N/A -   "
30.53, 1094.09, 0.0509895, NaN, NaN, NaN, 0.0494415, "- N/A -   "
30.55, 1095.05, 0.05102559, NaN, NaN, NaN, 0.0482207, "- N/A -   "
30.57, 1096, 0.05106724, NaN, NaN, NaN, 0.04577916, "- N/A -   "
30.59, 1097.07, 0.05110334, NaN, NaN, NaN, 0.0433376, "- N/A -   "
30.61, 1097.91, 0.0511394, NaN, NaN, NaN, 0.04211683, "- N/A -   "
30.63, 1098.98, 0.05117831, NaN, NaN, NaN, 0.0396753, "- N/A -   "
30.65, 1099.93, 0.0512144, NaN, NaN, NaN, 0.0384545, "- N/A -   "
30.67, 1100.77, 0.0512533, NaN, NaN, NaN, 0.03601294, "- N/A -   "
30.69, 1101.72, 0.0512866, NaN, NaN, NaN, 0.03601294, "- N/A -   "
30.71, 1102.56, 0.0513227, NaN, NaN, NaN, 0.0347922, "- N/A -   "
30.73, 1103.393, 0.051356, NaN, NaN, NaN, 0.0347922, "- N/A -   "
30.75, 1104.347, 0.0513921, NaN, NaN, NaN, 0.0335714, "- N/A -   "
30.77, 1105.301, 0.051431, NaN, NaN, NaN, 0.03112983, "- N/A -   "
30.79, 1106.37, 0.0514699, NaN, NaN, NaN, 0.0286883, "- N/A -   "
30.81, 1107.209, 0.0515032, NaN, NaN, NaN, 0.0299091, "- N/A -   "
30.83, 1108.04, 0.0515365, NaN, NaN, NaN, 0.0299091, "- N/A -   "
30.85, 1109, 0.0515698, NaN, NaN, NaN, 0.0286883, "- N/A -   "
30.87, 1109.83, 0.0516032, NaN, NaN, NaN, 0.0299091, "- N/A -   "
30.89, 1110.55, 0.0516337, NaN, NaN, NaN, 0.03112983, "- N/A -   "
30.91, 1111.26, 0.0516642, NaN, NaN, NaN, 0.03112983, "- N/A -   "
30.93, 1112.1, 0.0516976, NaN, NaN, NaN, 0.0323506, "- N/A -   "
30.95, 1112.93, 0.0517281, NaN, NaN, NaN, 0.0323506, "- N/A -   "
30.97, 1113.65, 0.0517559, NaN, NaN, NaN, 0.0347922, "- N/A -   "
30.99, 1114.245, 0.0517864, NaN, NaN, NaN, 0.0372337, "- N/A -   "
31.01, 1114.96, 0.0518142, NaN, NaN, NaN, 0.0396753, "- N/A -   "
31.03, 1115.68, 0.05184473, NaN, NaN, NaN, 0.04089605, "- N/A -   "
31.05, 1116.51, 0.05187528, NaN, NaN, NaN, 0.04089605, "- N/A -   "
31.055, 1116.75, 0.0518836, NaN, NaN, NaN, 0.04089605, "- N/A -   "