File: 2_Tensile_Data/Hamel_ForceTest_Bolt8_Test2.csv
Time, Load (lb), Position (in), AxialStrain (in), TransverseStrain (in), Auxiliary (), Control Out (V), Stress (psi)
0.0, 1.06153, 0.0, NaN, NaN, NaN, 0.0799609, "- N/A -   "
0.01, 1.17947, 3.054427E-5, NaN, NaN, NaN, 0.07385705, "- N/A -   "
0.02, 1.29742, 6.108854E-5, NaN, NaN, NaN, 0.06775316, "- N/A -   "
0.03, 1.41537, 8.885606E-5, NaN, NaN, NaN, 0.06287005, "- N/A -   "
0.04, 1.53332, 0.000113847, NaN, NaN, NaN, 0.0592077, "- N/A -   "
0.05, 1.65126, 1.388376E-4, NaN, NaN, NaN, 0.0555454, "- N/A -   "
0.06, 1.76921, 1.610516E-4, NaN, NaN, NaN, 0.0531038, "- N/A -   "
0.07, 1.76921, 0.000183266, NaN, NaN, NaN, 0.05066227, "- N/A -   "
0.08, 1.88716, 0.00020548, NaN, NaN, NaN, 0.0482207, "- N/A -   "
0.09, 2.005107, 0.000227694, NaN, NaN, NaN, 0.04699994, "- N/A -   "
0.1, 2.12305, 2.471309E-4, NaN, NaN, NaN, 0.0445584, "- N/A -   "
0.11, 2.12305, 0.000266568, NaN, NaN, NaN, 0.0433376, "- N/A -   "
0.12, 2.12305, 0.000286005, NaN, NaN, NaN, 0.0433376, "- N/A -   "
0.13, 2.35895, 0.000302666, NaN, NaN, NaN, 0.04211683, "- N/A -   "
0.14, 2.35895, 0.000319326, NaN, NaN, NaN, 0.04211683, "- N/A -   "
0.15, 2.476897, 0.000335987, NaN, NaN, NaN, 0.04211683, "- N/A -   "
0.16, 2.59484, 0.000352647, NaN, NaN, NaN, 0.04211683, "- N/A -   "
0.17, 2.712792, 0.000366531, NaN, NaN, NaN, 0.0433376, "- N/A -   "
0.18, 2.712792, 0.000383192, NaN, NaN, NaN, 0.0433376, "- N/A -   "
0.19, 2.712792, 0.000397076, NaN, NaN, NaN, 0.0445584, "- N/A -   "
0.2, 2.712792, 0.000410959, NaN, NaN, NaN, 0.04577916, "- N/A -   "
0.21, 2.83074, 4.276198E-4, NaN, NaN, NaN, 0.04577916, "- N/A -   "
0.22, 2.94869, 4.442803E-4, NaN, NaN, NaN, 0.04577916, "- N/A -   "
0.23, 3.06663, 0.000458164, NaN, NaN, NaN, 0.04699994, "- N/A -   "
0.24, 3.06663, 0.000474825, NaN, NaN, NaN, 0.04699994, "- N/A -   "
0.25, 3.18458, 0.000491485, NaN, NaN, NaN, 0.04699994, "- N/A -   "
0.26, 3.30253, 0.000510922, NaN, NaN, NaN, 0.04699994, "- N/A -   "
0.27, 3.30253, 5.248061E-4, NaN, NaN, NaN, 0.04699994, "- N/A -   "
0.28, 3.42048, 5.442434E-4, NaN, NaN, NaN, 0.04699994, "- N/A -   "
0.29, 3.42048, 0.000560904, NaN, NaN, NaN, 0.04699994, "- N/A -   "
0.3, 3.53842, 0.000577564, NaN, NaN, NaN, 0.04699994, "- N/A -   "
0.31, 3.65637, 5.942249E-4, NaN, NaN, NaN, 0.04699994, "- N/A -   "
0.32, 3.65637, 6.108854E-4, NaN, NaN, NaN, 0.04577916, "- N/A -   "
0.33, 3.774319, 0.000627546, NaN, NaN, NaN, 0.04577916, "- N/A -   "
0.34, 3.774319, 6.442064E-4, NaN, NaN, NaN, 0.04577916, "- N/A -   "
0.35, 3.774319, 6.636437E-4, NaN, NaN, NaN, 0.04577916, "- N/A -   "
0.36, 4.010214, 6.803042E-4, NaN, NaN, NaN, 0.04577916, "- N/A -   "
0.37, 4.010214, 6.969647E-4, NaN, NaN, NaN, 0.0445584, "- N/A -   "
0.38, 4.12816, 7.136252E-4, NaN, NaN, NaN, 0.0445584, "- N/A -   "
0.39, 4.12816, 0.000733062, NaN, NaN, NaN, 0.0433376, "- N/A -   "
0.4, 4.36406, 7.49723E-4, NaN, NaN, NaN, 0.0433376, "- N/A -   "
0.41, 4.482, 7.663835E-4, NaN, NaN, NaN, 0.0433376, "- N/A -   "
0.42, 4.482, 0.000783044, NaN, NaN, NaN, 0.0433376, "- N/A -   "
0.44, 4.717899, 8.191418E-4, NaN, NaN, NaN, 0.0433376, "- N/A -   "
0.46, 5.071741, 8.552396E-4, NaN, NaN, NaN, 0.04211683, "- N/A -   "
0.48, 5.307636, 8.857838E-4, NaN, NaN, NaN, 0.04211683, "- N/A -   "
0.5, 5.66148, 9.246584E-4, NaN, NaN, NaN, 0.04089605, "- N/A -   "
0.52, 5.897373, 9.635329E-4, NaN, NaN, NaN, 0.0372337, "- N/A -   "
0.54, 6.251216, 0.00100518, NaN, NaN, NaN, 0.0335714, "- N/A -   "
0.56, 6.60506, 0.00104684, NaN, NaN, NaN, 0.0299091, "- N/A -   "
0.58, 7.1948, 0.00108293, NaN, NaN, NaN, 0.0286883, "- N/A -   "
0.6, 7.430691, 0.001119031, NaN, NaN, NaN, 0.0286883, "- N/A -   "
0.62, 7.784533, 0.00114958, NaN, NaN, NaN, 0.0286883, "- N/A -   "
0.64, 8.020428, 0.00118012, NaN, NaN, NaN, 0.0299091, "- N/A -   "
0.66, 8.37427, 0.00121066, NaN, NaN, NaN, 0.03112983, "- N/A -   "
0.68, 8.728113, 0.001241208, NaN, NaN, NaN, 0.0335714, "- N/A -   "
0.7, 8.964007, 0.00127175, NaN, NaN, NaN, 0.0335714, "- N/A -   "
0.72, 9.31785, 0.0013023, NaN, NaN, NaN, 0.0347922, "- N/A -   "
0.74, 9.553744, 0.00133562, NaN, NaN, NaN, 0.0347922, "- N/A -   "
0.76, 9.907588, 0.00136616, NaN, NaN, NaN, 0.03601294, "- N/A -   "
0.78, 10.26143, 0.001399483, NaN, NaN, NaN, 0.03601294, "- N/A -   "
0.8, 10.73322, 0.0014328, NaN, NaN, NaN, 0.03601294, "- N/A -   "
0.82, 10.9691, 0.0014689, NaN, NaN, NaN, 0.0347922, "- N/A -   "
0.84, 11.323, 0.00150222, NaN, NaN, NaN, 0.0347922, "- N/A -   "
0.86, 11.6768, 0.00153554, NaN, NaN, NaN, 0.0347922, "- N/A -   "
0.88, 12.14859, 0.00156886, NaN, NaN, NaN, 0.0347922, "- N/A -   "
0.9, 12.5024, 0.00159663, NaN, NaN, NaN, 0.0372337, "- N/A -   "
0.92, 12.7383, 0.0016244, NaN, NaN, NaN, 0.0396753, "- N/A -   "
0.94, 13.09217, 0.001654944, NaN, NaN, NaN, 0.04211683, "- N/A -   "
0.96, 13.446, 0.00168271, NaN, NaN, NaN, 0.0433376, "- N/A -   "
0.98, 14.0357, 0.00171881, NaN, NaN, NaN, 0.04211683, "- N/A -   "
1, 14.3896, 0.00175213, NaN, NaN, NaN, 0.0433376, "- N/A -   "
1.02, 14.8614, 0.00178267, NaN, NaN, NaN, 0.0433376, "- N/A -   "
1.04, 15.2152, 0.00181322, NaN, NaN, NaN, 0.0445584, "- N/A -   "
1.06, 15.5691, 0.00184654, NaN, NaN, NaN, 0.0445584, "- N/A -   "
1.08, 16.1588, 0.00188541, NaN, NaN, NaN, 0.0433376, "- N/A -   "
1.1, 16.86649, 0.001924289, NaN, NaN, NaN, 0.0396753, "- N/A -   "
1.12, 17.3383, 0.00196316, NaN, NaN, NaN, 0.0384545, "- N/A -   "
1.14, 17.8101, 0.00199926, NaN, NaN, NaN, 0.03601294, "- N/A -   "
1.16, 18.3998, 0.00203536, NaN, NaN, NaN, 0.0347922, "- N/A -   "
1.18, 18.8716, 0.00207146, NaN, NaN, NaN, 0.0347922, "- N/A -   "
1.2, 19.3434, 0.00211033, NaN, NaN, NaN, 0.03112983, "- N/A -   "
1.22, 19.9331, 0.002149206, NaN, NaN, NaN, 0.0299091, "- N/A -   "
1.24, 20.287, 0.00217975, NaN, NaN, NaN, 0.0299091, "- N/A -   "
1.26, 20.6408, 0.00221029, NaN, NaN, NaN, 0.03112983, "- N/A -   "
1.28, 21.1126, 0.002240839, NaN, NaN, NaN, 0.0335714, "- N/A -   "
1.3, 21.5844, 0.00226861, NaN, NaN, NaN, 0.0347922, "- N/A -   "
1.32, 22.0562, 0.00230193, NaN, NaN, NaN, 0.0347922, "- N/A -   "
1.34, 22.41, 0.00233525, NaN, NaN, NaN, 0.0347922, "- N/A -   "
1.36, 22.9998, 0.00236857, NaN, NaN, NaN, 0.0347922, "- N/A -   "
1.38, 23.4715, 0.00240189, NaN, NaN, NaN, 0.0347922, "- N/A -   "
1.4, 24.0613, 0.002437988, NaN, NaN, NaN, 0.0335714, "- N/A -   "
1.42, 24.5331, 0.002474086, NaN, NaN, NaN, 0.0323506, "- N/A -   "
1.44, 25.1228, 0.00251018, NaN, NaN, NaN, 0.0323506, "- N/A -   "
1.46, 25.7125, 0.002540728, NaN, NaN, NaN, 0.0323506, "- N/A -   "
1.48, 26.18434, 0.00257127, NaN, NaN, NaN, 0.0335714, "- N/A -   "
1.5, 26.6561, 0.00260182, NaN, NaN, NaN, 0.0347922, "- N/A -   "
1.52, 27.01, 0.00262958, NaN, NaN, NaN, 0.0372337, "- N/A -   "
1.54, 27.4818, 0.002662905, NaN, NaN, NaN, 0.0372337, "- N/A -   "
1.56, 28.1894, 0.00269623, NaN, NaN, NaN, 0.0372337, "- N/A -   "
1.58, 28.54329, 0.00272399, NaN, NaN, NaN, 0.0396753, "- N/A -   "
1.6, 29.0151, 0.002751761, NaN, NaN, NaN, 0.04211683, "- N/A -   "
1.62, 29.6048, 0.00278508, NaN, NaN, NaN, 0.04211683, "- N/A -   "
1.64, 30.0766, 0.0028184, NaN, NaN, NaN, 0.0433376, "- N/A -   "
1.66, 30.6663, 0.002854501, NaN, NaN, NaN, 0.04211683, "- N/A -   "
1.68, 31.2561, 0.002887822, NaN, NaN, NaN, 0.04089605, "- N/A -   "
1.7, 31.8458, 0.00292114, NaN, NaN, NaN, 0.04089605, "- N/A -   "
1.72, 32.4356, 0.002957241, NaN, NaN, NaN, 0.04089605, "- N/A -   "
1.74, 33.02529, 0.00299056, NaN, NaN, NaN, 0.0396753, "- N/A -   "
1.76, 33.61503, 0.00302666, NaN, NaN, NaN, 0.0384545, "- N/A -   "
1.78, 34.2048, 0.003065534, NaN, NaN, NaN, 0.0372337, "- N/A -   "
1.8, 34.7945, 0.003098855, NaN, NaN, NaN, 0.03601294, "- N/A -   "
1.82, 35.3842, 0.0031294, NaN, NaN, NaN, 0.0372337, "- N/A -   "
1.84, 35.85603, 0.00316272, NaN, NaN, NaN, 0.0372337, "- N/A -   "
1.86, 36.44577, 0.00319326, NaN, NaN, NaN, 0.0384545, "- N/A -   "
1.88, 37.0355, 0.00322659, NaN, NaN, NaN, 0.0396753, "- N/A -   "
1.9, 37.5073, 0.00325713, NaN, NaN, NaN, 0.0396753, "- N/A -   "
1.92, 38.097, 0.00329045, NaN, NaN, NaN, 0.0396753, "- N/A -   "
1.94, 38.68677, 0.00332933, NaN, NaN, NaN, 0.0384545, "- N/A -   "
1.96, 39.3945, 0.00336542, NaN, NaN, NaN, 0.03601294, "- N/A -   "
1.98, 39.98419, 0.00340152, NaN, NaN, NaN, 0.0347922, "- N/A -   "
2, 40.57393, 0.00343762, NaN, NaN, NaN, 0.0335714, "- N/A -   "
2.02, 41.16367, 0.00347094, NaN, NaN, NaN, 0.0335714, "- N/A -   "
2.04, 41.7534, 0.00350426, NaN, NaN, NaN, 0.0335714, "- N/A -   "
2.06, 42.2252, 0.00353481, NaN, NaN, NaN, 0.0347922, "- N/A -   "
2.08, 42.8149, 0.00356813, NaN, NaN, NaN, 0.03601294, "- N/A -   "
2.1, 43.2867, 0.00360145, NaN, NaN, NaN, 0.0347922, "- N/A -   "
2.12, 43.87646, 0.00363199, NaN, NaN, NaN, 0.03601294, "- N/A -   "
2.14, 44.58414, 0.00366531, NaN, NaN, NaN, 0.03601294, "- N/A -   "
2.16, 45.05593, 0.00370141, NaN, NaN, NaN, 0.03601294, "- N/A -   "
2.18, 45.76362, 0.00373473, NaN, NaN, NaN, 0.0347922, "- N/A -   "
2.2, 46.3534, 0.003770829, NaN, NaN, NaN, 0.0335714, "- N/A -   "
2.22, 47.061, 0.00380693, NaN, NaN, NaN, 0.0323506, "- N/A -   "
2.24, 47.65078, 0.00384302, NaN, NaN, NaN, 0.03112983, "- N/A -   "
2.26, 48.12257, 0.003873569, NaN, NaN, NaN, 0.0323506, "- N/A -   "
2.28, 48.59436, 0.003904113, NaN, NaN, NaN, 0.0347922, "- N/A -   "
2.3, 49.0661, 0.0039291, NaN, NaN, NaN, 0.0372337, "- N/A -   "
2.32, 49.5379, 0.00395965, NaN, NaN, NaN, 0.0384545, "- N/A -   "
2.34, 50.1277, 0.00399019, NaN, NaN, NaN, 0.0396753, "- N/A -   "
2.36, 50.7174, 0.00402351, NaN, NaN, NaN, 0.0396753, "- N/A -   "
2.38, 51.30715, 0.00405406, NaN, NaN, NaN, 0.04089605, "- N/A -   "
2.4, 51.7789, 0.004084602, NaN, NaN, NaN, 0.04211683, "- N/A -   "
2.42, 52.48662, 0.004117923, NaN, NaN, NaN, 0.0433376, "- N/A -   "
2.44, 52.9584, 0.004148467, NaN, NaN, NaN, 0.0433376, "- N/A -   "
2.46, 53.54815, 0.00418179, NaN, NaN, NaN, 0.0433376, "- N/A -   "
2.48, 54.2558, 0.00421789, NaN, NaN, NaN, 0.0433376, "- N/A -   "
2.5, 54.8456, 0.004251207, NaN, NaN, NaN, 0.04211683, "- N/A -   "
2.52, 55.43531, 0.00429008, NaN, NaN, NaN, 0.0396753, "- N/A -   "
2.54, 56.143, 0.004326179, NaN, NaN, NaN, 0.0384545, "- N/A -   "
2.56, 56.73273, 0.004365054, NaN, NaN, NaN, 0.0372337, "- N/A -   "
2.58, 57.44042, 0.00440115, NaN, NaN, NaN, 0.03601294, "- N/A -   "
2.6, 58.1481, 0.00443725, NaN, NaN, NaN, 0.0335714, "- N/A -   "
2.62, 58.7378, 0.004473347, NaN, NaN, NaN, 0.0323506, "- N/A -   "
2.64, 59.2096, 0.00450667, NaN, NaN, NaN, 0.0323506, "- N/A -   "
2.66, 59.9173, 0.004542766, NaN, NaN, NaN, 0.03112983, "- N/A -   "
2.68, 60.3891, 0.004576087, NaN, NaN, NaN, 0.03112983, "- N/A -   "
2.7, 60.8609, 0.004606631, NaN, NaN, NaN, 0.0323506, "- N/A -   "
2.72, 61.56858, 0.004639952, NaN, NaN, NaN, 0.0323506, "- N/A -   "
2.74, 62.0404, 0.00467327, NaN, NaN, NaN, 0.0335714, "- N/A -   "
2.76, 62.5122, 0.004703818, NaN, NaN, NaN, 0.0335714, "- N/A -   "
2.78, 63.2198, 0.004742692, NaN, NaN, NaN, 0.0323506, "- N/A -   "
2.8, 63.92753, 0.00477879, NaN, NaN, NaN, 0.03112983, "- N/A -   "
2.82, 64.3993, 0.004812111, NaN, NaN, NaN, 0.0299091, "- N/A -   "
2.84, 64.87111, 0.00484821, NaN, NaN, NaN, 0.0299091, "- N/A -   "
2.86, 65.5788, 0.00488153, NaN, NaN, NaN, 0.0286883, "- N/A -   "
2.88, 65.93263, 0.004909297, NaN, NaN, NaN, 0.03112983, "- N/A -   "
2.9, 66.40443, 0.004939841, NaN, NaN, NaN, 0.0323506, "- N/A -   "
2.92, 66.87622, 0.004967609, NaN, NaN, NaN, 0.0347922, "- N/A -   "
2.94, 67.34801, 0.00500093, NaN, NaN, NaN, 0.03601294, "- N/A -   "
2.96, 67.81979, 0.00503147, NaN, NaN, NaN, 0.03601294, "- N/A -   "
2.98, 68.29159, 0.00505924, NaN, NaN, NaN, 0.0384545, "- N/A -   "
3, 68.8813, 0.005087009, NaN, NaN, NaN, 0.04089605, "- N/A -   "
3.02, 69.23517, 0.00511755, NaN, NaN, NaN, 0.0433376, "- N/A -   "
3.04, 69.707, 0.005145321, NaN, NaN, NaN, 0.04577916, "- N/A -   "
3.06, 70.17874, 0.00517587, NaN, NaN, NaN, 0.04577916, "- N/A -   "
3.08, 70.7685, 0.00520641, NaN, NaN, NaN, 0.04699994, "- N/A -   "
3.1, 71.3582, 0.00524251, NaN, NaN, NaN, 0.04699994, "- N/A -   "
3.12, 71.94796, 0.00527861, NaN, NaN, NaN, 0.0445584, "- N/A -   "
3.14, 72.5377, 0.005314703, NaN, NaN, NaN, 0.0445584, "- N/A -   "
3.16, 73.2454, 0.00535358, NaN, NaN, NaN, 0.04089605, "- N/A -   "
3.18, 73.9531, 0.00539245, NaN, NaN, NaN, 0.0384545, "- N/A -   "
3.2, 74.5428, 0.00543133, NaN, NaN, NaN, 0.03601294, "- N/A -   "
3.22, 75.13254, 0.00546742, NaN, NaN, NaN, 0.0347922, "- N/A -   "
3.24, 75.6043, 0.00549797, NaN, NaN, NaN, 0.03601294, "- N/A -   "
3.26, 75.95817, 0.005528513, NaN, NaN, NaN, 0.0372337, "- N/A -   "
3.28, 76.5479, 0.00556461, NaN, NaN, NaN, 0.03601294, "- N/A -   "
3.3, 77.25559, 0.00560071, NaN, NaN, NaN, 0.03601294, "- N/A -   "
3.32, 77.6094, 0.00563681, NaN, NaN, NaN, 0.0347922, "- N/A -   "
3.34, 78.19917, 0.00567013, NaN, NaN, NaN, 0.0335714, "- N/A -   "
3.36, 78.90686, 0.005709002, NaN, NaN, NaN, 0.03112983, "- N/A -   "
3.38, 79.4966, 0.00574788, NaN, NaN, NaN, 0.0286883, "- N/A -   "
3.4, 80.0863, 0.00578397, NaN, NaN, NaN, 0.0274675, "- N/A -   "
3.42, 80.67606, 0.005820072, NaN, NaN, NaN, 0.0262467, "- N/A -   "
3.44, 81.0299, 0.00585339, NaN, NaN, NaN, 0.0262467, "- N/A -   "
3.46, 81.5017, 0.005883937, NaN, NaN, NaN, 0.0274675, "- N/A -   "
3.48, 81.97349, 0.005914482, NaN, NaN, NaN, 0.0286883, "- N/A -   "
3.5, 82.56323, 0.0059478, NaN, NaN, NaN, 0.0299091, "- N/A -   "
3.52, 83.03502, 0.005978347, NaN, NaN, NaN, 0.03112983, "- N/A -   "
3.54, 83.50681, 0.006008891, NaN, NaN, NaN, 0.0323506, "- N/A -   "
3.56, 83.86065, 0.006039435, NaN, NaN, NaN, 0.0335714, "- N/A -   "
3.58, 84.45039, 0.006067203, NaN, NaN, NaN, 0.03601294, "- N/A -   "
3.6, 84.92217, 0.006097747, NaN, NaN, NaN, 0.0372337, "- N/A -   "
3.62, 85.276, 0.006128291, NaN, NaN, NaN, 0.0384545, "- N/A -   "
3.64, 85.74781, 0.006156059, NaN, NaN, NaN, 0.04089605, "- N/A -   "
3.66, 86.2196, 0.006186603, NaN, NaN, NaN, 0.04211683, "- N/A -   "
3.68, 86.69139, 0.006217147, NaN, NaN, NaN, 0.0433376, "- N/A -   "
3.7, 87.28113, 0.00625325, NaN, NaN, NaN, 0.0433376, "- N/A -   "
3.72, 87.75292, 0.00628379, NaN, NaN, NaN, 0.0433376, "- N/A -   "
3.74, 88.34265, 0.00631711, NaN, NaN, NaN, 0.0433376, "- N/A -   "
3.76, 88.9324, 0.00635321, NaN, NaN, NaN, 0.0433376, "- N/A -   "
3.78, 89.40418, 0.006383753, NaN, NaN, NaN, 0.0433376, "- N/A -   "
3.8, 89.99392, 0.006414297, NaN, NaN, NaN, 0.0445584, "- N/A -   "
3.82, 90.4657, 0.006450395, NaN, NaN, NaN, 0.0445584, "- N/A -   "
3.84, 91.1734, 0.006483716, NaN, NaN, NaN, 0.0433376, "- N/A -   "
3.86, 91.64519, 0.00652259, NaN, NaN, NaN, 0.04089605, "- N/A -   "
3.88, 92.23492, 0.006561465, NaN, NaN, NaN, 0.0396753, "- N/A -   "
3.9, 92.94261, 0.006597562, NaN, NaN, NaN, 0.0372337, "- N/A -   "
3.92, 93.65029, 0.006636437, NaN, NaN, NaN, 0.0347922, "- N/A -   "
3.94, 94.24, 0.00667531, NaN, NaN, NaN, 0.0323506, "- N/A -   "
3.96, 94.8298, 0.006714186, NaN, NaN, NaN, 0.0299091, "- N/A -   "
3.98, 95.41951, 0.006750284, NaN, NaN, NaN, 0.0299091, "- N/A -   "
4, 96.00924, 0.006783605, NaN, NaN, NaN, 0.0286883, "- N/A -   "
4.02, 96.599, 0.006819702, NaN, NaN, NaN, 0.0286883, "- N/A -   "
4.04, 96.95282, 0.00685302, NaN, NaN, NaN, 0.0274675, "- N/A -   "
4.06, 97.54256, 0.00688634, NaN, NaN, NaN, 0.0286883, "- N/A -   "
4.08, 98.01435, 0.00691411, NaN, NaN, NaN, 0.0299091, "- N/A -   "
4.1, 98.4861, 0.00694466, NaN, NaN, NaN, 0.03112983, "- N/A -   "
4.12, 98.83998, 0.006972424, NaN, NaN, NaN, 0.0335714, "- N/A -   "
4.14, 99.3118, 0.00700019, NaN, NaN, NaN, 0.03601294, "- N/A -   "
4.16, 99.7836, 0.00703074, NaN, NaN, NaN, 0.0372337, "- N/A -   "
4.18, 100.3733, 0.00706683, NaN, NaN, NaN, 0.0372337, "- N/A -   "
4.2, 100.963, 0.00709738, NaN, NaN, NaN, 0.0372337, "- N/A -   "
4.22, 101.435, 0.00712792, NaN, NaN, NaN, 0.0384545, "- N/A -   "
4.24, 101.907, 0.00716402, NaN, NaN, NaN, 0.0384545, "- N/A -   "
4.26, 102.496, 0.00719734, NaN, NaN, NaN, 0.0384545, "- N/A -   "
4.28, 103.086, 0.007230662, NaN, NaN, NaN, 0.0384545, "- N/A -   "
4.3, 103.558, 0.00726121, NaN, NaN, NaN, 0.0384545, "- N/A -   "
4.32, 104.148, 0.00729175, NaN, NaN, NaN, 0.0396753, "- N/A -   "
4.34, 104.619, 0.00732229, NaN, NaN, NaN, 0.04089605, "- N/A -   "
4.36, 105.091, 0.00735284, NaN, NaN, NaN, 0.04211683, "- N/A -   "
4.38, 105.563, 0.00738616, NaN, NaN, NaN, 0.0433376, "- N/A -   "
4.4, 106.035, 0.0074167, NaN, NaN, NaN, 0.0433376, "- N/A -   "
4.42, 106.625, 0.00745003, NaN, NaN, NaN, 0.0433376, "- N/A -   "
4.44, 107.0963, 0.00748335, NaN, NaN, NaN, 0.0445584, "- N/A -   "
4.46, 107.686, 0.00751667, NaN, NaN, NaN, 0.0433376, "- N/A -   "
4.48, 108.394, 0.00754999, NaN, NaN, NaN, 0.0433376, "- N/A -   "
4.5, 108.983, 0.007586086, NaN, NaN, NaN, 0.04211683, "- N/A -   "
4.52, 109.691, 0.00762774, NaN, NaN, NaN, 0.0384545, "- N/A -   "
4.54, 110.281, 0.007669389, NaN, NaN, NaN, 0.0347922, "- N/A -   "
4.56, 110.989, 0.007708263, NaN, NaN, NaN, 0.0335714, "- N/A -   "
4.58, 111.46, 0.007741584, NaN, NaN, NaN, 0.0323506, "- N/A -   "
4.6, 112.0501, 0.007777682, NaN, NaN, NaN, 0.0323506, "- N/A -   "
4.62, 112.758, 0.007811003, NaN, NaN, NaN, 0.0323506, "- N/A -   "
4.64, 113.23, 0.007844324, NaN, NaN, NaN, 0.0323506, "- N/A -   "
4.66, 113.583, 0.007874868, NaN, NaN, NaN, 0.0323506, "- N/A -   "
4.68, 114.173, 0.007905412, NaN, NaN, NaN, 0.0335714, "- N/A -   "
4.7, 114.645, 0.007935957, NaN, NaN, NaN, 0.03601294, "- N/A -   "
4.72, 115.117, 0.007966501, NaN, NaN, NaN, 0.03601294, "- N/A -   "
4.74, 115.706, 0.00799982, NaN, NaN, NaN, 0.03601294, "- N/A -   "
4.76, 116.296, 0.00803592, NaN, NaN, NaN, 0.03601294, "- N/A -   "
4.78, 116.886, 0.008069241, NaN, NaN, NaN, 0.0347922, "- N/A -   "
4.8, 117.476, 0.008105339, NaN, NaN, NaN, 0.0347922, "- N/A -   "
4.82, 117.947, 0.00813866, NaN, NaN, NaN, 0.0335714, "- N/A -   "
4.84, 118.537, 0.008171981, NaN, NaN, NaN, 0.0335714, "- N/A -   "
4.86, 119.127, 0.008205302, NaN, NaN, NaN, 0.0335714, "- N/A -   "
4.88, 119.717, 0.008238623, NaN, NaN, NaN, 0.0335714, "- N/A -   "
4.9, 120.306, 0.00827472, NaN, NaN, NaN, 0.0335714, "- N/A -   "
4.92, 120.778, 0.008305265, NaN, NaN, NaN, 0.0335714, "- N/A -   "
4.94, 121.25, 0.008335809, NaN, NaN, NaN, 0.0347922, "- N/A -   "
4.96, 121.84, 0.00836913, NaN, NaN, NaN, 0.0347922, "- N/A -   "
4.98, 122.194, 0.008396897, NaN, NaN, NaN, 0.0372337, "- N/A -   "
5, 122.547, 0.008424665, NaN, NaN, NaN, 0.0396753, "- N/A -   "
5.02, 123.019, 0.008455209, NaN, NaN, NaN, 0.04211683, "- N/A -   "
5.04, 123.609, 0.008485753, NaN, NaN, NaN, 0.04211683, "- N/A -   "
5.06, 124.199, 0.008521851, NaN, NaN, NaN, 0.04211683, "- N/A -   "
5.08, 124.906, 0.008557949, NaN, NaN, NaN, 0.04089605, "- N/A -   "
5.1, 125.496, 0.00859127, NaN, NaN, NaN, 0.0396753, "- N/A -   "
5.12, 125.9679, 0.008624592, NaN, NaN, NaN, 0.0396753, "- N/A -   "
5.14, 126.322, 0.00865514, NaN, NaN, NaN, 0.04089605, "- N/A -   "
5.16, 127.029, 0.008691234, NaN, NaN, NaN, 0.0396753, "- N/A -   "
5.18, 127.737, 0.008727332, NaN, NaN, NaN, 0.0384545, "- N/A -   "
5.2, 128.209, 0.00876065, NaN, NaN, NaN, 0.0384545, "- N/A -   "
5.22, 128.917, 0.00879675, NaN, NaN, NaN, 0.0372337, "- N/A -   "
5.24, 129.388, 0.008832848, NaN, NaN, NaN, 0.0372337, "- N/A -   "
5.26, 129.86, 0.008866169, NaN, NaN, NaN, 0.03601294, "- N/A -   "
5.28, 130.4499, 0.008899489, NaN, NaN, NaN, 0.03601294, "- N/A -   "
5.3, 131.04, 0.00893281, NaN, NaN, NaN, 0.03601294, "- N/A -   "
5.32, 131.629, 0.008968908, NaN, NaN, NaN, 0.03601294, "- N/A -   "
5.34, 132.101, 0.009002229, NaN, NaN, NaN, 0.03601294, "- N/A -   "
5.36, 132.573, 0.009035551, NaN, NaN, NaN, 0.0347922, "- N/A -   "
5.38, 133.163, 0.009068872, NaN, NaN, NaN, 0.0347922, "- N/A -   "
5.4, 133.752, 0.009107746, NaN, NaN, NaN, 0.0335714, "- N/A -   "
5.42, 134.342, 0.009141067, NaN, NaN, NaN, 0.0323506, "- N/A -   "
5.44, 134.932, 0.009174388, NaN, NaN, NaN, 0.0323506, "- N/A -   "
5.46, 135.4037, 0.009207709, NaN, NaN, NaN, 0.0335714, "- N/A -   "
5.48, 135.875, 0.009238253, NaN, NaN, NaN, 0.0335714, "- N/A -   "
5.5, 136.583, 0.009274351, NaN, NaN, NaN, 0.0335714, "- N/A -   "
5.52, 136.937, 0.009304896, NaN, NaN, NaN, 0.0335714, "- N/A -   "
5.54, 137.527, 0.009340993, NaN, NaN, NaN, 0.0335714, "- N/A -   "
5.56, 138.116, 0.00936876, NaN, NaN, NaN, 0.0347922, "- N/A -   "
5.58, 138.47, 0.009402081, NaN, NaN, NaN, 0.03601294, "- N/A -   "
5.6, 139.178, 0.009435403, NaN, NaN, NaN, 0.0347922, "- N/A -   "
5.62, 139.768, 0.009468723, NaN, NaN, NaN, 0.0347922, "- N/A -   "
5.64, 140.24, 0.009504821, NaN, NaN, NaN, 0.0335714, "- N/A -   "
5.66, 140.711, 0.009538143, NaN, NaN, NaN, 0.0335714, "- N/A -   "
5.68, 141.419, 0.009568687, NaN, NaN, NaN, 0.0347922, "- N/A -   "
5.7, 141.891, 0.009602007, NaN, NaN, NaN, 0.03601294, "- N/A -   "
5.72, 142.3626, 0.009629775, NaN, NaN, NaN, 0.0372337, "- N/A -   "
5.74, 142.8344, 0.00966032, NaN, NaN, NaN, 0.0384545, "- N/A -   "
5.76, 143.306, 0.009690863, NaN, NaN, NaN, 0.0396753, "- N/A -   "
5.78, 143.778, 0.009724186, NaN, NaN, NaN, 0.04089605, "- N/A -   "
5.8, 144.25, 0.00975473, NaN, NaN, NaN, 0.04089605, "- N/A -   "
5.82, 144.957, 0.009788051, NaN, NaN, NaN, 0.04211683, "- N/A -   "
5.84, 145.429, 0.009818594, NaN, NaN, NaN, 0.04211683, "- N/A -   "
5.86, 145.901, 0.00984914, NaN, NaN, NaN, 0.0433376, "- N/A -   "
5.88, 146.491, 0.00988246, NaN, NaN, NaN, 0.0445584, "- N/A -   "
5.9, 147.198, 0.00991578, NaN, NaN, NaN, 0.0433376, "- N/A -   "
5.92, 147.788, 0.009951878, NaN, NaN, NaN, 0.04211683, "- N/A -   "
5.94, 148.496, 0.009993529, NaN, NaN, NaN, 0.0384545, "- N/A -   "
5.96, 149.204, 0.0100352, NaN, NaN, NaN, 0.0347922, "- N/A -   "
5.98, 149.911, 0.0100741, NaN, NaN, NaN, 0.0335714, "- N/A -   "
6, 150.501, 0.0101074, NaN, NaN, NaN, 0.0323506, "- N/A -   "
6.02, 150.973, 0.0101407, NaN, NaN, NaN, 0.0323506, "- N/A -   "
6.04, 151.445, 0.0101712, NaN, NaN, NaN, 0.0335714, "- N/A -   "
6.06, 152.034, 0.0102046, NaN, NaN, NaN, 0.0335714, "- N/A -   "
6.08, 152.506, 0.0102379, NaN, NaN, NaN, 0.0347922, "- N/A -   "
6.1, 153.096, 0.0102684, NaN, NaN, NaN, 0.0347922, "- N/A -   "
6.12, 153.568, 0.01030175, NaN, NaN, NaN, 0.0347922, "- N/A -   "
6.14, 154.157, 0.01033507, NaN, NaN, NaN, 0.0347922, "- N/A -   "
6.16, 154.865, 0.0103739, NaN, NaN, NaN, 0.0335714, "- N/A -   "
6.18, 155.573, 0.01041, NaN, NaN, NaN, 0.03112983, "- N/A -   "
6.2, 156.162, 0.01044614, NaN, NaN, NaN, 0.03112983, "- N/A -   "
6.22, 156.634, 0.0104795, NaN, NaN, NaN, 0.0299091, "- N/A -   "
6.24, 157.224, 0.01051556, NaN, NaN, NaN, 0.0286883, "- N/A -   "
6.26, 157.814, 0.01054888, NaN, NaN, NaN, 0.0286883, "- N/A -   "
6.28, 158.2855, 0.0105794, NaN, NaN, NaN, 0.0299091, "- N/A -   "
6.3, 158.7573, 0.01061, NaN, NaN, NaN, 0.03112983, "- N/A -   "
6.32, 159.229, 0.0106405, NaN, NaN, NaN, 0.0323506, "- N/A -   "
6.34, 159.701, 0.0106711, NaN, NaN, NaN, 0.0335714, "- N/A -   "
6.36, 160.2906, 0.0107016, NaN, NaN, NaN, 0.03601294, "- N/A -   "
6.38, 160.7624, 0.01072937, NaN, NaN, NaN, 0.0372337, "- N/A -   "
6.4, 161.234, 0.0107571, NaN, NaN, NaN, 0.0396753, "- N/A -   "
6.42, 161.706, 0.0107877, NaN, NaN, NaN, 0.04211683, "- N/A -   "
6.44, 162.296, 0.0108127, NaN, NaN, NaN, 0.0445584, "- N/A -   "
6.46, 162.65, 0.010846, NaN, NaN, NaN, 0.04577916, "- N/A -   "
6.48, 163.121, 0.0108765, NaN, NaN, NaN, 0.04577916, "- N/A -   "
6.5, 163.829, 0.0109071, NaN, NaN, NaN, 0.04699994, "- N/A -   "
6.52, 164.301, 0.01094318, NaN, NaN, NaN, 0.04577916, "- N/A -   "
6.54, 164.891, 0.0109793, NaN, NaN, NaN, 0.0445584, "- N/A -   "
6.56, 165.598, 0.0110154, NaN, NaN, NaN, 0.0445584, "- N/A -   "
6.58, 166.424, 0.0110542, NaN, NaN, NaN, 0.04089605, "- N/A -   "
6.6, 167.014, 0.0110931, NaN, NaN, NaN, 0.0384545, "- N/A -   "
6.62, 167.7213, 0.0111264, NaN, NaN, NaN, 0.0384545, "- N/A -   "
6.64, 168.193, 0.01116532, NaN, NaN, NaN, 0.0372337, "- N/A -   "
6.66, 168.901, 0.0112014, NaN, NaN, NaN, 0.0347922, "- N/A -   "
6.68, 169.373, 0.0112347, NaN, NaN, NaN, 0.0347922, "- N/A -   "
6.7, 169.962, 0.0112681, NaN, NaN, NaN, 0.0347922, "- N/A -   "
6.72, 170.552, 0.01130138, NaN, NaN, NaN, 0.0347922, "- N/A -   "
6.74, 171.26, 0.0113403, NaN, NaN, NaN, 0.0335714, "- N/A -   "
6.76, 171.849, 0.0113764, NaN, NaN, NaN, 0.0323506, "- N/A -   "
6.78, 172.557, 0.0114125, NaN, NaN, NaN, 0.0299091, "- N/A -   "
6.8, 173.1469, 0.0114513, NaN, NaN, NaN, 0.0286883, "- N/A -   "
6.82, 173.619, 0.0114846, NaN, NaN, NaN, 0.0274675, "- N/A -   "
6.84, 174.326, 0.01151519, NaN, NaN, NaN, 0.0286883, "- N/A -   "
6.86, 174.798, 0.0115513, NaN, NaN, NaN, 0.0274675, "- N/A -   "
6.88, 175.388, 0.0115846, NaN, NaN, NaN, 0.0274675, "- N/A -   "
6.9, 175.978, 0.0116179, NaN, NaN, NaN, 0.0274675, "- N/A -   "
6.92, 176.449, 0.0116457, NaN, NaN, NaN, 0.0299091, "- N/A -   "
6.94, 176.9212, 0.0116735, NaN, NaN, NaN, 0.0323506, "- N/A -   "
6.96, 177.393, 0.011704, NaN, NaN, NaN, 0.0335714, "- N/A -   "
6.98, 177.983, 0.0117346, NaN, NaN, NaN, 0.0347922, "- N/A -   "
7, 178.337, 0.01176232, NaN, NaN, NaN, 0.0372337, "- N/A -   "
7.02, 178.926, 0.0117929, NaN, NaN, NaN, 0.0384545, "- N/A -   "
7.04, 179.3981, 0.0118234, NaN, NaN, NaN, 0.04089605, "- N/A -   "
7.06, 179.87, 0.0118512, NaN, NaN, NaN, 0.04211683, "- N/A -   "
7.08, 180.342, 0.0118817, NaN, NaN, NaN, 0.0445584, "- N/A -   "
7.1, 181.049, 0.0119123, NaN, NaN, NaN, 0.0445584, "- N/A -   "
7.12, 181.521, 0.0119456, NaN, NaN, NaN, 0.0445584, "- N/A -   "
7.14, 182.1109, 0.0119789, NaN, NaN, NaN, 0.0445584, "- N/A -   "
7.16, 182.819, 0.012015, NaN, NaN, NaN, 0.0433376, "- N/A -   "
7.18, 183.29, 0.0120483, NaN, NaN, NaN, 0.0433376, "- N/A -   "
7.2, 183.998, 0.0120844, NaN, NaN, NaN, 0.0433376, "- N/A -   "
7.22, 184.5878, 0.0121177, NaN, NaN, NaN, 0.04211683, "- N/A -   "
7.24, 185.178, 0.0121538, NaN, NaN, NaN, 0.04211683, "- N/A -   "
7.26, 185.885, 0.0121899, NaN, NaN, NaN, 0.0396753, "- N/A -   "
7.28, 186.475, 0.0122233, NaN, NaN, NaN, 0.0396753, "- N/A -   "
7.3, 187.301, 0.0122649, NaN, NaN, NaN, 0.0372337, "- N/A -   "
7.32, 188.008, 0.0123066, NaN, NaN, NaN, 0.0323506, "- N/A -   "
7.34, 188.834, 0.01234544, NaN, NaN, NaN, 0.0299091, "- N/A -   "
7.36, 189.424, 0.01238709, NaN, NaN, NaN, 0.0274675, "- N/A -   "
7.38, 190.013, 0.01242041, NaN, NaN, NaN, 0.0262467, "- N/A -   "
7.4, 190.603, 0.0124537, NaN, NaN, NaN, 0.0274675, "- N/A -   "
7.42, 191.075, 0.0124815, NaN, NaN, NaN, 0.0286883, "- N/A -   "
7.44, 191.665, 0.012512, NaN, NaN, NaN, 0.0299091, "- N/A -   "
7.46, 192.254, 0.0125454, NaN, NaN, NaN, 0.0299091, "- N/A -   "
7.48, 192.726, 0.0125787, NaN, NaN, NaN, 0.0299091, "- N/A -   "
7.5, 193.3159, 0.01260923, NaN, NaN, NaN, 0.03112983, "- N/A -   "
7.52, 193.7877, 0.0126398, NaN, NaN, NaN, 0.0323506, "- N/A -   "
7.54, 194.495, 0.0126731, NaN, NaN, NaN, 0.0335714, "- N/A -   "
7.56, 194.967, 0.0127036, NaN, NaN, NaN, 0.0335714, "- N/A -   "
7.58, 195.5569, 0.012737, NaN, NaN, NaN, 0.0347922, "- N/A -   "
7.6, 196.147, 0.0127675, NaN, NaN, NaN, 0.0347922, "- N/A -   "
7.62, 196.618, 0.012798, NaN, NaN, NaN, 0.03601294, "- N/A -   "
7.64, 197.208, 0.0128286, NaN, NaN, NaN, 0.0372337, "- N/A -   "
7.66, 197.798, 0.0128619, NaN, NaN, NaN, 0.0372337, "- N/A -   "
7.68, 198.388, 0.0128952, NaN, NaN, NaN, 0.0372337, "- N/A -   "
7.7, 198.977, 0.0129286, NaN, NaN, NaN, 0.0384545, "- N/A -   "
7.72, 199.567, 0.0129591, NaN, NaN, NaN, 0.0384545, "- N/A -   "
7.74, 200.157, 0.0129924, NaN, NaN, NaN, 0.0396753, "- N/A -   "
7.76, 200.7466, 0.013023, NaN, NaN, NaN, 0.04089605, "- N/A -   "
7.78, 201.2184, 0.01305351, NaN, NaN, NaN, 0.04211683, "- N/A -   "
7.8, 201.808, 0.0130841, NaN, NaN, NaN, 0.0433376, "- N/A -   "
7.82, 202.28, 0.0131174, NaN, NaN, NaN, 0.0433376, "- N/A -   "
7.84, 202.9876, 0.0131479, NaN, NaN, NaN, 0.0433376, "- N/A -   "
7.86, 203.577, 0.0131812, NaN, NaN, NaN, 0.0433376, "- N/A -   "
7.88, 204.167, 0.0132146, NaN, NaN, NaN, 0.0433376, "- N/A -   "
7.9, 204.7568, 0.0132534, NaN, NaN, NaN, 0.04089605, "- N/A -   "
7.92, 205.582, 0.0132923, NaN, NaN, NaN, 0.0384545, "- N/A -   "
7.94, 206.408, 0.0133312, NaN, NaN, NaN, 0.03601294, "- N/A -   "
7.96, 206.9978, 0.0133701, NaN, NaN, NaN, 0.0347922, "- N/A -   "
7.98, 207.705, 0.0134062, NaN, NaN, NaN, 0.0323506, "- N/A -   "
8, 208.4132, 0.0134423, NaN, NaN, NaN, 0.0323506, "- N/A -   "
8.02, 209.003, 0.0134784, NaN, NaN, NaN, 0.0323506, "- N/A -   "
8.04, 209.593, 0.0135145, NaN, NaN, NaN, 0.03112983, "- N/A -   "
8.06, 210.3, 0.0135478, NaN, NaN, NaN, 0.0299091, "- N/A -   "
8.08, 210.772, 0.0135783, NaN, NaN, NaN, 0.03112983, "- N/A -   "
8.1, 211.244, 0.0136089, NaN, NaN, NaN, 0.0335714, "- N/A -   "
8.12, 211.834, 0.0136366, NaN, NaN, NaN, 0.0347922, "- N/A -   "
8.14, 212.4234, 0.01366995, NaN, NaN, NaN, 0.03601294, "- N/A -   "
8.16, 213.013, 0.0137005, NaN, NaN, NaN, 0.03601294, "- N/A -   "
8.18, 213.485, 0.0137338, NaN, NaN, NaN, 0.03601294, "- N/A -   "
8.2, 214.1926, 0.0137699, NaN, NaN, NaN, 0.03601294, "- N/A -   "
8.22, 214.9, 0.01380601, NaN, NaN, NaN, 0.0335714, "- N/A -   "
8.24, 215.608, 0.0138421, NaN, NaN, NaN, 0.0335714, "- N/A -   "
8.26, 216.198, 0.0138782, NaN, NaN, NaN, 0.03112983, "- N/A -   "
8.28, 216.787, 0.0139115, NaN, NaN, NaN, 0.0323506, "- N/A -   "
8.3, 217.259, 0.0139421, NaN, NaN, NaN, 0.0323506, "- N/A -   "
8.32, 217.849, 0.0139698, NaN, NaN, NaN, 0.0347922, "- N/A -   "
8.34, 218.321, 0.0140032, NaN, NaN, NaN, 0.03601294, "- N/A -   "
8.36, 218.9105, 0.0140309, NaN, NaN, NaN, 0.0372337, "- N/A -   "
8.38, 219.5, 0.0140615, NaN, NaN, NaN, 0.0384545, "- N/A -   "
8.4, 219.972, 0.014092, NaN, NaN, NaN, 0.0396753, "- N/A -   "
8.42, 220.444, 0.0141198, NaN, NaN, NaN, 0.04211683, "- N/A -   "
8.44, 221.034, 0.0141503, NaN, NaN, NaN, 0.0433376, "- N/A -   "
8.46, 221.623, 0.0141836, NaN, NaN, NaN, 0.0445584, "- N/A -   "
8.48, 222.331, 0.0142197, NaN, NaN, NaN, 0.0433376, "- N/A -   "
8.5, 223.039, 0.0142531, NaN, NaN, NaN, 0.04211683, "- N/A -   "
8.52, 223.51, 0.0142864, NaN, NaN, NaN, 0.04211683, "- N/A -   "
8.54, 224.218, 0.0143225, NaN, NaN, NaN, 0.04089605, "- N/A -   "
8.56, 224.926, 0.0143586, NaN, NaN, NaN, 0.0396753, "- N/A -   "
8.58, 225.6335, 0.0143919, NaN, NaN, NaN, 0.0396753, "- N/A -   "
8.6, 226.3412, 0.0144308, NaN, NaN, NaN, 0.0372337, "- N/A -   "
8.62, 227.049, 0.0144669, NaN, NaN, NaN, 0.03601294, "- N/A -   "
8.64, 227.639, 0.014503, NaN, NaN, NaN, 0.03601294, "- N/A -   "
8.66, 228.228, 0.0145363, NaN, NaN, NaN, 0.03601294, "- N/A -   "
8.68, 228.936, 0.0145696, NaN, NaN, NaN, 0.0347922, "- N/A -   "
8.7, 229.644, 0.0146057, NaN, NaN, NaN, 0.0335714, "- N/A -   "
8.72, 230.233, 0.0146363, NaN, NaN, NaN, 0.0347922, "- N/A -   "
8.74, 230.705, 0.0146668, NaN, NaN, NaN, 0.03601294, "- N/A -   "
8.76, 231.295, 0.0147001, NaN, NaN, NaN, 0.03601294, "- N/A -   "
8.78, 232.003, 0.0147334, NaN, NaN, NaN, 0.03601294, "- N/A -   "
8.8, 232.592, 0.0147695, NaN, NaN, NaN, 0.0347922, "- N/A -   "
8.82, 233.3001, 0.0148056, NaN, NaN, NaN, 0.0335714, "- N/A -   "
8.84, 234.008, 0.014839, NaN, NaN, NaN, 0.0335714, "- N/A -   "
8.86, 234.598, 0.0148723, NaN, NaN, NaN, 0.0335714, "- N/A -   "
8.88, 235.187, 0.0149028, NaN, NaN, NaN, 0.0347922, "- N/A -   "
8.9, 235.777, 0.0149361, NaN, NaN, NaN, 0.0347922, "- N/A -   "
8.92, 236.367, 0.0149695, NaN, NaN, NaN, 0.0347922, "- N/A -   "
8.94, 237.074, 0.0150028, NaN, NaN, NaN, 0.0347922, "- N/A -   "
8.96, 237.664, 0.0150361, NaN, NaN, NaN, 0.0347922, "- N/A -   "
8.97, 237.9, 0.01505, NaN, NaN, NaN, 0.03601294, "- N/A -   "
8.98, 238.136, 0.0150667, NaN, NaN, NaN, 0.03601294, "- N/A -   "
9.01, 239.08, 0.01511386, NaN, NaN, NaN, 0.0372337, "- N/A -   "
9.04, 240.0231, 0.0151638, NaN, NaN, NaN, 0.0372337, "- N/A -   "
9.07, 241.085, 0.0152166, NaN, NaN, NaN, 0.03601294, "- N/A -   "
9.1, 241.91, 0.0152638, NaN, NaN, NaN, 0.0372337, "- N/A -   "
9.13, 242.736, 0.0153082, NaN, NaN, NaN, 0.0396753, "- N/A -   "
9.16, 243.678, 0.0153582, NaN, NaN, NaN, 0.04089605, "- N/A -   "
9.19, 244.621, 0.0154082, NaN, NaN, NaN, 0.0396753, "- N/A -   "
9.22, 245.799, 0.015461, NaN, NaN, NaN, 0.0384545, "- N/A -   "
9.25, 246.624, 0.0155137, NaN, NaN, NaN, 0.0384545, "- N/A -   "
9.28, 247.567, 0.0155609, NaN, NaN, NaN, 0.0384545, "- N/A -   "
9.31, 248.509, 0.0156081, NaN, NaN, NaN, 0.0396753, "- N/A -   "
9.34, 249.452, 0.0156609, NaN, NaN, NaN, 0.0396753, "- N/A -   "
9.37, 250.394, 0.0157109, NaN, NaN, NaN, 0.0384545, "- N/A -   "
9.4, 251.455, 0.01576362, NaN, NaN, NaN, 0.0372337, "- N/A -   "
9.43, 252.515, 0.0158164, NaN, NaN, NaN, 0.03601294, "- N/A -   "
9.46, 253.458, 0.0158691, NaN, NaN, NaN, 0.0347922, "- N/A -   "
9.49, 254.4, 0.01591912, NaN, NaN, NaN, 0.0347922, "- N/A -   "
9.52, 255.343, 0.0159691, NaN, NaN, NaN, 0.0347922, "- N/A -   "
9.55, 256.286, 0.0160219, NaN, NaN, NaN, 0.0335714, "- N/A -   "
9.58, 257.4639, 0.0160774, NaN, NaN, NaN, 0.03112983, "- N/A -   "
9.61, 258.2887, 0.0161218, NaN, NaN, NaN, 0.0335714, "- N/A -   "
9.64, 259.231, 0.016169, NaN, NaN, NaN, 0.0347922, "- N/A -   "
9.67, 260.174, 0.016219, NaN, NaN, NaN, 0.0347922, "- N/A -   "
9.7, 260.9987, 0.0162662, NaN, NaN, NaN, 0.03601294, "- N/A -   "
9.73, 261.9413, 0.016319, NaN, NaN, NaN, 0.0347922, "- N/A -   "
9.76, 263.12, 0.01637173, NaN, NaN, NaN, 0.0347922, "- N/A -   "
9.79, 263.944, 0.01641338, NaN, NaN, NaN, 0.0372337, "- N/A -   "
9.82, 264.6513, 0.01645781, NaN, NaN, NaN, 0.0396753, "- N/A -   "
9.85, 265.476, 0.01649946, NaN, NaN, NaN, 0.0445584, "- N/A -   "
9.88, 266.4187, 0.0165439, NaN, NaN, NaN, 0.04577916, "- N/A -   "
9.91, 267.3613, 0.01659387, NaN, NaN, NaN, 0.04699994, "- N/A -   "
9.94, 268.422, 0.01664385, NaN, NaN, NaN, 0.04699994, "- N/A -   "
9.97, 269.482, 0.0166994, NaN, NaN, NaN, 0.0445584, "- N/A -   "
10, 270.778, 0.0167605, NaN, NaN, NaN, 0.0396753, "- N/A -   "
10.03, 271.9565, 0.0168188, NaN, NaN, NaN, 0.03601294, "- N/A -   "
10.06, 273.017, 0.01687432, NaN, NaN, NaN, 0.0323506, "- N/A -   "
10.09, 274.195, 0.0169271, NaN, NaN, NaN, 0.03112983, "- N/A -   "
10.12, 275.02, 0.0169771, NaN, NaN, NaN, 0.03112983, "- N/A -   "
10.15, 275.963, 0.017027, NaN, NaN, NaN, 0.03112983, "- N/A -   "
10.18, 276.9052, 0.0170798, NaN, NaN, NaN, 0.03112983, "- N/A -   "
10.21, 278.0835, 0.01712978, NaN, NaN, NaN, 0.0299091, "- N/A -   "
10.24, 279.0261, 0.017177, NaN, NaN, NaN, 0.03112983, "- N/A -   "
10.27, 280.204, 0.0172297, NaN, NaN, NaN, 0.0299091, "- N/A -   "
10.3, 281.0291, 0.0172825, NaN, NaN, NaN, 0.0286883, "- N/A -   "
10.33, 282.09, 0.0173325, NaN, NaN, NaN, 0.0299091, "- N/A -   "
10.36, 283.032, 0.0173769, NaN, NaN, NaN, 0.03112983, "- N/A -   "
10.39, 283.857, 0.0174186, NaN, NaN, NaN, 0.03601294, "- N/A -   "
10.42, 284.446, 0.0174602, NaN, NaN, NaN, 0.0396753, "- N/A -   "
10.45, 285.3887, 0.0175019, NaN, NaN, NaN, 0.04211683, "- N/A -   "
10.48, 286.213, 0.0175518, NaN, NaN, NaN, 0.0433376, "- N/A -   "
10.51, 287.274, 0.0175991, NaN, NaN, NaN, 0.0433376, "- N/A -   "
10.54, 288.217, 0.017649, NaN, NaN, NaN, 0.0433376, "- N/A -   "
10.57, 289.395, 0.017699, NaN, NaN, NaN, 0.0433376, "- N/A -   "
10.6, 290.3374, 0.0177518, NaN, NaN, NaN, 0.0433376, "- N/A -   "
10.63, 291.398, 0.0178018, NaN, NaN, NaN, 0.04211683, "- N/A -   "
10.66, 292.34, 0.0178545, NaN, NaN, NaN, 0.04089605, "- N/A -   "
10.69, 293.401, 0.0179045, NaN, NaN, NaN, 0.04089605, "- N/A -   "
10.72, 294.5791, 0.01796003, NaN, NaN, NaN, 0.0384545, "- N/A -   "
10.75, 295.8752, 0.0180183, NaN, NaN, NaN, 0.0347922, "- N/A -   "
10.78, 297.0535, 0.01807943, NaN, NaN, NaN, 0.03112983, "- N/A -   "
10.81, 298.114, 0.0181322, NaN, NaN, NaN, 0.0299091, "- N/A -   "
10.84, 299.174, 0.0181822, NaN, NaN, NaN, 0.0286883, "- N/A -   "
10.87, 300.235, 0.0182322, NaN, NaN, NaN, 0.0286883, "- N/A -   "
10.9, 301.1774, 0.0182821, NaN, NaN, NaN, 0.0299091, "- N/A -   "
10.93, 302.12, 0.01832934, NaN, NaN, NaN, 0.0299091, "- N/A -   "
10.96, 303.18, 0.0183793, NaN, NaN, NaN, 0.0299091, "- N/A -   "
10.99, 304.123, 0.0184265, NaN, NaN, NaN, 0.03112983, "- N/A -   "
11.02, 305.183, 0.01847373, NaN, NaN, NaN, 0.0323506, "- N/A -   "
11.05, 306.008, 0.0185209, NaN, NaN, NaN, 0.0335714, "- N/A -   "
11.08, 306.9509, 0.01856814, NaN, NaN, NaN, 0.03601294, "- N/A -   "
11.11, 308.011, 0.0186181, NaN, NaN, NaN, 0.0347922, "- N/A -   "
11.14, 308.9539, 0.01866255, NaN, NaN, NaN, 0.0372337, "- N/A -   "
11.17, 309.7787, 0.018707, NaN, NaN, NaN, 0.0396753, "- N/A -   "
11.2, 310.603, 0.0187514, NaN, NaN, NaN, 0.04211683, "- N/A -   "
11.23, 311.6639, 0.0187986, NaN, NaN, NaN, 0.0433376, "- N/A -   "
11.26, 312.6065, 0.0188458, NaN, NaN, NaN, 0.0445584, "- N/A -   "
11.29, 313.549, 0.0188958, NaN, NaN, NaN, 0.0445584, "- N/A -   "
11.32, 314.8452, 0.0189486, NaN, NaN, NaN, 0.0433376, "- N/A -   "
11.35, 316.1413, 0.0190096, NaN, NaN, NaN, 0.0384545, "- N/A -   "
11.38, 317.32, 0.019068, NaN, NaN, NaN, 0.0347922, "- N/A -   "
11.41, 318.498, 0.01912349, NaN, NaN, NaN, 0.0323506, "- N/A -   "
11.44, 319.6761, 0.019179, NaN, NaN, NaN, 0.03112983, "- N/A -   "
11.47, 320.737, 0.0192318, NaN, NaN, NaN, 0.0299091, "- N/A -   "
11.5, 321.5613, 0.01927899, NaN, NaN, NaN, 0.03112983, "- N/A -   "
11.53, 322.622, 0.0193262, NaN, NaN, NaN, 0.03112983, "- N/A -   "
11.56, 323.564, 0.0193678, NaN, NaN, NaN, 0.0347922, "- N/A -   "
11.59, 324.389, 0.0194123, NaN, NaN, NaN, 0.0372337, "- N/A -   "
11.62, 325.332, 0.0194595, NaN, NaN, NaN, 0.0384545, "- N/A -   "
11.65, 326.51, 0.019515, NaN, NaN, NaN, 0.0372337, "- N/A -   "
11.68, 327.9239, 0.0195705, NaN, NaN, NaN, 0.0335714, "- N/A -   "
11.71, 328.867, 0.0196233, NaN, NaN, NaN, 0.0323506, "- N/A -   "
11.74, 330.1626, 0.0196761, NaN, NaN, NaN, 0.03112983, "- N/A -   "
11.77, 330.987, 0.0197205, NaN, NaN, NaN, 0.0335714, "- N/A -   "
11.8, 331.812, 0.0197594, NaN, NaN, NaN, 0.0384545, "- N/A -   "
11.83, 332.519, 0.0198038, NaN, NaN, NaN, 0.04211683, "- N/A -   "
11.86, 333.58, 0.019851, NaN, NaN, NaN, 0.04211683, "- N/A -   "
11.89, 334.758, 0.0199065, NaN, NaN, NaN, 0.0396753, "- N/A -   "
11.92, 335.936, 0.0199593, NaN, NaN, NaN, 0.0384545, "- N/A -   "
11.95, 336.8787, 0.0200093, NaN, NaN, NaN, 0.0384545, "- N/A -   "
11.98, 338.057, 0.0200565, NaN, NaN, NaN, 0.0396753, "- N/A -   "
12.01, 339.1174, 0.0201092, NaN, NaN, NaN, 0.0384545, "- N/A -   "
12.04, 340.178, 0.02015922, NaN, NaN, NaN, 0.0384545, "- N/A -   "
12.07, 341.12, 0.0202064, NaN, NaN, NaN, 0.0396753, "- N/A -   "
12.1, 342.181, 0.0202592, NaN, NaN, NaN, 0.0396753, "- N/A -   "
12.13, 343.5948, 0.0203147, NaN, NaN, NaN, 0.03601294, "- N/A -   "
12.16, 344.537, 0.0203675, NaN, NaN, NaN, 0.03601294, "- N/A -   "
12.19, 345.5978, 0.02041468, NaN, NaN, NaN, 0.03601294, "- N/A -   "
12.22, 346.7761, 0.02047299, NaN, NaN, NaN, 0.0335714, "- N/A -   "
12.25, 348.072, 0.0205313, NaN, NaN, NaN, 0.0299091, "- N/A -   "
12.28, 349.1326, 0.0205813, NaN, NaN, NaN, 0.0286883, "- N/A -   "
12.31, 350.311, 0.0206313, NaN, NaN, NaN, 0.0286883, "- N/A -   "
12.34, 351.371, 0.0206812, NaN, NaN, NaN, 0.0286883, "- N/A -   "
12.37, 352.3139, 0.0207285, NaN, NaN, NaN, 0.0299091, "- N/A -   "
12.4, 353.257, 0.0207757, NaN, NaN, NaN, 0.03112983, "- N/A -   "
12.43, 354.317, 0.0208229, NaN, NaN, NaN, 0.0323506, "- N/A -   "
12.46, 355.3774, 0.0208756, NaN, NaN, NaN, 0.03112983, "- N/A -   "
12.49, 356.438, 0.0209228, NaN, NaN, NaN, 0.0323506, "- N/A -   "
12.52, 357.2626, 0.0209673, NaN, NaN, NaN, 0.0347922, "- N/A -   "
12.55, 358.323, 0.0210117, NaN, NaN, NaN, 0.0384545, "- N/A -   "
12.58, 359.266, 0.0210589, NaN, NaN, NaN, 0.0396753, "- N/A -   "
12.61, 360.208, 0.0211033, NaN, NaN, NaN, 0.04211683, "- N/A -   "
12.64, 361.151, 0.02115052, NaN, NaN, NaN, 0.0433376, "- N/A -   "
12.67, 362.2113, 0.0211949, NaN, NaN, NaN, 0.04699994, "- N/A -   "
12.7, 363.272, 0.02124493, NaN, NaN, NaN, 0.04699994, "- N/A -   "
12.73, 364.332, 0.0212977, NaN, NaN, NaN, 0.0445584, "- N/A -   "
12.76, 365.628, 0.0213532, NaN, NaN, NaN, 0.0433376, "- N/A -   "
12.79, 367.042, 0.02141431, NaN, NaN, NaN, 0.0372337, "- N/A -   "
12.82, 368.338, 0.0214726, NaN, NaN, NaN, 0.0335714, "- N/A -   "
12.85, 369.3987, 0.0215226, NaN, NaN, NaN, 0.0335714, "- N/A -   "
12.88, 370.577, 0.0215754, NaN, NaN, NaN, 0.0335714, "- N/A -   "
[...]
17.89, 563.5328, 0.0299139, NaN, NaN, NaN, 0.0384545, "- N/A -   "
17.92, 564.597, 0.0299612, NaN, NaN, NaN, 0.0384545, "- N/A -   "
17.95, 565.898, 0.0300139, NaN, NaN, NaN, 0.0372337, "- N/A -   "
17.98, 566.9629, 0.0300583, NaN, NaN, NaN, 0.04089605, "- N/A -   "
18.01, 568.146, 0.0301028, NaN, NaN, NaN, 0.04211683, "- N/A -   "
18.04, 569.21, 0.03015, NaN, NaN, NaN, 0.0433376, "- N/A -   "
18.07, 570.275, 0.0301972, NaN, NaN, NaN, 0.04577916, "- N/A -   "
18.1, 571.576, 0.0302444, NaN, NaN, NaN, 0.04699994, "- N/A -   "
18.13, 572.877, 0.03029714, NaN, NaN, NaN, 0.0445584, "- N/A -   "
18.16, 574.4146, 0.0303555, NaN, NaN, NaN, 0.04211683, "- N/A -   "
18.19, 575.834, 0.0304138, NaN, NaN, NaN, 0.0372337, "- N/A -   "
18.22, 577.253, 0.0304693, NaN, NaN, NaN, 0.0347922, "- N/A -   "
18.25, 578.4362, 0.0305221, NaN, NaN, NaN, 0.0335714, "- N/A -   "
18.28, 579.8555, 0.03057759, NaN, NaN, NaN, 0.03112983, "- N/A -   "
18.31, 581.0384, 0.0306248, NaN, NaN, NaN, 0.0323506, "- N/A -   "
18.34, 582.2211, 0.030672, NaN, NaN, NaN, 0.0335714, "- N/A -   "
18.37, 583.404, 0.030722, NaN, NaN, NaN, 0.0347922, "- N/A -   "
18.4, 584.4685, 0.03076641, NaN, NaN, NaN, 0.03601294, "- N/A -   "
18.43, 585.651, 0.0308164, NaN, NaN, NaN, 0.03601294, "- N/A -   "
18.46, 587.189, 0.0308719, NaN, NaN, NaN, 0.0335714, "- N/A -   "
18.49, 588.49, 0.0309275, NaN, NaN, NaN, 0.03112983, "- N/A -   "
18.52, 589.791, 0.0309774, NaN, NaN, NaN, 0.03112983, "- N/A -   "
18.55, 590.8557, 0.0310219, NaN, NaN, NaN, 0.0335714, "- N/A -   "
18.58, 591.802, 0.0310663, NaN, NaN, NaN, 0.03601294, "- N/A -   "
18.61, 592.8664, 0.0311135, NaN, NaN, NaN, 0.0384545, "- N/A -   "
18.64, 594.049, 0.0311579, NaN, NaN, NaN, 0.04089605, "- N/A -   "
18.67, 594.9955, 0.0311968, NaN, NaN, NaN, 0.0445584, "- N/A -   "
18.7, 596.297, 0.0312496, NaN, NaN, NaN, 0.0445584, "- N/A -   "
18.73, 597.8342, 0.0313079, NaN, NaN, NaN, 0.0396753, "- N/A -   "
18.76, 599.0171, 0.0313551, NaN, NaN, NaN, 0.04089605, "- N/A -   "
18.79, 600.082, 0.03139951, NaN, NaN, NaN, 0.0433376, "- N/A -   "
18.82, 601.2644, 0.03145227, NaN, NaN, NaN, 0.04211683, "- N/A -   "
18.85, 602.802, 0.03151336, NaN, NaN, NaN, 0.0384545, "- N/A -   "
18.88, 604.221, 0.0315661, NaN, NaN, NaN, 0.03601294, "- N/A -   "
18.91, 605.641, 0.03162165, NaN, NaN, NaN, 0.0347922, "- N/A -   "
18.94, 606.8236, 0.0316716, NaN, NaN, NaN, 0.0335714, "- N/A -   "
18.97, 607.8881, 0.0317216, NaN, NaN, NaN, 0.0335714, "- N/A -   "
19, 609.3075, 0.0317716, NaN, NaN, NaN, 0.0335714, "- N/A -   "
19.03, 610.6086, 0.03182713, NaN, NaN, NaN, 0.0323506, "- N/A -   "
19.06, 611.7914, 0.03187711, NaN, NaN, NaN, 0.0323506, "- N/A -   "
19.09, 613.211, 0.0319271, NaN, NaN, NaN, 0.03112983, "- N/A -   "
19.12, 614.394, 0.0319743, NaN, NaN, NaN, 0.0323506, "- N/A -   "
19.15, 615.458, 0.03202428, NaN, NaN, NaN, 0.0323506, "- N/A -   "
19.18, 616.6409, 0.03207426, NaN, NaN, NaN, 0.0323506, "- N/A -   "
19.21, 617.942, 0.0321242, NaN, NaN, NaN, 0.0335714, "- N/A -   "
19.24, 619.125, 0.0321714, NaN, NaN, NaN, 0.0335714, "- N/A -   "
19.27, 620.4259, 0.03222143, NaN, NaN, NaN, 0.0335714, "- N/A -   "
19.3, 621.7269, 0.0322742, NaN, NaN, NaN, 0.0323506, "- N/A -   "
19.33, 622.7915, 0.0323214, NaN, NaN, NaN, 0.0335714, "- N/A -   "
19.36, 623.9743, 0.03236582, NaN, NaN, NaN, 0.03601294, "- N/A -   "
19.39, 624.9206, 0.03240747, NaN, NaN, NaN, 0.0396753, "- N/A -   "
19.42, 626.2216, 0.0324575, NaN, NaN, NaN, 0.04089605, "- N/A -   "
19.45, 627.2862, 0.03250188, NaN, NaN, NaN, 0.04211683, "- N/A -   "
19.48, 628.3507, 0.03254631, NaN, NaN, NaN, 0.0445584, "- N/A -   "
19.51, 629.6518, 0.0325935, NaN, NaN, NaN, 0.04577916, "- N/A -   "
19.54, 630.7163, 0.0326435, NaN, NaN, NaN, 0.04699994, "- N/A -   "
19.57, 632.0174, 0.0326907, NaN, NaN, NaN, 0.04699994, "- N/A -   "
19.6, 633.555, 0.032749, NaN, NaN, NaN, 0.0445584, "- N/A -   "
19.63, 634.9744, 0.0328101, NaN, NaN, NaN, 0.0396753, "- N/A -   "
19.66, 636.5121, 0.0328656, NaN, NaN, NaN, 0.0372337, "- N/A -   "
19.69, 637.8132, 0.03291562, NaN, NaN, NaN, 0.03601294, "- N/A -   "
19.72, 639.233, 0.0329684, NaN, NaN, NaN, 0.0347922, "- N/A -   "
19.75, 640.415, 0.0330184, NaN, NaN, NaN, 0.0347922, "- N/A -   "
19.78, 641.716, 0.0330711, NaN, NaN, NaN, 0.0335714, "- N/A -   "
19.81, 643.1358, 0.03312665, NaN, NaN, NaN, 0.03112983, "- N/A -   "
19.84, 644.5552, 0.0331822, NaN, NaN, NaN, 0.0286883, "- N/A -   "
19.87, 645.975, 0.03323772, NaN, NaN, NaN, 0.0262467, "- N/A -   "
19.9, 647.157, 0.0332877, NaN, NaN, NaN, 0.0274675, "- N/A -   "
19.93, 648.2219, 0.0333321, NaN, NaN, NaN, 0.0299091, "- N/A -   "
19.96, 649.2864, 0.03337378, NaN, NaN, NaN, 0.0323506, "- N/A -   "
19.99, 650.2326, 0.03341821, NaN, NaN, NaN, 0.0347922, "- N/A -   "
20.02, 651.2972, 0.03345986, NaN, NaN, NaN, 0.0384545, "- N/A -   "
20.05, 652.3617, 0.03350429, NaN, NaN, NaN, 0.04089605, "- N/A -   "
20.08, 653.545, 0.0335487, NaN, NaN, NaN, 0.0433376, "- N/A -   "
20.11, 654.6091, 0.0335931, NaN, NaN, NaN, 0.04577916, "- N/A -   "
20.14, 655.91, 0.0336431, NaN, NaN, NaN, 0.04577916, "- N/A -   "
20.17, 657.093, 0.03369311, NaN, NaN, NaN, 0.04699994, "- N/A -   "
20.2, 658.6306, 0.03374864, NaN, NaN, NaN, 0.0445584, "- N/A -   "
20.23, 660.1682, 0.033807, NaN, NaN, NaN, 0.0396753, "- N/A -   "
20.26, 661.706, 0.0338653, NaN, NaN, NaN, 0.03601294, "- N/A -   "
20.29, 663.007, 0.033918, NaN, NaN, NaN, 0.0347922, "- N/A -   "
20.32, 664.4264, 0.03397078, NaN, NaN, NaN, 0.0335714, "- N/A -   "
20.35, 665.7274, 0.0340235, NaN, NaN, NaN, 0.0323506, "- N/A -   "
20.38, 667.147, 0.0340791, NaN, NaN, NaN, 0.0299091, "- N/A -   "
20.41, 668.566, 0.0341318, NaN, NaN, NaN, 0.0286883, "- N/A -   "
20.44, 669.867, 0.03418182, NaN, NaN, NaN, 0.0286883, "- N/A -   "
20.47, 671.05, 0.0342346, NaN, NaN, NaN, 0.0286883, "- N/A -   "
20.5, 672.2329, 0.03428178, NaN, NaN, NaN, 0.0286883, "- N/A -   "
20.53, 673.534, 0.03433176, NaN, NaN, NaN, 0.0286883, "- N/A -   "
20.56, 674.8351, 0.03438452, NaN, NaN, NaN, 0.0274675, "- N/A -   "
20.59, 676.0179, 0.0344317, NaN, NaN, NaN, 0.0286883, "- N/A -   "
20.62, 676.9642, 0.0344734, NaN, NaN, NaN, 0.0323506, "- N/A -   "
20.65, 677.9104, 0.03451225, NaN, NaN, NaN, 0.0372337, "- N/A -   "
20.68, 679.093, 0.03455668, NaN, NaN, NaN, 0.0396753, "- N/A -   "
20.71, 680.276, 0.0346011, NaN, NaN, NaN, 0.04211683, "- N/A -   "
20.74, 681.3405, 0.03464831, NaN, NaN, NaN, 0.0433376, "- N/A -   "
20.77, 682.7599, 0.0347011, NaN, NaN, NaN, 0.0433376, "- N/A -   "
20.8, 684.061, 0.0347538, NaN, NaN, NaN, 0.04089605, "- N/A -   "
20.83, 685.2438, 0.0347983, NaN, NaN, NaN, 0.0433376, "- N/A -   "
20.86, 686.545, 0.0348482, NaN, NaN, NaN, 0.0433376, "- N/A -   "
20.89, 687.7277, 0.034901, NaN, NaN, NaN, 0.0433376, "- N/A -   "
20.92, 689.2653, 0.034951, NaN, NaN, NaN, 0.04211683, "- N/A -   "
20.95, 690.6847, 0.0350093, NaN, NaN, NaN, 0.0396753, "- N/A -   "
20.98, 691.9858, 0.03505927, NaN, NaN, NaN, 0.0384545, "- N/A -   "
21.01, 693.523, 0.0351204, NaN, NaN, NaN, 0.0335714, "- N/A -   "
21.04, 694.9429, 0.0351731, NaN, NaN, NaN, 0.0323506, "- N/A -   "
21.07, 696.3622, 0.03522865, NaN, NaN, NaN, 0.03112983, "- N/A -   "
21.1, 697.545, 0.0352786, NaN, NaN, NaN, 0.0299091, "- N/A -   "
21.13, 698.846, 0.0353286, NaN, NaN, NaN, 0.0299091, "- N/A -   "
21.16, 700.029, 0.03537582, NaN, NaN, NaN, 0.03112983, "- N/A -   "
21.19, 701.33, 0.0354202, NaN, NaN, NaN, 0.0335714, "- N/A -   "
21.22, 702.3945, 0.0354675, NaN, NaN, NaN, 0.0347922, "- N/A -   "
21.25, 703.577, 0.03551743, NaN, NaN, NaN, 0.0347922, "- N/A -   "
21.28, 704.878, 0.03556464, NaN, NaN, NaN, 0.0372337, "- N/A -   "
21.31, 706.1795, 0.0356118, NaN, NaN, NaN, 0.0372337, "- N/A -   "
21.34, 707.3623, 0.0356618, NaN, NaN, NaN, 0.0384545, "- N/A -   "
21.37, 708.6634, 0.03570903, NaN, NaN, NaN, 0.0384545, "- N/A -   "
21.4, 709.8462, 0.03575346, NaN, NaN, NaN, 0.04089605, "- N/A -   "
21.43, 711.029, 0.0358034, NaN, NaN, NaN, 0.04211683, "- N/A -   "
21.46, 712.2118, 0.0358506, NaN, NaN, NaN, 0.04211683, "- N/A -   "
21.49, 713.276, 0.03589785, NaN, NaN, NaN, 0.0433376, "- N/A -   "
21.52, 714.6957, 0.03594783, NaN, NaN, NaN, 0.0433376, "- N/A -   "
21.55, 716.1151, 0.0360006, NaN, NaN, NaN, 0.04211683, "- N/A -   "
21.58, 717.6527, 0.0360617, NaN, NaN, NaN, 0.0384545, "- N/A -   "
21.61, 719.072, 0.03611721, NaN, NaN, NaN, 0.03601294, "- N/A -   "
21.64, 720.61, 0.0361755, NaN, NaN, NaN, 0.0335714, "- N/A -   "
21.67, 722.0291, 0.03623106, NaN, NaN, NaN, 0.0299091, "- N/A -   "
21.7, 723.2119, 0.036281, NaN, NaN, NaN, 0.0299091, "- N/A -   "
21.73, 724.513, 0.0363282, NaN, NaN, NaN, 0.03112983, "- N/A -   "
21.76, 725.6958, 0.03637545, NaN, NaN, NaN, 0.0323506, "- N/A -   "
21.79, 726.879, 0.03642543, NaN, NaN, NaN, 0.0323506, "- N/A -   "
21.82, 728.1797, 0.0364726, NaN, NaN, NaN, 0.0347922, "- N/A -   "
21.85, 729.363, 0.0365226, NaN, NaN, NaN, 0.0335714, "- N/A -   "
21.88, 730.782, 0.0365754, NaN, NaN, NaN, 0.0323506, "- N/A -   "
21.91, 732.2013, 0.03662536, NaN, NaN, NaN, 0.0323506, "- N/A -   "
21.94, 733.2658, 0.0366753, NaN, NaN, NaN, 0.0335714, "- N/A -   "
21.97, 734.4486, 0.0367198, NaN, NaN, NaN, 0.0347922, "- N/A -   "
22, 735.7497, 0.036767, NaN, NaN, NaN, 0.03601294, "- N/A -   "
22.03, 736.8143, 0.0368142, NaN, NaN, NaN, 0.0372337, "- N/A -   "
22.06, 737.7605, 0.0368531, NaN, NaN, NaN, 0.04211683, "- N/A -   "
22.09, 738.825, 0.03689748, NaN, NaN, NaN, 0.0445584, "- N/A -   "
22.12, 740.2444, 0.03694746, NaN, NaN, NaN, 0.0445584, "- N/A -   "
22.15, 741.6637, 0.0370058, NaN, NaN, NaN, 0.04211683, "- N/A -   "
22.18, 743.0831, 0.0370585, NaN, NaN, NaN, 0.0396753, "- N/A -   "
22.21, 744.3842, 0.03710851, NaN, NaN, NaN, 0.04089605, "- N/A -   "
22.24, 745.6853, 0.0371585, NaN, NaN, NaN, 0.0396753, "- N/A -   "
22.27, 746.9864, 0.0372085, NaN, NaN, NaN, 0.0396753, "- N/A -   "
22.3, 748.406, 0.03726401, NaN, NaN, NaN, 0.0384545, "- N/A -   "
22.33, 749.707, 0.03731399, NaN, NaN, NaN, 0.0384545, "- N/A -   "
22.36, 750.89, 0.0373584, NaN, NaN, NaN, 0.0396753, "- N/A -   "
22.39, 752.1908, 0.0374084, NaN, NaN, NaN, 0.0396753, "- N/A -   "
22.42, 753.4918, 0.03746116, NaN, NaN, NaN, 0.0384545, "- N/A -   "
22.45, 755.0295, 0.03751947, NaN, NaN, NaN, 0.0347922, "- N/A -   "
22.48, 756.449, 0.03757223, NaN, NaN, NaN, 0.0335714, "- N/A -   "
22.51, 757.6317, 0.0376222, NaN, NaN, NaN, 0.0347922, "- N/A -   "
22.54, 758.933, 0.03767219, NaN, NaN, NaN, 0.0335714, "- N/A -   "
22.57, 760.2339, 0.0377222, NaN, NaN, NaN, 0.0347922, "- N/A -   "
22.6, 761.5349, 0.03776938, NaN, NaN, NaN, 0.0347922, "- N/A -   "
22.63, 762.836, 0.03782214, NaN, NaN, NaN, 0.0347922, "- N/A -   "
22.66, 764.1371, 0.0378721, NaN, NaN, NaN, 0.0335714, "- N/A -   "
22.69, 765.5565, 0.03792488, NaN, NaN, NaN, 0.0323506, "- N/A -   "
22.72, 766.739, 0.03797208, NaN, NaN, NaN, 0.0335714, "- N/A -   "
22.75, 767.804, 0.03801651, NaN, NaN, NaN, 0.03601294, "- N/A -   "
22.78, 768.987, 0.0380637, NaN, NaN, NaN, 0.0372337, "- N/A -   "
22.81, 770.406, 0.03811092, NaN, NaN, NaN, 0.0384545, "- N/A -   "
22.84, 771.4705, 0.0381581, NaN, NaN, NaN, 0.0396753, "- N/A -   "
22.87, 772.535, 0.0382026, NaN, NaN, NaN, 0.0433376, "- N/A -   "
22.9, 773.8361, 0.0382525, NaN, NaN, NaN, 0.0433376, "- N/A -   "
22.93, 775.1372, 0.0383025, NaN, NaN, NaN, 0.04211683, "- N/A -   "
22.96, 776.5566, 0.0383525, NaN, NaN, NaN, 0.04211683, "- N/A -   "
22.99, 777.858, 0.03840526, NaN, NaN, NaN, 0.04211683, "- N/A -   "
23.02, 779.5136, 0.0384636, NaN, NaN, NaN, 0.0384545, "- N/A -   "
23.05, 780.933, 0.0385191, NaN, NaN, NaN, 0.0347922, "- N/A -   "
23.08, 782.352, 0.0385746, NaN, NaN, NaN, 0.0335714, "- N/A -   "
23.11, 783.6535, 0.0386218, NaN, NaN, NaN, 0.0335714, "- N/A -   "
23.14, 784.9545, 0.03867182, NaN, NaN, NaN, 0.0335714, "- N/A -   "
23.17, 786.1374, 0.0387218, NaN, NaN, NaN, 0.0335714, "- N/A -   "
23.2, 787.4384, 0.0387718, NaN, NaN, NaN, 0.0335714, "- N/A -   "
23.23, 788.74, 0.0388218, NaN, NaN, NaN, 0.0335714, "- N/A -   "
23.26, 790.277, 0.0388801, NaN, NaN, NaN, 0.0299091, "- N/A -   "
23.29, 791.6966, 0.0389328, NaN, NaN, NaN, 0.0299091, "- N/A -   "
23.32, 792.9976, 0.03898004, NaN, NaN, NaN, 0.0299091, "- N/A -   "
23.35, 794.299, 0.03903, NaN, NaN, NaN, 0.03112983, "- N/A -   "
23.38, 795.4815, 0.0390772, NaN, NaN, NaN, 0.03112983, "- N/A -   "
23.41, 796.5461, 0.0391189, NaN, NaN, NaN, 0.0347922, "- N/A -   "
23.44, 797.4923, 0.0391605, NaN, NaN, NaN, 0.0396753, "- N/A -   "
23.47, 798.6751, 0.0392022, NaN, NaN, NaN, 0.04211683, "- N/A -   "
23.5, 799.8579, 0.0392466, NaN, NaN, NaN, 0.0445584, "- N/A -   "
23.53, 801.0407, 0.03929104, NaN, NaN, NaN, 0.04699994, "- N/A -   "
23.56, 802.342, 0.0393438, NaN, NaN, NaN, 0.04577916, "- N/A -   "
23.59, 803.6429, 0.0393966, NaN, NaN, NaN, 0.04577916, "- N/A -   "
23.62, 805.181, 0.03944931, NaN, NaN, NaN, 0.0433376, "- N/A -   "
23.65, 806.7182, 0.0395076, NaN, NaN, NaN, 0.0396753, "- N/A -   "
23.68, 808.0193, 0.03956316, NaN, NaN, NaN, 0.0372337, "- N/A -   "
23.71, 809.439, 0.0396131, NaN, NaN, NaN, 0.0372337, "- N/A -   "
23.74, 810.74, 0.03966312, NaN, NaN, NaN, 0.0372337, "- N/A -   "
23.77, 811.923, 0.0397103, NaN, NaN, NaN, 0.0384545, "- N/A -   "
23.8, 813.3419, 0.03976308, NaN, NaN, NaN, 0.0372337, "- N/A -   "
23.83, 814.761, 0.03981862, NaN, NaN, NaN, 0.03601294, "- N/A -   "
23.86, 816.181, 0.0398742, NaN, NaN, NaN, 0.0323506, "- N/A -   "
23.89, 817.6001, 0.0399269, NaN, NaN, NaN, 0.03112983, "- N/A -   "
23.92, 818.9011, 0.03997967, NaN, NaN, NaN, 0.03112983, "- N/A -   "
23.95, 820.321, 0.0400352, NaN, NaN, NaN, 0.0286883, "- N/A -   "
23.98, 821.5033, 0.04007964, NaN, NaN, NaN, 0.0299091, "- N/A -   "
24.01, 822.686, 0.0401241, NaN, NaN, NaN, 0.0323506, "- N/A -   "
24.04, 823.7507, 0.0401685, NaN, NaN, NaN, 0.0347922, "- N/A -   "
24.07, 824.9334, 0.0402157, NaN, NaN, NaN, 0.03601294, "- N/A -   "
24.1, 826.1163, 0.04025735, NaN, NaN, NaN, 0.0396753, "- N/A -   "
24.13, 827.0625, 0.0403018, NaN, NaN, NaN, 0.04211683, "- N/A -   "
24.16, 828.245, 0.0403462, NaN, NaN, NaN, 0.0445584, "- N/A -   "
24.19, 829.5464, 0.0403962, NaN, NaN, NaN, 0.0445584, "- N/A -   "
24.22, 830.9658, 0.0404489, NaN, NaN, NaN, 0.0433376, "- N/A -   "
24.25, 832.385, 0.0405017, NaN, NaN, NaN, 0.04211683, "- N/A -   "
24.28, 833.805, 0.04055446, NaN, NaN, NaN, 0.04089605, "- N/A -   "
24.31, 835.1056, 0.0406072, NaN, NaN, NaN, 0.0396753, "- N/A -   "
24.34, 836.525, 0.04066, NaN, NaN, NaN, 0.0396753, "- N/A -   "
24.37, 837.826, 0.0407127, NaN, NaN, NaN, 0.0372337, "- N/A -   "
24.4, 839.482, 0.04077382, NaN, NaN, NaN, 0.0323506, "- N/A -   "
24.43, 841.138, 0.0408321, NaN, NaN, NaN, 0.0286883, "- N/A -   "
24.46, 842.439, 0.0408849, NaN, NaN, NaN, 0.0274675, "- N/A -   "
24.49, 843.7401, 0.0409321, NaN, NaN, NaN, 0.0286883, "- N/A -   "
24.52, 844.9229, 0.0409793, NaN, NaN, NaN, 0.0299091, "- N/A -   "
24.55, 846.1058, 0.04103206, NaN, NaN, NaN, 0.0299091, "- N/A -   "
24.58, 847.4068, 0.0410765, NaN, NaN, NaN, 0.03112983, "- N/A -   "
24.61, 848.5896, 0.0411237, NaN, NaN, NaN, 0.0335714, "- N/A -   "
24.64, 849.891, 0.0411709, NaN, NaN, NaN, 0.0335714, "- N/A -   "
24.67, 851.0735, 0.0412181, NaN, NaN, NaN, 0.0347922, "- N/A -   "
24.7, 852.375, 0.0412681, NaN, NaN, NaN, 0.0347922, "- N/A -   "
24.73, 853.676, 0.0413208, NaN, NaN, NaN, 0.0347922, "- N/A -   "
24.76, 854.9768, 0.04136805, NaN, NaN, NaN, 0.0347922, "- N/A -   "
24.79, 856.0413, 0.0414125, NaN, NaN, NaN, 0.0384545, "- N/A -   "
24.82, 857.2241, 0.0414569, NaN, NaN, NaN, 0.0396753, "- N/A -   "
24.85, 858.4069, 0.0415013, NaN, NaN, NaN, 0.04211683, "- N/A -   "
24.88, 859.708, 0.04154854, NaN, NaN, NaN, 0.0433376, "- N/A -   "
24.91, 861.0091, 0.0415957, NaN, NaN, NaN, 0.0445584, "- N/A -   "
24.94, 862.192, 0.04164572, NaN, NaN, NaN, 0.0445584, "- N/A -   "
24.97, 863.848, 0.0417013, NaN, NaN, NaN, 0.04211683, "- N/A -   "
25, 865.3855, 0.04176235, NaN, NaN, NaN, 0.0372337, "- N/A -   "
25.03, 867.041, 0.04182066, NaN, NaN, NaN, 0.0347922, "- N/A -   "
25.06, 868.3425, 0.0418706, NaN, NaN, NaN, 0.0335714, "- N/A -   "
25.09, 869.7619, 0.0419262, NaN, NaN, NaN, 0.0323506, "- N/A -   "
25.12, 871.063, 0.0419762, NaN, NaN, NaN, 0.03112983, "- N/A -   "
25.15, 872.246, 0.0420178, NaN, NaN, NaN, 0.0347922, "- N/A -   "
25.18, 873.3103, 0.042065, NaN, NaN, NaN, 0.03601294, "- N/A -   "
25.21, 874.4931, 0.0421122, NaN, NaN, NaN, 0.0384545, "- N/A -   "
25.24, 875.676, 0.0421566, NaN, NaN, NaN, 0.0396753, "- N/A -   "
25.27, 877.0953, 0.0422094, NaN, NaN, NaN, 0.0384545, "- N/A -   "
25.3, 878.7512, 0.0422677, NaN, NaN, NaN, 0.03601294, "- N/A -   "
25.33, 880.171, 0.04232325, NaN, NaN, NaN, 0.0323506, "- N/A -   "
25.36, 881.4717, 0.04237323, NaN, NaN, NaN, 0.0335714, "- N/A -   "
25.39, 882.655, 0.0424204, NaN, NaN, NaN, 0.0347922, "- N/A -   "
25.42, 883.9556, 0.0424676, NaN, NaN, NaN, 0.0347922, "- N/A -   "
25.45, 885.375, 0.0425204, NaN, NaN, NaN, 0.0347922, "- N/A -   "
25.48, 886.3212, 0.0425621, NaN, NaN, NaN, 0.0372337, "- N/A -   "
25.51, 887.7406, 0.0426093, NaN, NaN, NaN, 0.0396753, "- N/A -   "
25.54, 888.9234, 0.0426565, NaN, NaN, NaN, 0.0396753, "- N/A -   "
25.57, 890.1062, 0.0427064, NaN, NaN, NaN, 0.04089605, "- N/A -   "
25.6, 891.5256, 0.0427592, NaN, NaN, NaN, 0.0396753, "- N/A -   "
25.63, 892.827, 0.04280918, NaN, NaN, NaN, 0.0384545, "- N/A -   "
25.66, 894.246, 0.0428619, NaN, NaN, NaN, 0.0384545, "- N/A -   "
25.69, 895.7837, 0.0429175, NaN, NaN, NaN, 0.03601294, "- N/A -   "
25.72, 897.0848, 0.04296468, NaN, NaN, NaN, 0.03601294, "- N/A -   "
25.75, 898.386, 0.0430174, NaN, NaN, NaN, 0.03601294, "- N/A -   "
25.78, 899.687, 0.0430674, NaN, NaN, NaN, 0.0347922, "- N/A -   "
25.81, 900.9881, 0.0431174, NaN, NaN, NaN, 0.0347922, "- N/A -   "
25.84, 902.4074, 0.04317016, NaN, NaN, NaN, 0.0347922, "- N/A -   "
25.87, 903.7085, 0.04322292, NaN, NaN, NaN, 0.0323506, "- N/A -   "
25.9, 905.364, 0.0432785, NaN, NaN, NaN, 0.0299091, "- N/A -   "
25.93, 906.547, 0.04332566, NaN, NaN, NaN, 0.03112983, "- N/A -   "
25.96, 907.9666, 0.0433756, NaN, NaN, NaN, 0.03112983, "- N/A -   "
25.99, 909.1494, 0.04342562, NaN, NaN, NaN, 0.0323506, "- N/A -   "
26.02, 910.3322, 0.0434728, NaN, NaN, NaN, 0.0335714, "- N/A -   "
26.05, 911.633, 0.04352281, NaN, NaN, NaN, 0.0323506, "- N/A -   "
26.08, 912.9344, 0.0435728, NaN, NaN, NaN, 0.0323506, "- N/A -   "
26.11, 914.3538, 0.04362277, NaN, NaN, NaN, 0.0323506, "- N/A -   "
26.14, 915.4183, 0.04367, NaN, NaN, NaN, 0.03601294, "- N/A -   "
26.17, 916.601, 0.0437144, NaN, NaN, NaN, 0.0384545, "- N/A -   "
26.2, 917.784, 0.04375883, NaN, NaN, NaN, 0.0396753, "- N/A -   "
26.23, 919.085, 0.043806, NaN, NaN, NaN, 0.04089605, "- N/A -   "
26.26, 920.3861, 0.04385324, NaN, NaN, NaN, 0.04211683, "- N/A -   "
26.29, 921.569, 0.04390045, NaN, NaN, NaN, 0.0433376, "- N/A -   "
26.32, 922.7517, 0.0439449, NaN, NaN, NaN, 0.04577916, "- N/A -   "
26.35, 924.1711, 0.04399763, NaN, NaN, NaN, 0.04577916, "- N/A -   "
26.38, 925.472, 0.0440476, NaN, NaN, NaN, 0.0445584, "- N/A -   "
26.41, 926.8916, 0.04410315, NaN, NaN, NaN, 0.04211683, "- N/A -   "
26.44, 928.4292, 0.04416146, NaN, NaN, NaN, 0.0396753, "- N/A -   "
26.47, 929.967, 0.044217, NaN, NaN, NaN, 0.03601294, "- N/A -   "
26.5, 931.504, 0.0442698, NaN, NaN, NaN, 0.0347922, "- N/A -   "
26.53, 932.8056, 0.0443225, NaN, NaN, NaN, 0.0347922, "- N/A -   "
26.56, 933.9884, 0.0443697, NaN, NaN, NaN, 0.0347922, "- N/A -   "
26.59, 935.2895, 0.04441692, NaN, NaN, NaN, 0.03601294, "- N/A -   "
26.62, 936.5906, 0.0444669, NaN, NaN, NaN, 0.0372337, "- N/A -   "
26.65, 938.01, 0.0445197, NaN, NaN, NaN, 0.03601294, "- N/A -   "
26.68, 939.548, 0.04457797, NaN, NaN, NaN, 0.03112983, "- N/A -   "
26.71, 941.085, 0.0446335, NaN, NaN, NaN, 0.0299091, "- N/A -   "
26.74, 942.3863, 0.0446835, NaN, NaN, NaN, 0.0286883, "- N/A -   "
26.77, 943.451, 0.0447279, NaN, NaN, NaN, 0.03112983, "- N/A -   "
26.78, 943.687, 0.0447418, NaN, NaN, NaN, 0.0323506, "- N/A -   "