File: 2_Tensile_Data/Hamel_ForceTest_Bolt7_Test7.csv
Time, Load (lb), Position (in), AxialStrain (in), TransverseStrain (in), Auxiliary (), Control Out (V), Stress (psi)
0.0, 6.723006, 0.0, NaN, NaN, NaN, -0.006714277, "- N/A -   "
0.01, 6.60506, 0.0, NaN, NaN, NaN, 6.103888E-4, "- N/A -   "
0.02, 6.723006, 2.776752E-6, NaN, NaN, NaN, 0.006714277, "- N/A -   "
0.03, 6.60506, 2.776752E-6, NaN, NaN, NaN, 0.0140389, "- N/A -   "
0.04, 6.723006, 5.553504E-6, NaN, NaN, NaN, 0.03112983, "- N/A -   "
0.05, 6.84095, 1.1107e-05, NaN, NaN, NaN, 0.0482207, "- N/A -   "
0.06, 6.9589, 2.2214e-05, NaN, NaN, NaN, 0.06287005, "- N/A -   "
0.07, 7.312743, 3.88745e-05, NaN, NaN, NaN, 0.0750778, "- N/A -   "
0.08, 7.666586, 5.83118e-05, NaN, NaN, NaN, 0.08606482, "- N/A -   "
0.09, 8.256323, 8.05258E-5, NaN, NaN, NaN, 0.095831, "- N/A -   "
0.1, 8.846061, 0.00011107, NaN, NaN, NaN, 0.101935, "- N/A -   "
0.11, 9.435798, 0.000144391, NaN, NaN, NaN, 0.101935, "- N/A -   "
0.12, 10.0255, 0.000172159, NaN, NaN, NaN, 0.095831, "- N/A -   "
0.13, 10.4973, 0.000197149, NaN, NaN, NaN, 0.09216871, "- N/A -   "
0.14, 10.9691, 0.00022214, NaN, NaN, NaN, 0.0897272, "- N/A -   "
0.15, 11.5589, 0.000244354, NaN, NaN, NaN, 0.08606482, "- N/A -   "
0.16, 12.0306, 0.000269345, NaN, NaN, NaN, 0.08240249, "- N/A -   "
0.17, 12.5024, 0.000291559, NaN, NaN, NaN, 0.0799609, "- N/A -   "
0.18, 12.9742, 0.000319326, NaN, NaN, NaN, 0.0762986, "- N/A -   "
0.19, 13.446, 0.000338764, NaN, NaN, NaN, 0.07385705, "- N/A -   "
0.2, 13.9178, 0.000360978, NaN, NaN, NaN, 0.07141549, "- N/A -   "
0.21, 14.2716, 0.000383192, NaN, NaN, NaN, 0.0701947, "- N/A -   "
0.22, 14.6255, 0.000402629, NaN, NaN, NaN, 0.06775316, "- N/A -   "
0.23, 14.9793, 0.000424843, NaN, NaN, NaN, 0.0653116, "- N/A -   "
0.24, 15.5691, 4.442803E-4, NaN, NaN, NaN, 0.0640908, "- N/A -   "
0.25, 15.805, 4.664943E-4, NaN, NaN, NaN, 0.06287005, "- N/A -   "
0.26, 16.27675, 4.831548E-4, NaN, NaN, NaN, 0.06164927, "- N/A -   "
0.27, 16.6306, 0.000502592, NaN, NaN, NaN, 0.0604285, "- N/A -   "
0.28, 17.1024, 0.000527583, NaN, NaN, NaN, 0.0579869, "- N/A -   "
0.29, 17.5742, 5.470201E-4, NaN, NaN, NaN, 0.0555454, "- N/A -   "
0.3, 18.046, 0.000569234, NaN, NaN, NaN, 0.0531038, "- N/A -   "
0.31, 18.3998, 0.000591448, NaN, NaN, NaN, 0.05188305, "- N/A -   "
0.32, 18.8716, 6.108854E-4, NaN, NaN, NaN, 0.0494415, "- N/A -   "
0.33, 19.2254, 6.330994E-4, NaN, NaN, NaN, 0.04699994, "- N/A -   "
0.34, 19.8152, 0.000655313, NaN, NaN, NaN, 0.04577916, "- N/A -   "
0.35, 20.169, 6.747507E-4, NaN, NaN, NaN, 0.0433376, "- N/A -   "
0.36, 20.6408, 6.969647E-4, NaN, NaN, NaN, 0.04211683, "- N/A -   "
0.37, 21.1126, 0.000716402, NaN, NaN, NaN, 0.04089605, "- N/A -   "
0.38, 21.3485, 0.000733062, NaN, NaN, NaN, 0.0396753, "- N/A -   "
0.39, 21.8203, 0.0007525, NaN, NaN, NaN, 0.0396753, "- N/A -   "
0.4, 22.0562, 7.691603E-4, NaN, NaN, NaN, 0.0384545, "- N/A -   "
0.41, 22.29207, 0.000785821, NaN, NaN, NaN, 0.0384545, "- N/A -   "
0.42, 22.7639, 0.000802481, NaN, NaN, NaN, 0.0384545, "- N/A -   "
0.43, 22.9998, 8.191418E-4, NaN, NaN, NaN, 0.0396753, "- N/A -   "
0.44, 23.3536, 8.358023E-4, NaN, NaN, NaN, 0.0396753, "- N/A -   "
0.45, 23.7074, 8.524628E-4, NaN, NaN, NaN, 0.0384545, "- N/A -   "
0.46, 24.0613, 0.0008719, NaN, NaN, NaN, 0.0372337, "- N/A -   "
0.47, 24.4151, 0.000891337, NaN, NaN, NaN, 0.0372337, "- N/A -   "
0.48, 24.8869, 9.107746E-4, NaN, NaN, NaN, 0.03601294, "- N/A -   "
0.49, 25.2408, 9.274351E-4, NaN, NaN, NaN, 0.0347922, "- N/A -   "
0.5, 25.7125, 9.440956E-4, NaN, NaN, NaN, 0.0347922, "- N/A -   "
0.51, 25.9484, 0.000960756, NaN, NaN, NaN, 0.0347922, "- N/A -   "
0.52, 26.3023, 9.774166E-4, NaN, NaN, NaN, 0.0347922, "- N/A -   "
0.53, 26.5382, 9.940772E-4, NaN, NaN, NaN, 0.0347922, "- N/A -   "
0.54, 27.01, 0.00101351, NaN, NaN, NaN, 0.0347922, "- N/A -   "
0.55, 27.3638, 0.00103017, NaN, NaN, NaN, 0.0335714, "- N/A -   "
0.56, 27.7177, 0.00105239, NaN, NaN, NaN, 0.0323506, "- N/A -   "
0.57, 28.1894, 0.00106905, NaN, NaN, NaN, 0.03112983, "- N/A -   "
0.58, 28.54329, 0.00108849, NaN, NaN, NaN, 0.03112983, "- N/A -   "
0.59, 28.89713, 0.00110515, NaN, NaN, NaN, 0.03112983, "- N/A -   "
0.6, 29.251, 0.00112181, NaN, NaN, NaN, 0.03112983, "- N/A -   "
0.61, 29.4869, 0.00113847, NaN, NaN, NaN, 0.03112983, "- N/A -   "
0.62, 29.84071, 0.00115513, NaN, NaN, NaN, 0.03112983, "- N/A -   "
0.63, 30.1946, 0.00116901, NaN, NaN, NaN, 0.03112983, "- N/A -   "
0.64, 30.4304, 0.001185673, NaN, NaN, NaN, 0.0323506, "- N/A -   "
0.65, 30.78429, 0.00119956, NaN, NaN, NaN, 0.0323506, "- N/A -   "
0.66, 31.1381, 0.00121622, NaN, NaN, NaN, 0.0335714, "- N/A -   "
0.67, 31.492, 0.0012301, NaN, NaN, NaN, 0.0335714, "- N/A -   "
0.68, 31.72787, 0.00124676, NaN, NaN, NaN, 0.0347922, "- N/A -   "
0.69, 31.9638, 0.00126065, NaN, NaN, NaN, 0.0347922, "- N/A -   "
0.7, 32.4356, 0.00127731, NaN, NaN, NaN, 0.03601294, "- N/A -   "
0.71, 32.7894, 0.00129119, NaN, NaN, NaN, 0.0372337, "- N/A -   "
0.72, 32.9073, 0.00130507, NaN, NaN, NaN, 0.0384545, "- N/A -   "
0.73, 33.2612, 0.00131618, NaN, NaN, NaN, 0.0396753, "- N/A -   "
0.74, 33.49708, 0.00133284, NaN, NaN, NaN, 0.04089605, "- N/A -   "
0.75, 33.73298, 0.00134395, NaN, NaN, NaN, 0.04211683, "- N/A -   "
0.76, 34.08682, 0.00135783, NaN, NaN, NaN, 0.0433376, "- N/A -   "
0.77, 34.3227, 0.00137449, NaN, NaN, NaN, 0.0445584, "- N/A -   "
0.78, 34.55861, 0.00138838, NaN, NaN, NaN, 0.0445584, "- N/A -   "
0.79, 34.9125, 0.00140504, NaN, NaN, NaN, 0.0445584, "- N/A -   "
0.8, 35.3842, 0.001421697, NaN, NaN, NaN, 0.04577916, "- N/A -   "
0.81, 35.6201, 0.00143558, NaN, NaN, NaN, 0.04577916, "- N/A -   "
0.82, 35.97398, 0.00145224, NaN, NaN, NaN, 0.04577916, "- N/A -   "
0.83, 36.32782, 0.0014689, NaN, NaN, NaN, 0.04577916, "- N/A -   "
0.84, 36.6817, 0.00148279, NaN, NaN, NaN, 0.04699994, "- N/A -   "
0.85, 37.0355, 0.00150222, NaN, NaN, NaN, 0.04699994, "- N/A -   "
0.86, 37.3893, 0.00151888, NaN, NaN, NaN, 0.04577916, "- N/A -   "
0.87, 37.74319, 0.00153832, NaN, NaN, NaN, 0.04577916, "- N/A -   "
0.88, 38.215, 0.001554981, NaN, NaN, NaN, 0.0445584, "- N/A -   "
0.89, 38.4509, 0.00157442, NaN, NaN, NaN, 0.0445584, "- N/A -   "
0.9, 38.8047, 0.00159386, NaN, NaN, NaN, 0.04211683, "- N/A -   "
0.91, 39.2765, 0.00161052, NaN, NaN, NaN, 0.04211683, "- N/A -   "
0.92, 39.7483, 0.00162995, NaN, NaN, NaN, 0.04211683, "- N/A -   "
0.93, 40.10214, 0.00164661, NaN, NaN, NaN, 0.04089605, "- N/A -   "
0.94, 40.456, 0.00166605, NaN, NaN, NaN, 0.04089605, "- N/A -   "
0.95, 40.8098, 0.00168271, NaN, NaN, NaN, 0.0396753, "- N/A -   "
0.96, 41.2816, 0.00170215, NaN, NaN, NaN, 0.0384545, "- N/A -   "
0.97, 41.51751, 0.00172159, NaN, NaN, NaN, 0.0372337, "- N/A -   "
0.98, 42.1072, 0.00174102, NaN, NaN, NaN, 0.0372337, "- N/A -   "
0.99, 42.3431, 0.00176046, NaN, NaN, NaN, 0.0347922, "- N/A -   "
1, 42.8149, 0.00177712, NaN, NaN, NaN, 0.0347922, "- N/A -   "
1.01, 43.1688, 0.00179656, NaN, NaN, NaN, 0.0347922, "- N/A -   "
1.02, 43.6406, 0.00181322, NaN, NaN, NaN, 0.0335714, "- N/A -   "
1.03, 43.87646, 0.00182988, NaN, NaN, NaN, 0.0335714, "- N/A -   "
1.04, 44.2303, 0.00184654, NaN, NaN, NaN, 0.0335714, "- N/A -   "
1.05, 44.58414, 0.0018632, NaN, NaN, NaN, 0.0335714, "- N/A -   "
1.06, 44.93799, 0.001879861, NaN, NaN, NaN, 0.0335714, "- N/A -   "
1.07, 45.29183, 0.0018993, NaN, NaN, NaN, 0.0323506, "- N/A -   "
1.08, 45.6457, 0.00191596, NaN, NaN, NaN, 0.0323506, "- N/A -   "
1.09, 45.9995, 0.001935396, NaN, NaN, NaN, 0.0323506, "- N/A -   "
1.1, 46.4713, 0.00195206, NaN, NaN, NaN, 0.03112983, "- N/A -   "
1.11, 46.9431, 0.00197149, NaN, NaN, NaN, 0.03112983, "- N/A -   "
1.12, 47.179, 0.001990931, NaN, NaN, NaN, 0.0299091, "- N/A -   "
1.13, 47.65078, 0.00200759, NaN, NaN, NaN, 0.0286883, "- N/A -   "
1.14, 48.00462, 0.00202703, NaN, NaN, NaN, 0.0274675, "- N/A -   "
1.15, 48.47641, 0.00204369, NaN, NaN, NaN, 0.0274675, "- N/A -   "
1.16, 48.7123, 0.00206035, NaN, NaN, NaN, 0.0274675, "- N/A -   "
1.17, 49.1841, 0.00207701, NaN, NaN, NaN, 0.0274675, "- N/A -   "
1.18, 49.5379, 0.002093671, NaN, NaN, NaN, 0.0274675, "- N/A -   "
1.19, 49.8918, 0.00211033, NaN, NaN, NaN, 0.0274675, "- N/A -   "
1.2, 50.1277, 0.00212422, NaN, NaN, NaN, 0.0286883, "- N/A -   "
1.21, 50.3636, 0.00214088, NaN, NaN, NaN, 0.0286883, "- N/A -   "
1.22, 50.7174, 0.00215476, NaN, NaN, NaN, 0.0299091, "- N/A -   "
1.23, 51.0713, 0.00217142, NaN, NaN, NaN, 0.0299091, "- N/A -   "
1.24, 51.4251, 0.00218808, NaN, NaN, NaN, 0.0299091, "- N/A -   "
1.25, 51.7789, 0.002204741, NaN, NaN, NaN, 0.03112983, "- N/A -   "
1.26, 52.1328, 0.00221862, NaN, NaN, NaN, 0.03112983, "- N/A -   "
1.27, 52.36868, 0.00223529, NaN, NaN, NaN, 0.0323506, "- N/A -   "
1.28, 52.72252, 0.002249169, NaN, NaN, NaN, 0.0323506, "- N/A -   "
1.29, 53.0764, 0.00226305, NaN, NaN, NaN, 0.0335714, "- N/A -   "
1.3, 53.4302, 0.00227971, NaN, NaN, NaN, 0.0335714, "- N/A -   "
1.31, 53.6661, 0.002293597, NaN, NaN, NaN, 0.0347922, "- N/A -   "
1.32, 54.0199, 0.00230748, NaN, NaN, NaN, 0.03601294, "- N/A -   "
1.33, 54.2558, 0.00232414, NaN, NaN, NaN, 0.03601294, "- N/A -   "
1.34, 54.6097, 0.002338025, NaN, NaN, NaN, 0.0372337, "- N/A -   "
1.35, 54.9635, 0.00235469, NaN, NaN, NaN, 0.0384545, "- N/A -   "
1.36, 55.3174, 0.00236857, NaN, NaN, NaN, 0.0384545, "- N/A -   "
1.37, 55.55326, 0.002382453, NaN, NaN, NaN, 0.0396753, "- N/A -   "
1.38, 55.9071, 0.00239911, NaN, NaN, NaN, 0.04089605, "- N/A -   "
1.39, 56.143, 0.002413, NaN, NaN, NaN, 0.04211683, "- N/A -   "
1.4, 56.4968, 0.002426881, NaN, NaN, NaN, 0.04211683, "- N/A -   "
1.41, 56.85068, 0.00244076, NaN, NaN, NaN, 0.0433376, "- N/A -   "
1.42, 57.20452, 0.00245465, NaN, NaN, NaN, 0.0445584, "- N/A -   "
1.43, 57.44042, 0.00247131, NaN, NaN, NaN, 0.0445584, "- N/A -   "
1.44, 57.79426, 0.00248797, NaN, NaN, NaN, 0.04577916, "- N/A -   "
1.45, 58.1481, 0.00250463, NaN, NaN, NaN, 0.04577916, "- N/A -   "
1.46, 58.6199, 0.00252129, NaN, NaN, NaN, 0.04577916, "- N/A -   "
1.47, 58.9737, 0.002537951, NaN, NaN, NaN, 0.04577916, "- N/A -   "
1.48, 59.3276, 0.00255461, NaN, NaN, NaN, 0.04577916, "- N/A -   "
1.49, 59.79937, 0.00257127, NaN, NaN, NaN, 0.0445584, "- N/A -   "
1.5, 60.15321, 0.00258793, NaN, NaN, NaN, 0.0445584, "- N/A -   "
1.51, 60.3891, 0.00260182, NaN, NaN, NaN, 0.04577916, "- N/A -   "
1.52, 60.7429, 0.00261848, NaN, NaN, NaN, 0.04577916, "- N/A -   "
1.53, 61.09679, 0.00263514, NaN, NaN, NaN, 0.04577916, "- N/A -   "
1.54, 61.45063, 0.002651798, NaN, NaN, NaN, 0.04577916, "- N/A -   "
1.55, 61.8045, 0.00267124, NaN, NaN, NaN, 0.04577916, "- N/A -   "
1.56, 62.1583, 0.00268512, NaN, NaN, NaN, 0.04577916, "- N/A -   "
1.57, 62.6301, 0.00270178, NaN, NaN, NaN, 0.04577916, "- N/A -   "
1.58, 62.866, 0.00271844, NaN, NaN, NaN, 0.04577916, "- N/A -   "
1.59, 63.33779, 0.00273788, NaN, NaN, NaN, 0.04577916, "- N/A -   "
1.6, 63.6916, 0.00275454, NaN, NaN, NaN, 0.0445584, "- N/A -   "
1.61, 64.16342, 0.00277398, NaN, NaN, NaN, 0.0433376, "- N/A -   "
1.62, 64.6352, 0.00279341, NaN, NaN, NaN, 0.0433376, "- N/A -   "
1.63, 64.87111, 0.00281007, NaN, NaN, NaN, 0.04211683, "- N/A -   "
1.64, 65.4608, 0.00282951, NaN, NaN, NaN, 0.04089605, "- N/A -   "
1.65, 65.93263, 0.00284895, NaN, NaN, NaN, 0.0396753, "- N/A -   "
1.66, 66.40443, 0.00287116, NaN, NaN, NaN, 0.0384545, "- N/A -   "
1.67, 66.87622, 0.00289338, NaN, NaN, NaN, 0.0347922, "- N/A -   "
1.68, 67.34801, 0.00291559, NaN, NaN, NaN, 0.0335714, "- N/A -   "
1.69, 67.70185, 0.00293503, NaN, NaN, NaN, 0.03112983, "- N/A -   "
1.7, 68.17364, 0.002954464, NaN, NaN, NaN, 0.0299091, "- N/A -   "
1.71, 68.52748, 0.00297112, NaN, NaN, NaN, 0.0299091, "- N/A -   "
1.72, 68.9993, 0.00299056, NaN, NaN, NaN, 0.0286883, "- N/A -   "
1.73, 69.35311, 0.00300722, NaN, NaN, NaN, 0.0286883, "- N/A -   "
1.74, 69.8249, 0.00302666, NaN, NaN, NaN, 0.0286883, "- N/A -   "
1.75, 70.17874, 0.00304332, NaN, NaN, NaN, 0.0286883, "- N/A -   "
1.76, 70.5326, 0.00305998, NaN, NaN, NaN, 0.0274675, "- N/A -   "
1.77, 70.88643, 0.00307664, NaN, NaN, NaN, 0.0286883, "- N/A -   "
1.78, 71.12233, 0.00309052, NaN, NaN, NaN, 0.0286883, "- N/A -   "
1.79, 71.4762, 0.00310441, NaN, NaN, NaN, 0.0299091, "- N/A -   "
1.8, 71.83001, 0.003123846, NaN, NaN, NaN, 0.0299091, "- N/A -   "
1.81, 72.1838, 0.00313773, NaN, NaN, NaN, 0.0299091, "- N/A -   "
1.82, 72.5377, 0.00315439, NaN, NaN, NaN, 0.0299091, "- N/A -   "
1.83, 72.89154, 0.00317105, NaN, NaN, NaN, 0.03112983, "- N/A -   "
1.84, 73.2454, 0.00318493, NaN, NaN, NaN, 0.03112983, "- N/A -   "
1.85, 73.59922, 0.003201595, NaN, NaN, NaN, 0.0323506, "- N/A -   "
1.86, 73.9531, 0.00321548, NaN, NaN, NaN, 0.0323506, "- N/A -   "
1.87, 74.3069, 0.00322936, NaN, NaN, NaN, 0.0335714, "- N/A -   "
1.88, 74.66075, 0.003246023, NaN, NaN, NaN, 0.0347922, "- N/A -   "
1.89, 74.8966, 0.00325991, NaN, NaN, NaN, 0.0347922, "- N/A -   "
1.9, 75.36844, 0.00327657, NaN, NaN, NaN, 0.0347922, "- N/A -   "
1.91, 75.7223, 0.00329045, NaN, NaN, NaN, 0.03601294, "- N/A -   "
1.92, 76.07612, 0.00330433, NaN, NaN, NaN, 0.0372337, "- N/A -   "
1.93, 76.31202, 0.003321, NaN, NaN, NaN, 0.0384545, "- N/A -   "
1.94, 76.6659, 0.00333488, NaN, NaN, NaN, 0.0384545, "- N/A -   "
1.95, 77.0197, 0.00335154, NaN, NaN, NaN, 0.0384545, "- N/A -   "
1.96, 77.37354, 0.0033682, NaN, NaN, NaN, 0.0396753, "- N/A -   "
1.97, 77.72738, 0.00338486, NaN, NaN, NaN, 0.0396753, "- N/A -   "
1.98, 78.19917, 0.00340152, NaN, NaN, NaN, 0.0384545, "- N/A -   "
1.99, 78.55301, 0.00341818, NaN, NaN, NaN, 0.0384545, "- N/A -   "
2, 78.90686, 0.00343484, NaN, NaN, NaN, 0.0384545, "- N/A -   "
2.01, 79.37865, 0.00345428, NaN, NaN, NaN, 0.0372337, "- N/A -   "
2.02, 79.73249, 0.00347094, NaN, NaN, NaN, 0.0372337, "- N/A -   "
2.03, 80.0863, 0.0034876, NaN, NaN, NaN, 0.0372337, "- N/A -   "
2.04, 80.55813, 0.00350426, NaN, NaN, NaN, 0.0372337, "- N/A -   "
2.05, 80.912, 0.00352092, NaN, NaN, NaN, 0.0372337, "- N/A -   "
2.06, 81.26581, 0.00353758, NaN, NaN, NaN, 0.0372337, "- N/A -   "
2.07, 81.5017, 0.00355424, NaN, NaN, NaN, 0.0384545, "- N/A -   "
2.08, 81.97349, 0.00356813, NaN, NaN, NaN, 0.0384545, "- N/A -   "
2.09, 82.20939, 0.00358479, NaN, NaN, NaN, 0.0396753, "- N/A -   "
2.1, 82.56323, 0.00359867, NaN, NaN, NaN, 0.0396753, "- N/A -   "
2.11, 82.79912, 0.00361255, NaN, NaN, NaN, 0.04089605, "- N/A -   "
2.12, 83.27091, 0.00362921, NaN, NaN, NaN, 0.04089605, "- N/A -   "
2.13, 83.6248, 0.0036431, NaN, NaN, NaN, 0.04211683, "- N/A -   "
2.14, 83.9786, 0.003659759, NaN, NaN, NaN, 0.04211683, "- N/A -   "
2.15, 84.45039, 0.0036792, NaN, NaN, NaN, 0.04211683, "- N/A -   "
2.16, 84.68629, 0.00369308, NaN, NaN, NaN, 0.04211683, "- N/A -   "
2.17, 85.04012, 0.00370696, NaN, NaN, NaN, 0.0433376, "- N/A -   "
2.18, 85.39397, 0.00372362, NaN, NaN, NaN, 0.0433376, "- N/A -   "
2.19, 85.74781, 0.00373751, NaN, NaN, NaN, 0.0445584, "- N/A -   "
2.2, 86.1017, 0.00375417, NaN, NaN, NaN, 0.0445584, "- N/A -   "
2.21, 86.4555, 0.003770829, NaN, NaN, NaN, 0.0445584, "- N/A -   "
2.22, 86.80934, 0.00379027, NaN, NaN, NaN, 0.0445584, "- N/A -   "
2.23, 87.28113, 0.00380693, NaN, NaN, NaN, 0.0445584, "- N/A -   "
2.24, 87.75292, 0.003826364, NaN, NaN, NaN, 0.0433376, "- N/A -   "
2.25, 88.22471, 0.00384302, NaN, NaN, NaN, 0.04211683, "- N/A -   "
2.26, 88.57855, 0.003859685, NaN, NaN, NaN, 0.04211683, "- N/A -   "
2.27, 89.05035, 0.003881899, NaN, NaN, NaN, 0.04089605, "- N/A -   "
2.28, 89.40418, 0.00390134, NaN, NaN, NaN, 0.0396753, "- N/A -   "
2.29, 89.87598, 0.003917997, NaN, NaN, NaN, 0.0384545, "- N/A -   "
2.3, 90.4657, 0.003940211, NaN, NaN, NaN, 0.0372337, "- N/A -   "
2.31, 90.70161, 0.00395965, NaN, NaN, NaN, 0.03601294, "- N/A -   "
2.32, 91.2913, 0.00397909, NaN, NaN, NaN, 0.0347922, "- N/A -   "
2.33, 91.64519, 0.003995746, NaN, NaN, NaN, 0.0335714, "- N/A -   "
2.34, 92.117, 0.004015183, NaN, NaN, NaN, 0.0323506, "- N/A -   "
2.35, 92.47082, 0.00403184, NaN, NaN, NaN, 0.0323506, "- N/A -   "
2.36, 92.94261, 0.004051281, NaN, NaN, NaN, 0.03112983, "- N/A -   "
2.37, 93.41439, 0.00407072, NaN, NaN, NaN, 0.03112983, "- N/A -   "
2.38, 93.8862, 0.00408738, NaN, NaN, NaN, 0.0299091, "- N/A -   "
2.39, 94.35797, 0.004106816, NaN, NaN, NaN, 0.0286883, "- N/A -   "
2.4, 94.7118, 0.004123477, NaN, NaN, NaN, 0.0286883, "- N/A -   "
2.41, 94.9477, 0.00413736, NaN, NaN, NaN, 0.0299091, "- N/A -   "
2.42, 95.30156, 0.004154021, NaN, NaN, NaN, 0.0299091, "- N/A -   "
2.43, 95.5374, 0.0041679, NaN, NaN, NaN, 0.03112983, "- N/A -   "
2.44, 96.00924, 0.004184565, NaN, NaN, NaN, 0.03112983, "- N/A -   "
2.45, 96.36309, 0.00419845, NaN, NaN, NaN, 0.0323506, "- N/A -   "
2.46, 96.71693, 0.004215109, NaN, NaN, NaN, 0.0323506, "- N/A -   "
2.47, 96.95282, 0.00423177, NaN, NaN, NaN, 0.0323506, "- N/A -   "
2.48, 97.4246, 0.00424843, NaN, NaN, NaN, 0.0323506, "- N/A -   "
2.49, 97.77845, 0.004265091, NaN, NaN, NaN, 0.0323506, "- N/A -   "
2.5, 98.01435, 0.00428175, NaN, NaN, NaN, 0.0335714, "- N/A -   "
2.51, 98.4861, 0.004295635, NaN, NaN, NaN, 0.0335714, "- N/A -   "
2.52, 98.83998, 0.004312296, NaN, NaN, NaN, 0.0335714, "- N/A -   "
2.53, 99.1938, 0.00432896, NaN, NaN, NaN, 0.0335714, "- N/A -   "
2.54, 99.66561, 0.00434839, NaN, NaN, NaN, 0.0323506, "- N/A -   "
2.55, 100.019, 0.004365054, NaN, NaN, NaN, 0.0323506, "- N/A -   "
2.56, 100.3733, 0.004384491, NaN, NaN, NaN, 0.0323506, "- N/A -   "
2.57, 100.845, 0.00440115, NaN, NaN, NaN, 0.0323506, "- N/A -   "
2.58, 101.081, 0.00441504, NaN, NaN, NaN, 0.0323506, "- N/A -   "
2.59, 101.553, 0.004434473, NaN, NaN, NaN, 0.03112983, "- N/A -   "
2.6, 101.907, 0.00445113, NaN, NaN, NaN, 0.0323506, "- N/A -   "
2.61, 102.26, 0.004465017, NaN, NaN, NaN, 0.0323506, "- N/A -   "
2.62, 102.6143, 0.00448168, NaN, NaN, NaN, 0.0335714, "- N/A -   "
2.63, 102.85, 0.004495561, NaN, NaN, NaN, 0.0335714, "- N/A -   "
2.64, 103.322, 0.004512222, NaN, NaN, NaN, 0.0335714, "- N/A -   "
2.65, 103.558, 0.00452611, NaN, NaN, NaN, 0.0347922, "- N/A -   "
2.66, 104.148, 0.004542766, NaN, NaN, NaN, 0.0347922, "- N/A -   "
2.67, 104.384, 0.00455943, NaN, NaN, NaN, 0.0347922, "- N/A -   "
2.68, 104.737, 0.004576087, NaN, NaN, NaN, 0.0347922, "- N/A -   "
2.69, 105.091, 0.00459275, NaN, NaN, NaN, 0.03601294, "- N/A -   "
2.7, 105.327, 0.00460663, NaN, NaN, NaN, 0.03601294, "- N/A -   "
2.71, 105.799, 0.00462607, NaN, NaN, NaN, 0.03601294, "- N/A -   "
2.72, 106.153, 0.004642729, NaN, NaN, NaN, 0.03601294, "- N/A -   "
2.73, 106.507, 0.004656613, NaN, NaN, NaN, 0.03601294, "- N/A -   "
2.74, 106.86, 0.0046705, NaN, NaN, NaN, 0.0372337, "- N/A -   "
2.75, 107.0963, 0.004687157, NaN, NaN, NaN, 0.0384545, "- N/A -   "
2.76, 107.45, 0.004698264, NaN, NaN, NaN, 0.0396753, "- N/A -   "
2.77, 107.804, 0.00471492, NaN, NaN, NaN, 0.0396753, "- N/A -   "
2.78, 108.158, 0.00473159, NaN, NaN, NaN, 0.04089605, "- N/A -   "
2.79, 108.512, 0.00474825, NaN, NaN, NaN, 0.04089605, "- N/A -   "
2.8, 108.748, 0.00476213, NaN, NaN, NaN, 0.04089605, "- N/A -   "
2.81, 109.219, 0.00477879, NaN, NaN, NaN, 0.04089605, "- N/A -   "
2.82, 109.5732, 0.004798227, NaN, NaN, NaN, 0.04089605, "- N/A -   "
2.83, 109.927, 0.00481489, NaN, NaN, NaN, 0.0396753, "- N/A -   "
2.84, 110.281, 0.00483155, NaN, NaN, NaN, 0.04089605, "- N/A -   "
2.85, 110.635, 0.004845432, NaN, NaN, NaN, 0.04089605, "- N/A -   "
2.86, 110.989, 0.004859315, NaN, NaN, NaN, 0.04211683, "- N/A -   "
2.87, 111.342, 0.004878753, NaN, NaN, NaN, 0.04211683, "- N/A -   "
2.88, 111.8142, 0.004892637, NaN, NaN, NaN, 0.04211683, "- N/A -   "
2.89, 112.168, 0.00491207, NaN, NaN, NaN, 0.04089605, "- N/A -   "
2.9, 112.522, 0.004928735, NaN, NaN, NaN, 0.04089605, "- N/A -   "
2.91, 112.994, 0.004945395, NaN, NaN, NaN, 0.04089605, "- N/A -   "
2.92, 113.348, 0.00496206, NaN, NaN, NaN, 0.04089605, "- N/A -   "
2.93, 113.701, 0.004981493, NaN, NaN, NaN, 0.0396753, "- N/A -   "
2.94, 114.055, 0.004998153, NaN, NaN, NaN, 0.0396753, "- N/A -   "
2.95, 114.527, 0.00501481, NaN, NaN, NaN, 0.0396753, "- N/A -   "
2.96, 114.999, 0.005034251, NaN, NaN, NaN, 0.0384545, "- N/A -   "
2.97, 115.353, 0.005053689, NaN, NaN, NaN, 0.0384545, "- N/A -   "
2.98, 115.706, 0.005070349, NaN, NaN, NaN, 0.0372337, "- N/A -   "
2.99, 116.178, 0.005087009, NaN, NaN, NaN, 0.0372337, "- N/A -   "
3, 116.5321, 0.00510367, NaN, NaN, NaN, 0.0372337, "- N/A -   "
3.01, 116.768, 0.005123107, NaN, NaN, NaN, 0.03601294, "- N/A -   "
3.02, 117.24, 0.00513977, NaN, NaN, NaN, 0.03601294, "- N/A -   "
3.03, 117.594, 0.00515643, NaN, NaN, NaN, 0.03601294, "- N/A -   "
3.04, 117.947, 0.005173089, NaN, NaN, NaN, 0.03601294, "- N/A -   "
3.05, 118.419, 0.00519253, NaN, NaN, NaN, 0.0347922, "- N/A -   "
3.06, 118.7731, 0.005209187, NaN, NaN, NaN, 0.0347922, "- N/A -   "
3.07, 119.245, 0.00522862, NaN, NaN, NaN, 0.0347922, "- N/A -   "
3.08, 119.481, 0.00524528, NaN, NaN, NaN, 0.0347922, "- N/A -   "
3.09, 119.953, 0.005261945, NaN, NaN, NaN, 0.0347922, "- N/A -   "
3.1, 120.306, 0.00527861, NaN, NaN, NaN, 0.0347922, "- N/A -   "
3.11, 120.66, 0.00529527, NaN, NaN, NaN, 0.0347922, "- N/A -   "
3.12, 121.014, 0.005311926, NaN, NaN, NaN, 0.0335714, "- N/A -   "
3.13, 121.368, 0.00532581, NaN, NaN, NaN, 0.0347922, "- N/A -   "
3.14, 121.722, 0.005345247, NaN, NaN, NaN, 0.0335714, "- N/A -   "
3.15, 122.194, 0.005364685, NaN, NaN, NaN, 0.0323506, "- N/A -   "
3.16, 122.665, 0.00538135, NaN, NaN, NaN, 0.0323506, "- N/A -   "
3.17, 123.019, 0.005400782, NaN, NaN, NaN, 0.0323506, "- N/A -   "
3.18, 123.255, 0.00541467, NaN, NaN, NaN, 0.0323506, "- N/A -   "
3.19, 123.609, 0.005431327, NaN, NaN, NaN, 0.0323506, "- N/A -   "
3.2, 123.963, 0.00544521, NaN, NaN, NaN, 0.0335714, "- N/A -   "
3.21, 124.317, 0.005461871, NaN, NaN, NaN, 0.0335714, "- N/A -   "
3.22, 124.67, 0.00547853, NaN, NaN, NaN, 0.0347922, "- N/A -   "
3.23, 125.024, 0.00549519, NaN, NaN, NaN, 0.0347922, "- N/A -   "
3.24, 125.496, 0.005511852, NaN, NaN, NaN, 0.0335714, "- N/A -   "
3.25, 125.732, 0.00552851, NaN, NaN, NaN, 0.0335714, "- N/A -   "
3.26, 126.204, 0.00554795, NaN, NaN, NaN, 0.0335714, "- N/A -   "
3.27, 126.558, 0.00556461, NaN, NaN, NaN, 0.0335714, "- N/A -   "
3.28, 126.911, 0.00558127, NaN, NaN, NaN, 0.0323506, "- N/A -   "
3.29, 127.383, 0.005597932, NaN, NaN, NaN, 0.0323506, "- N/A -   "
3.3, 127.737, 0.00561459, NaN, NaN, NaN, 0.0323506, "- N/A -   "
3.31, 128.091, 0.005631253, NaN, NaN, NaN, 0.0323506, "- N/A -   "
3.32, 128.327, 0.00564791, NaN, NaN, NaN, 0.0323506, "- N/A -   "
3.33, 128.799, 0.00566457, NaN, NaN, NaN, 0.0323506, "- N/A -   "
3.34, 129.035, 0.005681234, NaN, NaN, NaN, 0.0323506, "- N/A -   "
3.35, 129.27, 0.00569512, NaN, NaN, NaN, 0.0335714, "- N/A -   "
3.36, 129.624, 0.005711778, NaN, NaN, NaN, 0.0335714, "- N/A -   "
3.37, 129.978, 0.00572844, NaN, NaN, NaN, 0.0347922, "- N/A -   "
3.38, 130.4499, 0.0057451, NaN, NaN, NaN, 0.0335714, "- N/A -   "
3.39, 130.6858, 0.00576176, NaN, NaN, NaN, 0.0335714, "- N/A -   "
3.4, 131.04, 0.00577842, NaN, NaN, NaN, 0.0335714, "- N/A -   "
3.41, 131.511, 0.00579508, NaN, NaN, NaN, 0.0347922, "- N/A -   "
3.42, 131.865, 0.00580897, NaN, NaN, NaN, 0.0347922, "- N/A -   "
3.43, 132.101, 0.00582563, NaN, NaN, NaN, 0.0347922, "- N/A -   "
3.44, 132.455, 0.00583951, NaN, NaN, NaN, 0.03601294, "- N/A -   "
3.45, 132.809, 0.00585617, NaN, NaN, NaN, 0.0372337, "- N/A -   "
3.46, 133.045, 0.00587005, NaN, NaN, NaN, 0.0372337, "- N/A -   "
3.47, 133.517, 0.005886714, NaN, NaN, NaN, 0.0384545, "- N/A -   "
3.48, 133.752, 0.0059006, NaN, NaN, NaN, 0.0384545, "- N/A -   "
3.49, 134.106, 0.005917258, NaN, NaN, NaN, 0.0396753, "- N/A -   "
3.5, 134.46, 0.005931142, NaN, NaN, NaN, 0.0396753, "- N/A -   "
3.51, 134.696, 0.005945026, NaN, NaN, NaN, 0.04089605, "- N/A -   "
3.52, 135.05, 0.005961686, NaN, NaN, NaN, 0.04089605, "- N/A -   "
3.53, 135.4037, 0.00597557, NaN, NaN, NaN, 0.04211683, "- N/A -   "
3.54, 135.64, 0.00599223, NaN, NaN, NaN, 0.04211683, "- N/A -   "
3.55, 135.993, 0.00600889, NaN, NaN, NaN, 0.0433376, "- N/A -   "
3.56, 136.465, 0.006025552, NaN, NaN, NaN, 0.0433376, "- N/A -   "
3.57, 136.701, 0.006042212, NaN, NaN, NaN, 0.0433376, "- N/A -   "
3.58, 137.055, 0.006056096, NaN, NaN, NaN, 0.0433376, "- N/A -   "
3.59, 137.4088, 0.006072756, NaN, NaN, NaN, 0.0433376, "- N/A -   "
3.6, 137.763, 0.00608942, NaN, NaN, NaN, 0.0433376, "- N/A -   "
3.61, 138.116, 0.0061033, NaN, NaN, NaN, 0.0445584, "- N/A -   "
3.62, 138.47, 0.00612274, NaN, NaN, NaN, 0.04577916, "- N/A -   "
3.63, 138.824, 0.006139398, NaN, NaN, NaN, 0.0445584, "- N/A -   "
3.64, 139.296, 0.00615606, NaN, NaN, NaN, 0.0445584, "- N/A -   "
3.65, 139.532, 0.00617272, NaN, NaN, NaN, 0.0445584, "- N/A -   "
3.66, 139.8857, 0.00618938, NaN, NaN, NaN, 0.0445584, "- N/A -   "
3.67, 140.357, 0.00620882, NaN, NaN, NaN, 0.0433376, "- N/A -   "
3.68, 140.711, 0.006225478, NaN, NaN, NaN, 0.0433376, "- N/A -   "
3.69, 141.183, 0.00624491, NaN, NaN, NaN, 0.04211683, "- N/A -   "
3.7, 141.537, 0.00626435, NaN, NaN, NaN, 0.04211683, "- N/A -   "
3.71, 141.891, 0.00628379, NaN, NaN, NaN, 0.04089605, "- N/A -   "
3.72, 142.3626, 0.00630045, NaN, NaN, NaN, 0.0396753, "- N/A -   "
3.73, 142.716, 0.006322664, NaN, NaN, NaN, 0.0384545, "- N/A -   "
3.74, 143.188, 0.006342102, NaN, NaN, NaN, 0.03601294, "- N/A -   "
3.75, 143.66, 0.006361538, NaN, NaN, NaN, 0.0347922, "- N/A -   "
3.76, 144.014, 0.006380976, NaN, NaN, NaN, 0.0335714, "- N/A -   "
3.77, 144.368, 0.00640041, NaN, NaN, NaN, 0.0323506, "- N/A -   "
3.78, 144.8395, 0.00641985, NaN, NaN, NaN, 0.03112983, "- N/A -   "
3.79, 145.0754, 0.00643651, NaN, NaN, NaN, 0.03112983, "- N/A -   "
3.8, 145.311, 0.006453172, NaN, NaN, NaN, 0.03112983, "- N/A -   "
3.81, 145.665, 0.006469832, NaN, NaN, NaN, 0.0323506, "- N/A -   "
3.82, 145.901, 0.006483716, NaN, NaN, NaN, 0.0335714, "- N/A -   "
3.83, 146.255, 0.0064976, NaN, NaN, NaN, 0.0335714, "- N/A -   "
3.84, 146.6087, 0.00651426, NaN, NaN, NaN, 0.0347922, "- N/A -   "
3.85, 146.963, 0.00653092, NaN, NaN, NaN, 0.0347922, "- N/A -   "
3.86, 147.0805, 0.00654758, NaN, NaN, NaN, 0.0347922, "- N/A -   "
3.87, 147.552, 0.006564242, NaN, NaN, NaN, 0.0335714, "- N/A -   "
3.88, 147.788, 0.0065809, NaN, NaN, NaN, 0.0347922, "- N/A -   "
3.89, 148.142, 0.006597562, NaN, NaN, NaN, 0.0335714, "- N/A -   "
3.9, 148.496, 0.00661422, NaN, NaN, NaN, 0.0347922, "- N/A -   "
3.91, 148.732, 0.006630884, NaN, NaN, NaN, 0.0335714, "- N/A -   "
3.92, 149.204, 0.00665032, NaN, NaN, NaN, 0.0335714, "- N/A -   "
3.93, 149.557, 0.00666698, NaN, NaN, NaN, 0.0323506, "- N/A -   "
3.94, 150.029, 0.006689196, NaN, NaN, NaN, 0.03112983, "- N/A -   "
3.95, 150.383, 0.006705856, NaN, NaN, NaN, 0.0299091, "- N/A -   "
3.96, 150.737, 0.00672529, NaN, NaN, NaN, 0.0286883, "- N/A -   "
3.97, 150.973, 0.006741954, NaN, NaN, NaN, 0.0286883, "- N/A -   "
3.98, 151.327, 0.00676139, NaN, NaN, NaN, 0.0286883, "- N/A -   "
3.99, 151.68, 0.00677527, NaN, NaN, NaN, 0.0286883, "- N/A -   "
4, 151.916, 0.006789158, NaN, NaN, NaN, 0.0299091, "- N/A -   "
4.01, 152.152, 0.00680304, NaN, NaN, NaN, 0.03112983, "- N/A -   "
4.02, 152.506, 0.006819702, NaN, NaN, NaN, 0.03112983, "- N/A -   "
4.03, 152.86, 0.00683636, NaN, NaN, NaN, 0.03112983, "- N/A -   "
4.04, 153.096, 0.006850247, NaN, NaN, NaN, 0.0323506, "- N/A -   "
4.05, 153.332, 0.00686413, NaN, NaN, NaN, 0.0335714, "- N/A -   "
4.06, 153.686, 0.006880791, NaN, NaN, NaN, 0.0335714, "- N/A -   "
4.07, 153.921, 0.00689745, NaN, NaN, NaN, 0.0335714, "- N/A -   "
4.08, 154.2753, 0.006911336, NaN, NaN, NaN, 0.0347922, "- N/A -   "
4.09, 154.629, 0.006928, NaN, NaN, NaN, 0.0347922, "- N/A -   "
4.1, 154.865, 0.00694466, NaN, NaN, NaN, 0.0347922, "- N/A -   "
4.11, 155.219, 0.006961317, NaN, NaN, NaN, 0.03601294, "- N/A -   "
4.12, 155.455, 0.0069752, NaN, NaN, NaN, 0.03601294, "- N/A -   "
4.13, 155.573, 0.00698908, NaN, NaN, NaN, 0.0372337, "- N/A -   "
4.14, 155.927, 0.00700297, NaN, NaN, NaN, 0.0384545, "- N/A -   "
4.15, 156.162, 0.007016852, NaN, NaN, NaN, 0.0396753, "- N/A -   "
4.16, 156.5163, 0.007030736, NaN, NaN, NaN, 0.04089605, "- N/A -   "
4.17, 156.752, 0.007047396, NaN, NaN, NaN, 0.04089605, "- N/A -   "
4.18, 156.988, 0.00706406, NaN, NaN, NaN, 0.04211683, "- N/A -   "
4.19, 157.342, 0.00707794, NaN, NaN, NaN, 0.04211683, "- N/A -   "
4.2, 157.696, 0.00709182, NaN, NaN, NaN, 0.0433376, "- N/A -   "
4.21, 157.932, 0.007105708, NaN, NaN, NaN, 0.0445584, "- N/A -   "
4.22, 158.168, 0.00712237, NaN, NaN, NaN, 0.0445584, "- N/A -   "
4.23, 158.403, 0.00713625, NaN, NaN, NaN, 0.04577916, "- N/A -   "
4.24, 158.875, 0.00715291, NaN, NaN, NaN, 0.04699994, "- N/A -   "
4.25, 158.875, 0.0071668, NaN, NaN, NaN, 0.04699994, "- N/A -   "
4.26, 159.347, 0.007183457, NaN, NaN, NaN, 0.04699994, "- N/A -   "
4.27, 159.583, 0.007200118, NaN, NaN, NaN, 0.04699994, "- N/A -   "
4.28, 160.173, 0.007219555, NaN, NaN, NaN, 0.04577916, "- N/A -   "
4.29, 160.409, 0.007236215, NaN, NaN, NaN, 0.04577916, "- N/A -   "
4.3, 160.7624, 0.00725565, NaN, NaN, NaN, 0.0445584, "- N/A -   "
4.31, 161.116, 0.00727509, NaN, NaN, NaN, 0.0433376, "- N/A -   "
4.32, 161.4701, 0.00729175, NaN, NaN, NaN, 0.0433376, "- N/A -   "
4.33, 161.942, 0.007311188, NaN, NaN, NaN, 0.04211683, "- N/A -   "
4.34, 162.178, 0.007330625, NaN, NaN, NaN, 0.04211683, "- N/A -   "
4.35, 162.65, 0.007347285, NaN, NaN, NaN, 0.04089605, "- N/A -   "
4.36, 163.0034, 0.007366723, NaN, NaN, NaN, 0.0396753, "- N/A -   "
4.37, 163.357, 0.00738616, NaN, NaN, NaN, 0.0384545, "- N/A -   "
4.38, 163.711, 0.00740282, NaN, NaN, NaN, 0.0384545, "- N/A -   "
4.39, 164.065, 0.007422258, NaN, NaN, NaN, 0.0372337, "- N/A -   "
4.4, 164.419, 0.00743892, NaN, NaN, NaN, 0.0372337, "- N/A -   "
4.41, 164.773, 0.00745836, NaN, NaN, NaN, 0.03601294, "- N/A -   "
4.42, 165.2444, 0.007477793, NaN, NaN, NaN, 0.03601294, "- N/A -   "
4.43, 165.4803, 0.007494453, NaN, NaN, NaN, 0.0347922, "- N/A -   "
4.44, 165.834, 0.00751389, NaN, NaN, NaN, 0.0347922, "- N/A -   "
4.45, 166.188, 0.007530551, NaN, NaN, NaN, 0.0335714, "- N/A -   "
4.46, 166.424, 0.007547211, NaN, NaN, NaN, 0.0335714, "- N/A -   "
4.47, 166.778, 0.00756387, NaN, NaN, NaN, 0.0335714, "- N/A -   "
4.48, 167.014, 0.00757776, NaN, NaN, NaN, 0.0347922, "- N/A -   "
4.49, 167.485, 0.007597193, NaN, NaN, NaN, 0.0335714, "- N/A -   "
4.5, 167.7213, 0.00761663, NaN, NaN, NaN, 0.0335714, "- N/A -   "
4.51, 168.193, 0.00763329, NaN, NaN, NaN, 0.0323506, "- N/A -   "
4.52, 168.665, 0.007655505, NaN, NaN, NaN, 0.03112983, "- N/A -   "
4.53, 169.019, 0.00767494, NaN, NaN, NaN, 0.0299091, "- N/A -   "
4.54, 169.373, 0.0076916, NaN, NaN, NaN, 0.0286883, "- N/A -   "
4.55, 169.726, 0.007708263, NaN, NaN, NaN, 0.0286883, "- N/A -   "
4.56, 169.962, 0.007724923, NaN, NaN, NaN, 0.0286883, "- N/A -   "
4.57, 170.316, 0.00774158, NaN, NaN, NaN, 0.0286883, "- N/A -   "
4.58, 170.67, 0.007758245, NaN, NaN, NaN, 0.0286883, "- N/A -   "
4.59, 170.906, 0.00777213, NaN, NaN, NaN, 0.0299091, "- N/A -   "
4.6, 171.26, 0.007788789, NaN, NaN, NaN, 0.0299091, "- N/A -   "
4.61, 171.614, 0.00780823, NaN, NaN, NaN, 0.0299091, "- N/A -   "
4.62, 171.9674, 0.007824887, NaN, NaN, NaN, 0.0286883, "- N/A -   "
4.63, 172.321, 0.007841547, NaN, NaN, NaN, 0.0286883, "- N/A -   "
4.64, 172.6751, 0.007858207, NaN, NaN, NaN, 0.0286883, "- N/A -   "
4.65, 173.029, 0.007877645, NaN, NaN, NaN, 0.0286883, "- N/A -   "
4.66, 173.265, 0.00789431, NaN, NaN, NaN, 0.0274675, "- N/A -   "
4.67, 173.619, 0.007908189, NaN, NaN, NaN, 0.0286883, "- N/A -   "
4.68, 173.855, 0.007924849, NaN, NaN, NaN, 0.0286883, "- N/A -   "
4.69, 174.208, 0.007938733, NaN, NaN, NaN, 0.0299091, "- N/A -   "
4.7, 174.326, 0.00795262, NaN, NaN, NaN, 0.03112983, "- N/A -   "
4.71, 174.6802, 0.007969277, NaN, NaN, NaN, 0.0323506, "- N/A -   "
4.72, 175.034, 0.007983161, NaN, NaN, NaN, 0.0323506, "- N/A -   "
4.73, 175.27, 0.007997045, NaN, NaN, NaN, 0.0335714, "- N/A -   "
4.74, 175.624, 0.008013706, NaN, NaN, NaN, 0.0347922, "- N/A -   "
4.75, 175.978, 0.008027589, NaN, NaN, NaN, 0.0347922, "- N/A -   "
4.76, 176.214, 0.008047027, NaN, NaN, NaN, 0.0347922, "- N/A -   "
4.77, 176.567, 0.008060911, NaN, NaN, NaN, 0.0347922, "- N/A -   "
4.78, 176.803, 0.008072018, NaN, NaN, NaN, 0.0372337, "- N/A -   "
4.79, 176.9212, 0.008085901, NaN, NaN, NaN, 0.0384545, "- N/A -   "
4.8, 177.275, 0.008099785, NaN, NaN, NaN, 0.0396753, "- N/A -   "
4.81, 177.393, 0.008113669, NaN, NaN, NaN, 0.04089605, "- N/A -   "
4.82, 177.747, 0.008127553, NaN, NaN, NaN, 0.04211683, "- N/A -   "
4.83, 177.983, 0.008141437, NaN, NaN, NaN, 0.0433376, "- N/A -   "
4.84, 178.219, 0.008155321, NaN, NaN, NaN, 0.04577916, "- N/A -   "
4.85, 178.572, 0.008169204, NaN, NaN, NaN, 0.04577916, "- N/A -   "
4.86, 178.926, 0.008185865, NaN, NaN, NaN, 0.04577916, "- N/A -   "
4.87, 179.162, 0.008202525, NaN, NaN, NaN, 0.04577916, "- N/A -   "
4.88, 179.516, 0.008219185, NaN, NaN, NaN, 0.04577916, "- N/A -   "
4.89, 179.87, 0.008235846, NaN, NaN, NaN, 0.04577916, "- N/A -   "
4.9, 180.342, 0.008255283, NaN, NaN, NaN, 0.0445584, "- N/A -   "
4.91, 180.578, 0.008271944, NaN, NaN, NaN, 0.04577916, "- N/A -   "
4.92, 180.931, 0.008288605, NaN, NaN, NaN, 0.04577916, "- N/A -   "
4.93, 181.285, 0.008305265, NaN, NaN, NaN, 0.04577916, "- N/A -   "
4.94, 181.639, 0.008319149, NaN, NaN, NaN, 0.04577916, "- N/A -   "
4.95, 181.993, 0.008335809, NaN, NaN, NaN, 0.04577916, "- N/A -   "
4.96, 182.229, 0.008355247, NaN, NaN, NaN, 0.0445584, "- N/A -   "
4.97, 182.583, 0.008371907, NaN, NaN, NaN, 0.0445584, "- N/A -   "
4.98, 183.054, 0.008394121, NaN, NaN, NaN, 0.0433376, "- N/A -   "
4.99, 183.408, 0.008410782, NaN, NaN, NaN, 0.04211683, "- N/A -   "
5, 183.8801, 0.008430219, NaN, NaN, NaN, 0.04211683, "- N/A -   "
5.01, 184.116, 0.008444103, NaN, NaN, NaN, 0.04211683, "- N/A -   "
5.02, 184.3519, 0.008460763, NaN, NaN, NaN, 0.0433376, "- N/A -   "
5.03, 184.706, 0.008477423, NaN, NaN, NaN, 0.04211683, "- N/A -   "
5.04, 185.178, 0.008496861, NaN, NaN, NaN, 0.04211683, "- N/A -   "
5.05, 185.413, 0.008513521, NaN, NaN, NaN, 0.04089605, "- N/A -   "
5.06, 185.885, 0.008532959, NaN, NaN, NaN, 0.0396753, "- N/A -   "
5.07, 186.357, 0.008552396, NaN, NaN, NaN, 0.0384545, "- N/A -   "
5.08, 186.593, 0.008569056, NaN, NaN, NaN, 0.0384545, "- N/A -   "
5.09, 187.065, 0.008588494, NaN, NaN, NaN, 0.0372337, "- N/A -   "
5.1, 187.419, 0.008607931, NaN, NaN, NaN, 0.03601294, "- N/A -   "
5.11, 187.89, 0.008630145, NaN, NaN, NaN, 0.0335714, "- N/A -   "
5.12, 188.3621, 0.008652359, NaN, NaN, NaN, 0.0323506, "- N/A -   "
5.13, 188.716, 0.008671796, NaN, NaN, NaN, 0.03112983, "- N/A -   "
5.14, 189.0698, 0.008688457, NaN, NaN, NaN, 0.0299091, "- N/A -   "
5.15, 189.5416, 0.008705118, NaN, NaN, NaN, 0.0299091, "- N/A -   "
5.16, 189.777, 0.00872455, NaN, NaN, NaN, 0.0299091, "- N/A -   "
5.17, 190.013, 0.008741215, NaN, NaN, NaN, 0.0299091, "- N/A -   "
5.18, 190.367, 0.008757875, NaN, NaN, NaN, 0.0286883, "- N/A -   "
5.19, 190.721, 0.008774536, NaN, NaN, NaN, 0.0286883, "- N/A -   "
5.2, 191.075, 0.008791196, NaN, NaN, NaN, 0.0286883, "- N/A -   "
5.21, 191.429, 0.00880786, NaN, NaN, NaN, 0.0286883, "- N/A -   "
5.22, 191.7826, 0.008827294, NaN, NaN, NaN, 0.0286883, "- N/A -   "
5.23, 192.018, 0.008841177, NaN, NaN, NaN, 0.0286883, "- N/A -   "
5.24, 192.372, 0.008857838, NaN, NaN, NaN, 0.0286883, "- N/A -   "
5.25, 192.726, 0.008874499, NaN, NaN, NaN, 0.0286883, "- N/A -   "
5.26, 192.962, 0.00889116, NaN, NaN, NaN, 0.0286883, "- N/A -   "
5.27, 193.3159, 0.008905044, NaN, NaN, NaN, 0.0299091, "- N/A -   "
5.28, 193.5518, 0.008921703, NaN, NaN, NaN, 0.03112983, "- N/A -   "
5.29, 193.906, 0.008938364, NaN, NaN, NaN, 0.0299091, "- N/A -   "
5.3, 194.259, 0.008952248, NaN, NaN, NaN, 0.03112983, "- N/A -   "
5.31, 194.613, 0.008968908, NaN, NaN, NaN, 0.03112983, "- N/A -   "
5.32, 194.849, 0.00898557, NaN, NaN, NaN, 0.0323506, "- N/A -   "
5.33, 195.203, 0.008999453, NaN, NaN, NaN, 0.0323506, "- N/A -   "
5.34, 195.439, 0.009016113, NaN, NaN, NaN, 0.0323506, "- N/A -   "
5.35, 195.7928, 0.00903, NaN, NaN, NaN, 0.0335714, "- N/A -   "
5.36, 196.0287, 0.009046658, NaN, NaN, NaN, 0.0335714, "- N/A -   "
5.37, 196.383, 0.009063318, NaN, NaN, NaN, 0.0335714, "- N/A -   "
5.38, 196.736, 0.009079978, NaN, NaN, NaN, 0.0335714, "- N/A -   "
5.39, 196.972, 0.009093862, NaN, NaN, NaN, 0.0347922, "- N/A -   "
5.4, 197.326, 0.009110523, NaN, NaN, NaN, 0.0347922, "- N/A -   "
5.41, 197.68, 0.00912996, NaN, NaN, NaN, 0.0347922, "- N/A -   "
5.42, 198.034, 0.009143844, NaN, NaN, NaN, 0.0347922, "- N/A -   "
5.43, 198.27, 0.009160504, NaN, NaN, NaN, 0.03601294, "- N/A -   "
5.44, 198.624, 0.009174388, NaN, NaN, NaN, 0.03601294, "- N/A -   "
5.45, 198.977, 0.009191048, NaN, NaN, NaN, 0.03601294, "- N/A -   "
5.46, 199.213, 0.00920493, NaN, NaN, NaN, 0.0372337, "- N/A -   "
5.47, 199.449, 0.009221594, NaN, NaN, NaN, 0.0384545, "- N/A -   "
5.48, 199.685, 0.009235476, NaN, NaN, NaN, 0.0384545, "- N/A -   "
5.49, 200.039, 0.00924936, NaN, NaN, NaN, 0.0396753, "- N/A -   "
5.5, 200.393, 0.009263244, NaN, NaN, NaN, 0.04089605, "- N/A -   "
5.51, 200.629, 0.009279904, NaN, NaN, NaN, 0.04089605, "- N/A -   "
5.52, 200.9825, 0.009296565, NaN, NaN, NaN, 0.04089605, "- N/A -   "
5.53, 201.2184, 0.009313226, NaN, NaN, NaN, 0.04089605, "- N/A -   "
5.54, 201.572, 0.009329886, NaN, NaN, NaN, 0.04211683, "- N/A -   "
5.55, 201.808, 0.009340994, NaN, NaN, NaN, 0.0433376, "- N/A -   "
5.56, 202.162, 0.009357654, NaN, NaN, NaN, 0.0433376, "- N/A -   "
5.57, 202.516, 0.009374314, NaN, NaN, NaN, 0.0433376, "- N/A -   "
5.58, 202.9876, 0.009393752, NaN, NaN, NaN, 0.0433376, "- N/A -   "
5.59, 203.2235, 0.009407636, NaN, NaN, NaN, 0.0433376, "- N/A -   "
5.6, 203.577, 0.009424296, NaN, NaN, NaN, 0.0433376, "- N/A -   "
5.61, 203.813, 0.009438179, NaN, NaN, NaN, 0.0445584, "- N/A -   "
5.62, 204.167, 0.00945484, NaN, NaN, NaN, 0.04577916, "- N/A -   "
5.63, 204.403, 0.009468724, NaN, NaN, NaN, 0.04577916, "- N/A -   "
5.64, 204.7568, 0.009485384, NaN, NaN, NaN, 0.04577916, "- N/A -   "
5.65, 205.111, 0.009502044, NaN, NaN, NaN, 0.04577916, "- N/A -   "
5.66, 205.465, 0.00952148, NaN, NaN, NaN, 0.04577916, "- N/A -   "
5.67, 205.936, 0.00954092, NaN, NaN, NaN, 0.0445584, "- N/A -   "
5.68, 206.29, 0.00955758, NaN, NaN, NaN, 0.0433376, "- N/A -   "
5.69, 206.762, 0.00957979, NaN, NaN, NaN, 0.04089605, "- N/A -   "
5.7, 207.352, 0.009602008, NaN, NaN, NaN, 0.0384545, "- N/A -   "
5.71, 207.705, 0.009621446, NaN, NaN, NaN, 0.0372337, "- N/A -   "
5.72, 208.059, 0.009640883, NaN, NaN, NaN, 0.03601294, "- N/A -   "
5.73, 208.4132, 0.009657542, NaN, NaN, NaN, 0.03601294, "- N/A -   "
5.74, 208.767, 0.009679756, NaN, NaN, NaN, 0.0347922, "- N/A -   "
5.75, 209.239, 0.009696417, NaN, NaN, NaN, 0.0335714, "- N/A -   "
5.76, 209.593, 0.00971863, NaN, NaN, NaN, 0.0323506, "- N/A -   "
5.77, 210.064, 0.009735292, NaN, NaN, NaN, 0.03112983, "- N/A -   "
5.78, 210.3, 0.00975473, NaN, NaN, NaN, 0.0299091, "- N/A -   "
5.79, 210.772, 0.00977139, NaN, NaN, NaN, 0.0299091, "- N/A -   "
5.8, 211.126, 0.009790827, NaN, NaN, NaN, 0.0299091, "- N/A -   "
5.81, 211.244, 0.009807487, NaN, NaN, NaN, 0.0299091, "- N/A -   "
5.82, 211.716, 0.009821371, NaN, NaN, NaN, 0.0299091, "- N/A -   "
5.83, 211.9516, 0.009838033, NaN, NaN, NaN, 0.0299091, "- N/A -   "
5.84, 212.305, 0.009854692, NaN, NaN, NaN, 0.03112983, "- N/A -   "
5.85, 212.541, 0.009865799, NaN, NaN, NaN, 0.0323506, "- N/A -   "
5.86, 212.777, 0.00988246, NaN, NaN, NaN, 0.0335714, "- N/A -   "
5.87, 213.013, 0.009896343, NaN, NaN, NaN, 0.0335714, "- N/A -   "
5.88, 213.367, 0.009910227, NaN, NaN, NaN, 0.0347922, "- N/A -   "
5.89, 213.603, 0.009926888, NaN, NaN, NaN, 0.03601294, "- N/A -   "
5.9, 213.957, 0.00994077, NaN, NaN, NaN, 0.03601294, "- N/A -   "
5.91, 214.311, 0.009957432, NaN, NaN, NaN, 0.03601294, "- N/A -   "
5.92, 214.6644, 0.009974092, NaN, NaN, NaN, 0.03601294, "- N/A -   "
5.93, 214.9, 0.00999353, NaN, NaN, NaN, 0.03601294, "- N/A -   "
5.94, 215.49, 0.01001019, NaN, NaN, NaN, 0.03601294, "- N/A -   "
5.95, 215.726, 0.0100241, NaN, NaN, NaN, 0.03601294, "- N/A -   "
5.96, 216.08, 0.0100435, NaN, NaN, NaN, 0.03601294, "- N/A -   "
[...]
25.26, 1020.16, 0.0422011, NaN, NaN, NaN, 0.0384545, "- N/A -   "
25.31, 1022.06, 0.04227605, NaN, NaN, NaN, 0.0433376, "- N/A -   "
25.36, 1024.329, 0.0423594, NaN, NaN, NaN, 0.0433376, "- N/A -   "
25.41, 1026.59, 0.0424399, NaN, NaN, NaN, 0.0433376, "- N/A -   "
25.46, 1028.98, 0.04252318, NaN, NaN, NaN, 0.0433376, "- N/A -   "
25.51, 1031.25, 0.04261204, NaN, NaN, NaN, 0.04211683, "- N/A -   "
25.56, 1034.11, 0.04270922, NaN, NaN, NaN, 0.03601294, "- N/A -   "
25.61, 1036.85, 0.04280641, NaN, NaN, NaN, 0.0299091, "- N/A -   "
25.66, 1039.24, 0.0428953, NaN, NaN, NaN, 0.0262467, "- N/A -   "
25.71, 1041.382, 0.04297579, NaN, NaN, NaN, 0.0274675, "- N/A -   "
25.76, 1043.65, 0.04305354, NaN, NaN, NaN, 0.0299091, "- N/A -   "
25.81, 1045.79, 0.0431313, NaN, NaN, NaN, 0.0323506, "- N/A -   "
25.86, 1047.82, 0.043209, NaN, NaN, NaN, 0.03601294, "- N/A -   "
25.91, 1050.09, 0.0432923, NaN, NaN, NaN, 0.0347922, "- N/A -   "
25.96, 1052.35, 0.04337009, NaN, NaN, NaN, 0.0372337, "- N/A -   "
26.01, 1054.26, 0.0434423, NaN, NaN, NaN, 0.04211683, "- N/A -   "
26.06, 1056.29, 0.0435228, NaN, NaN, NaN, 0.0445584, "- N/A -   "
26.11, 1058.55, 0.0436061, NaN, NaN, NaN, 0.0433376, "- N/A -   "
26.16, 1061.42, 0.04369775, NaN, NaN, NaN, 0.0396753, "- N/A -   "
26.21, 1064.159, 0.04379771, NaN, NaN, NaN, 0.0335714, "- N/A -   "
26.26, 1066.54, 0.0438838, NaN, NaN, NaN, 0.0323506, "- N/A -   "
26.31, 1068.57, 0.04396154, NaN, NaN, NaN, 0.0347922, "- N/A -   "
26.36, 1070.6, 0.04403929, NaN, NaN, NaN, 0.0384545, "- N/A -   "
26.41, 1073.103, 0.0441254, NaN, NaN, NaN, 0.0372337, "- N/A -   "
26.46, 1075.488, 0.0442114, NaN, NaN, NaN, 0.0347922, "- N/A -   "
26.51, 1077.75, 0.0442975, NaN, NaN, NaN, 0.0335714, "- N/A -   "
26.56, 1080.02, 0.04437805, NaN, NaN, NaN, 0.0347922, "- N/A -   "
26.61, 1081.93, 0.04445302, NaN, NaN, NaN, 0.0396753, "- N/A -   "
26.66, 1084.07, 0.04453077, NaN, NaN, NaN, 0.04211683, "- N/A -   "
26.71, 1086.58, 0.0446169, NaN, NaN, NaN, 0.0396753, "- N/A -   "
26.76, 1088.84, 0.0447002, NaN, NaN, NaN, 0.0396753, "- N/A -   "
26.81, 1091.23, 0.0447835, NaN, NaN, NaN, 0.0396753, "- N/A -   "
26.86, 1093.61, 0.0448723, NaN, NaN, NaN, 0.0372337, "- N/A -   "
26.91, 1095.88, 0.0449556, NaN, NaN, NaN, 0.0372337, "- N/A -   "
26.96, 1098.27, 0.04504447, NaN, NaN, NaN, 0.03601294, "- N/A -   "
27.01, 1100.65, 0.04512777, NaN, NaN, NaN, 0.03601294, "- N/A -   "
27.06, 1103.15, 0.0452139, NaN, NaN, NaN, 0.0335714, "- N/A -   "
27.11, 1105.42, 0.0452999, NaN, NaN, NaN, 0.0323506, "- N/A -   "
27.16, 1107.57, 0.04538046, NaN, NaN, NaN, 0.0335714, "- N/A -   "
27.21, 1109.95, 0.04546376, NaN, NaN, NaN, 0.0335714, "- N/A -   "
27.26, 1112.456, 0.0455526, NaN, NaN, NaN, 0.03112983, "- N/A -   "
27.31, 1114.6, 0.0456304, NaN, NaN, NaN, 0.0335714, "- N/A -   "
27.36, 1116.39, 0.0456998, NaN, NaN, NaN, 0.04089605, "- N/A -   "
27.41, 1118.538, 0.0457775, NaN, NaN, NaN, 0.0433376, "- N/A -   "
27.46, 1120.68, 0.04585528, NaN, NaN, NaN, 0.0445584, "- N/A -   "
27.51, 1123.07, 0.0459386, NaN, NaN, NaN, 0.0445584, "- N/A -   "
27.56, 1125.45, 0.0460247, NaN, NaN, NaN, 0.0433376, "- N/A -   "
27.61, 1128.2, 0.04612185, NaN, NaN, NaN, 0.0372337, "- N/A -   "
27.66, 1130.7, 0.04621626, NaN, NaN, NaN, 0.0335714, "- N/A -   "
27.71, 1132.85, 0.0462912, NaN, NaN, NaN, 0.03601294, "- N/A -   "
27.76, 1135.114, 0.0463773, NaN, NaN, NaN, 0.03601294, "- N/A -   "
27.81, 1137.62, 0.0464662, NaN, NaN, NaN, 0.0335714, "- N/A -   "
27.86, 1140.12, 0.0465578, NaN, NaN, NaN, 0.0299091, "- N/A -   "
27.91, 1142.27, 0.04663555, NaN, NaN, NaN, 0.03112983, "- N/A -   "
27.96, 1144.42, 0.0467133, NaN, NaN, NaN, 0.0335714, "- N/A -   "
28.01, 1146.2, 0.0467827, NaN, NaN, NaN, 0.0396753, "- N/A -   "
28.06, 1148.23, 0.04685769, NaN, NaN, NaN, 0.0433376, "- N/A -   "
28.11, 1150.38, 0.0469327, NaN, NaN, NaN, 0.04699994, "- N/A -   "
28.16, 1152.64, 0.047016, NaN, NaN, NaN, 0.04699994, "- N/A -   "
28.21, 1155.27, 0.0471104, NaN, NaN, NaN, 0.04211683, "- N/A -   "
28.26, 1157.772, 0.04720478, NaN, NaN, NaN, 0.0384545, "- N/A -   "
28.31, 1160.51, 0.0472936, NaN, NaN, NaN, 0.0347922, "- N/A -   "
28.36, 1162.66, 0.04737972, NaN, NaN, NaN, 0.0335714, "- N/A -   "
28.41, 1165.17, 0.0474714, NaN, NaN, NaN, 0.03112983, "- N/A -   "
28.46, 1167.79, 0.0475602, NaN, NaN, NaN, 0.0274675, "- N/A -   "
28.51, 1170.05, 0.0476463, NaN, NaN, NaN, 0.0274675, "- N/A -   "
28.56, 1172.2, 0.047724, NaN, NaN, NaN, 0.0299091, "- N/A -   "
28.61, 1174.23, 0.04779623, NaN, NaN, NaN, 0.0347922, "- N/A -   "
28.66, 1176.14, 0.04786565, NaN, NaN, NaN, 0.0396753, "- N/A -   "
28.71, 1178.04, 0.0479378, NaN, NaN, NaN, 0.0445584, "- N/A -   "
28.76, 1180.43, 0.0480184, NaN, NaN, NaN, 0.04577916, "- N/A -   "
28.81, 1182.7, 0.0481017, NaN, NaN, NaN, 0.04699994, "- N/A -   "
28.86, 1185.08, 0.048185, NaN, NaN, NaN, 0.04577916, "- N/A -   "
28.91, 1187.585, 0.0482794, NaN, NaN, NaN, 0.04089605, "- N/A -   "
28.96, 1190.21, 0.0483738, NaN, NaN, NaN, 0.0372337, "- N/A -   "
29.01, 1192.95, 0.04847098, NaN, NaN, NaN, 0.0299091, "- N/A -   "
29.06, 1195.34, 0.04855706, NaN, NaN, NaN, 0.0286883, "- N/A -   "
29.11, 1197.24, 0.048632, NaN, NaN, NaN, 0.0323506, "- N/A -   "
29.16, 1199.63, 0.0487098, NaN, NaN, NaN, 0.0347922, "- N/A -   "
29.21, 1201.9, 0.0487931, NaN, NaN, NaN, 0.0347922, "- N/A -   "
29.26, 1204.16, 0.0488736, NaN, NaN, NaN, 0.03601294, "- N/A -   "
29.31, 1206.31, 0.0489541, NaN, NaN, NaN, 0.0372337, "- N/A -   "
29.36, 1208.57, 0.0490347, NaN, NaN, NaN, 0.0396753, "- N/A -   "
29.41, 1210.6, 0.0491096, NaN, NaN, NaN, 0.04211683, "- N/A -   "
29.46, 1212.87, 0.0491902, NaN, NaN, NaN, 0.0433376, "- N/A -   "
29.51, 1215.25, 0.04927624, NaN, NaN, NaN, 0.04211683, "- N/A -   "
29.56, 1217.87, 0.0493707, NaN, NaN, NaN, 0.0384545, "- N/A -   "
29.61, 1220.62, 0.0494678, NaN, NaN, NaN, 0.03112983, "- N/A -   "
29.66, 1223.122, 0.04955669, NaN, NaN, NaN, 0.0286883, "- N/A -   "
29.71, 1225.507, 0.04964277, NaN, NaN, NaN, 0.0286883, "- N/A -   "
29.76, 1227.415, 0.049715, NaN, NaN, NaN, 0.0335714, "- N/A -   "
29.81, 1229.56, 0.04979272, NaN, NaN, NaN, 0.0347922, "- N/A -   "
29.86, 1232.07, 0.04987602, NaN, NaN, NaN, 0.0347922, "- N/A -   "
29.91, 1234.57, 0.0499649, NaN, NaN, NaN, 0.0323506, "- N/A -   "
29.96, 1236.72, 0.0500454, NaN, NaN, NaN, 0.0335714, "- N/A -   "
30.01, 1238.86, 0.0501259, NaN, NaN, NaN, 0.03601294, "- N/A -   "
30.06, 1240.77, 0.0501981, NaN, NaN, NaN, 0.04089605, "- N/A -   "
30.11, 1242.92, 0.0502731, NaN, NaN, NaN, 0.0433376, "- N/A -   "
30.16, 1245.42, 0.0503592, NaN, NaN, NaN, 0.04211683, "- N/A -   "
30.21, 1247.81, 0.05044525, NaN, NaN, NaN, 0.04089605, "- N/A -   "
30.26, 1250.31, 0.05053411, NaN, NaN, NaN, 0.0396753, "- N/A -   "
30.31, 1252.58, 0.0506202, NaN, NaN, NaN, 0.0372337, "- N/A -   "
30.36, 1255.2, 0.0507063, NaN, NaN, NaN, 0.03601294, "- N/A -   "
30.41, 1257.47, 0.0507923, NaN, NaN, NaN, 0.0347922, "- N/A -   "
30.46, 1259.85, 0.0508784, NaN, NaN, NaN, 0.0335714, "- N/A -   "
30.51, 1262.12, 0.05095895, NaN, NaN, NaN, 0.0347922, "- N/A -   "
30.56, 1264.5, 0.05104503, NaN, NaN, NaN, 0.0335714, "- N/A -   "
30.61, 1266.89, 0.0511311, NaN, NaN, NaN, 0.0323506, "- N/A -   "
30.66, 1269.15, 0.05121719, NaN, NaN, NaN, 0.0323506, "- N/A -   "
30.71, 1271.54, 0.0512977, NaN, NaN, NaN, 0.0323506, "- N/A -   "
30.76, 1273.57, 0.0513755, NaN, NaN, NaN, 0.03601294, "- N/A -   "
30.81, 1275.59, 0.05145044, NaN, NaN, NaN, 0.0396753, "- N/A -   "
30.86, 1277.74, 0.0515282, NaN, NaN, NaN, 0.04211683, "- N/A -   "
30.91, 1279.89, 0.0516059, NaN, NaN, NaN, 0.0445584, "- N/A -   "
30.96, 1282.27, 0.051692, NaN, NaN, NaN, 0.0445584, "- N/A -   "
31.01, 1284.89, 0.0517836, NaN, NaN, NaN, 0.04089605, "- N/A -   "
31.06, 1287.4, 0.0518753, NaN, NaN, NaN, 0.0372337, "- N/A -   "
31.11, 1289.903, 0.0519641, NaN, NaN, NaN, 0.0335714, "- N/A -   "
31.16, 1292.29, 0.052053, NaN, NaN, NaN, 0.03112983, "- N/A -   "
31.21, 1294.554, 0.0521363, NaN, NaN, NaN, 0.03112983, "- N/A -   "
31.26, 1297.18, 0.05222515, NaN, NaN, NaN, 0.0286883, "- N/A -   "
31.31, 1299.44, 0.05231123, NaN, NaN, NaN, 0.0286883, "- N/A -   "
31.36, 1301.47, 0.0523862, NaN, NaN, NaN, 0.03112983, "- N/A -   "
31.41, 1303.38, 0.0524556, NaN, NaN, NaN, 0.0372337, "- N/A -   "
31.46, 1305.29, 0.05252504, NaN, NaN, NaN, 0.0433376, "- N/A -   "
31.51, 1307.19, 0.0526, NaN, NaN, NaN, 0.04699994, "- N/A -   "
31.56, 1309.46, 0.0526805, NaN, NaN, NaN, 0.0494415, "- N/A -   "
31.61, 1311.73, 0.0527666, NaN, NaN, NaN, 0.0482207, "- N/A -   "
31.66, 1314.71, 0.05286936, NaN, NaN, NaN, 0.0396753, "- N/A -   "
31.71, 1317.331, 0.05296099, NaN, NaN, NaN, 0.0347922, "- N/A -   "
31.76, 1319.6, 0.0530471, NaN, NaN, NaN, 0.0335714, "- N/A -   "
31.81, 1322.1, 0.0531387, NaN, NaN, NaN, 0.03112983, "- N/A -   "
31.86, 1324.61, 0.053222, NaN, NaN, NaN, 0.0299091, "- N/A -   "
31.91, 1326.752, 0.0533053, NaN, NaN, NaN, 0.03112983, "- N/A -   "
31.96, 1329.02, 0.0533886, NaN, NaN, NaN, 0.0299091, "- N/A -   "
32.01, 1331.28, 0.0534664, NaN, NaN, NaN, 0.0323506, "- N/A -   "
32.06, 1332.953, 0.0535358, NaN, NaN, NaN, 0.0384545, "- N/A -   "
32.11, 1334.98, 0.053608, NaN, NaN, NaN, 0.0433376, "- N/A -   "
32.16, 1337.13, 0.0536885, NaN, NaN, NaN, 0.0445584, "- N/A -   "
32.21, 1339.63, 0.0537774, NaN, NaN, NaN, 0.04211683, "- N/A -   "
32.26, 1342.02, 0.0538634, NaN, NaN, NaN, 0.04211683, "- N/A -   "
32.31, 1344.282, 0.0539467, NaN, NaN, NaN, 0.04089605, "- N/A -   "
32.36, 1346.79, 0.0540384, NaN, NaN, NaN, 0.0384545, "- N/A -   "
32.41, 1349.65, 0.0541383, NaN, NaN, NaN, 0.03112983, "- N/A -   "
32.46, 1352.03, 0.05422441, NaN, NaN, NaN, 0.0286883, "- N/A -   "
32.51, 1354.3, 0.0543077, NaN, NaN, NaN, 0.0286883, "- N/A -   "
32.56, 1356.68, 0.05439102, NaN, NaN, NaN, 0.0286883, "- N/A -   "
32.61, 1358.71, 0.05446599, NaN, NaN, NaN, 0.0323506, "- N/A -   "
32.66, 1360.98, 0.0545465, NaN, NaN, NaN, 0.0335714, "- N/A -   "
32.71, 1363, 0.0546215, NaN, NaN, NaN, 0.0372337, "- N/A -   "
32.76, 1365.15, 0.054702, NaN, NaN, NaN, 0.0384545, "- N/A -   "
32.81, 1367.18, 0.05477976, NaN, NaN, NaN, 0.04089605, "- N/A -   "
32.86, 1369.32, 0.0548547, NaN, NaN, NaN, 0.04577916, "- N/A -   "
32.91, 1371.47, 0.0549297, NaN, NaN, NaN, 0.0482207, "- N/A -   "
32.96, 1373.98, 0.0550213, NaN, NaN, NaN, 0.04577916, "- N/A -   "
33.01, 1376.84, 0.0551269, NaN, NaN, NaN, 0.03601294, "- N/A -   "
33.06, 1379.46, 0.05521849, NaN, NaN, NaN, 0.03112983, "- N/A -   "
33.11, 1381.727, 0.0553018, NaN, NaN, NaN, 0.03112983, "- N/A -   "
33.16, 1383.87, 0.0553823, NaN, NaN, NaN, 0.0335714, "- N/A -   "
33.21, 1385.9, 0.05545729, NaN, NaN, NaN, 0.03601294, "- N/A -   "
33.26, 1388.05, 0.05553782, NaN, NaN, NaN, 0.0384545, "- N/A -   "
33.31, 1390.671, 0.0556322, NaN, NaN, NaN, 0.0335714, "- N/A -   "
33.36, 1393.18, 0.0557183, NaN, NaN, NaN, 0.03112983, "- N/A -   "
33.41, 1395.2, 0.0557961, NaN, NaN, NaN, 0.0335714, "- N/A -   "
33.46, 1397.11, 0.05586825, NaN, NaN, NaN, 0.0396753, "- N/A -   "
33.51, 1399.26, 0.055946, NaN, NaN, NaN, 0.04211683, "- N/A -   "
33.56, 1401.76, 0.05603208, NaN, NaN, NaN, 0.0396753, "- N/A -   "
33.61, 1404.03, 0.05611538, NaN, NaN, NaN, 0.0396753, "- N/A -   "
33.66, 1406.41, 0.0562042, NaN, NaN, NaN, 0.0384545, "- N/A -   "
33.71, 1408.678, 0.05628754, NaN, NaN, NaN, 0.0372337, "- N/A -   "
33.76, 1411.06, 0.0563736, NaN, NaN, NaN, 0.0372337, "- N/A -   "
33.81, 1413.45, 0.0564597, NaN, NaN, NaN, 0.0347922, "- N/A -   "
33.86, 1415.95, 0.0565513, NaN, NaN, NaN, 0.0323506, "- N/A -   "
33.91, 1418.34, 0.05663741, NaN, NaN, NaN, 0.03112983, "- N/A -   "
33.96, 1420.484, 0.05671238, NaN, NaN, NaN, 0.0335714, "- N/A -   "
34.01, 1422.75, 0.05679846, NaN, NaN, NaN, 0.0323506, "- N/A -   "
34.06, 1424.9, 0.056879, NaN, NaN, NaN, 0.0335714, "- N/A -   "
34.11, 1427.4, 0.0569678, NaN, NaN, NaN, 0.03112983, "- N/A -   "
34.16, 1429.31, 0.05704004, NaN, NaN, NaN, 0.03601294, "- N/A -   "
34.21, 1431.46, 0.05711779, NaN, NaN, NaN, 0.0396753, "- N/A -   "
34.26, 1433.36, 0.05719, NaN, NaN, NaN, 0.0433376, "- N/A -   "
34.31, 1435.39, 0.0572677, NaN, NaN, NaN, 0.04699994, "- N/A -   "
34.36, 1437.78, 0.057351, NaN, NaN, NaN, 0.04577916, "- N/A -   "
34.41, 1440.28, 0.0574427, NaN, NaN, NaN, 0.0433376, "- N/A -   "
34.46, 1443.26, 0.05754541, NaN, NaN, NaN, 0.0347922, "- N/A -   "
34.51, 1445.65, 0.05763149, NaN, NaN, NaN, 0.0323506, "- N/A -   "
34.56, 1447.79, 0.05771479, NaN, NaN, NaN, 0.0323506, "- N/A -   "
34.61, 1450.297, 0.05779809, NaN, NaN, NaN, 0.0323506, "- N/A -   "
34.66, 1452.682, 0.0578869, NaN, NaN, NaN, 0.0299091, "- N/A -   "
34.71, 1454.95, 0.0579703, NaN, NaN, NaN, 0.0299091, "- N/A -   "
34.76, 1457.21, 0.0580508, NaN, NaN, NaN, 0.03112983, "- N/A -   "
34.81, 1459.12, 0.05812853, NaN, NaN, NaN, 0.0335714, "- N/A -   "
34.86, 1460.91, 0.0581952, NaN, NaN, NaN, 0.04211683, "- N/A -   "
34.91, 1462.82, 0.0582674, NaN, NaN, NaN, 0.04699994, "- N/A -   "
34.96, 1465.08, 0.0583507, NaN, NaN, NaN, 0.04699994, "- N/A -   "
35.01, 1467.71, 0.0584423, NaN, NaN, NaN, 0.0433376, "- N/A -   "
35.06, 1470.33, 0.05853671, NaN, NaN, NaN, 0.0384545, "- N/A -   "
35.11, 1472.84, 0.0586283, NaN, NaN, NaN, 0.0347922, "- N/A -   "
35.16, 1475.22, 0.0587116, NaN, NaN, NaN, 0.0335714, "- N/A -   "
35.21, 1477.61, 0.05879772, NaN, NaN, NaN, 0.0323506, "- N/A -   "
35.26, 1480.11, 0.05888658, NaN, NaN, NaN, 0.0299091, "- N/A -   "
35.31, 1482.495, 0.0589727, NaN, NaN, NaN, 0.0299091, "- N/A -   "
35.36, 1484.76, 0.05905596, NaN, NaN, NaN, 0.0299091, "- N/A -   "
35.41, 1486.91, 0.0591365, NaN, NaN, NaN, 0.03112983, "- N/A -   "
35.46, 1488.82, 0.05921146, NaN, NaN, NaN, 0.03601294, "- N/A -   "
35.51, 1490.72, 0.05928088, NaN, NaN, NaN, 0.04089605, "- N/A -   "
35.56, 1492.75, 0.05935585, NaN, NaN, NaN, 0.0445584, "- N/A -   "
35.61, 1495.14, 0.0594392, NaN, NaN, NaN, 0.0445584, "- N/A -   "
35.66, 1497.04, 0.0595141, NaN, NaN, NaN, 0.0482207, "- N/A -   "
35.71, 1499.31, 0.0596002, NaN, NaN, NaN, 0.0482207, "- N/A -   "
35.76, 1502.05, 0.0596946, NaN, NaN, NaN, 0.04211683, "- N/A -   "
35.81, 1505.03, 0.0597974, NaN, NaN, NaN, 0.0335714, "- N/A -   "
35.86, 1507.78, 0.05989454, NaN, NaN, NaN, 0.0274675, "- N/A -   "
35.91, 1509.8, 0.0599778, NaN, NaN, NaN, 0.0286883, "- N/A -   "
35.96, 1511.831, 0.0600528, NaN, NaN, NaN, 0.03112983, "- N/A -   "
36.01, 1513.86, 0.0601278, NaN, NaN, NaN, 0.0347922, "- N/A -   "
36.06, 1516, 0.0602055, NaN, NaN, NaN, 0.0384545, "- N/A -   "
36.11, 1518.509, 0.0602916, NaN, NaN, NaN, 0.03601294, "- N/A -   "
36.16, 1520.89, 0.0603777, NaN, NaN, NaN, 0.0347922, "- N/A -   "
36.21, 1522.8, 0.0604527, NaN, NaN, NaN, 0.0396753, "- N/A -   "
36.26, 1524.71, 0.0605249, NaN, NaN, NaN, 0.0445584, "- N/A -   "
36.31, 1526.86, 0.0606026, NaN, NaN, NaN, 0.04577916, "- N/A -   "
36.36, 1529.36, 0.06069147, NaN, NaN, NaN, 0.0433376, "- N/A -   "
36.41, 1531.98, 0.0607887, NaN, NaN, NaN, 0.0372337, "- N/A -   "
36.46, 1534.73, 0.0608858, NaN, NaN, NaN, 0.03112983, "- N/A -   "
36.51, 1536.87, 0.0609691, NaN, NaN, NaN, 0.03112983, "- N/A -   "
36.56, 1539.02, 0.0610469, NaN, NaN, NaN, 0.0347922, "- N/A -   "
36.61, 1540.93, 0.0611219, NaN, NaN, NaN, 0.0372337, "- N/A -   "
36.66, 1543.31, 0.0612079, NaN, NaN, NaN, 0.03601294, "- N/A -   "
36.71, 1545.82, 0.0612996, NaN, NaN, NaN, 0.0335714, "- N/A -   "
36.76, 1548.2, 0.06138288, NaN, NaN, NaN, 0.0323506, "- N/A -   "
36.81, 1550.35, 0.0614634, NaN, NaN, NaN, 0.0347922, "- N/A -   "
36.86, 1552.38, 0.0615384, NaN, NaN, NaN, 0.0372337, "- N/A -   "
36.91, 1554.4, 0.06161335, NaN, NaN, NaN, 0.04211683, "- N/A -   "
36.96, 1556.55, 0.0616967, NaN, NaN, NaN, 0.04211683, "- N/A -   "
37.01, 1558.697, 0.0617772, NaN, NaN, NaN, 0.04211683, "- N/A -   "
37.06, 1560.96, 0.06186326, NaN, NaN, NaN, 0.04211683, "- N/A -   "
37.11, 1563.59, 0.06194934, NaN, NaN, NaN, 0.0396753, "- N/A -   "
37.16, 1565.852, 0.0620382, NaN, NaN, NaN, 0.0372337, "- N/A -   "
37.21, 1568.36, 0.06212427, NaN, NaN, NaN, 0.03601294, "- N/A -   "
37.26, 1570.62, 0.0622131, NaN, NaN, NaN, 0.0347922, "- N/A -   "
37.31, 1573.01, 0.0622992, NaN, NaN, NaN, 0.0323506, "- N/A -   "
37.36, 1575.273, 0.0623853, NaN, NaN, NaN, 0.0323506, "- N/A -   "
37.41, 1577.42, 0.062463, NaN, NaN, NaN, 0.0335714, "- N/A -   "
37.46, 1579.57, 0.0625436, NaN, NaN, NaN, 0.0347922, "- N/A -   "
37.51, 1581.83, 0.06263242, NaN, NaN, NaN, 0.0323506, "- N/A -   "
37.56, 1584.1, 0.0627129, NaN, NaN, NaN, 0.0335714, "- N/A -   "
37.61, 1586.01, 0.06278514, NaN, NaN, NaN, 0.0384545, "- N/A -   "
37.66, 1588.033, 0.06286289, NaN, NaN, NaN, 0.04211683, "- N/A -   "
37.71, 1590.06, 0.0629406, NaN, NaN, NaN, 0.0445584, "- N/A -   "
37.76, 1592.56, 0.06302672, NaN, NaN, NaN, 0.04211683, "- N/A -   "
37.81, 1595.19, 0.0631183, NaN, NaN, NaN, 0.0384545, "- N/A -   "
37.86, 1597.57, 0.06320998, NaN, NaN, NaN, 0.03601294, "- N/A -   "
37.91, 1599.96, 0.06329884, NaN, NaN, NaN, 0.0335714, "- N/A -   "
37.96, 1602.22, 0.06338214, NaN, NaN, NaN, 0.0323506, "- N/A -   "
38.01, 1604.25, 0.06345989, NaN, NaN, NaN, 0.0347922, "- N/A -   "
38.06, 1606.76, 0.06354874, NaN, NaN, NaN, 0.0323506, "- N/A -   "
38.11, 1609.26, 0.0636376, NaN, NaN, NaN, 0.0299091, "- N/A -   "
38.16, 1611.53, 0.0637209, NaN, NaN, NaN, 0.03112983, "- N/A -   "
38.21, 1613.67, 0.06379865, NaN, NaN, NaN, 0.0323506, "- N/A -   "
38.26, 1615.46, 0.06387085, NaN, NaN, NaN, 0.0384545, "- N/A -   "
38.31, 1617.25, 0.06393749, NaN, NaN, NaN, 0.0445584, "- N/A -   "
38.36, 1619.28, 0.06401524, NaN, NaN, NaN, 0.0482207, "- N/A -   "
38.41, 1621.662, 0.0641041, NaN, NaN, NaN, 0.04577916, "- N/A -   "
38.46, 1624.17, 0.06419573, NaN, NaN, NaN, 0.04211683, "- N/A -   "
38.51, 1626.67, 0.06428736, NaN, NaN, NaN, 0.0372337, "- N/A -   "
38.56, 1629.06, 0.06437621, NaN, NaN, NaN, 0.0347922, "- N/A -   "
38.61, 1631.2, 0.0644595, NaN, NaN, NaN, 0.03601294, "- N/A -   "
38.66, 1633.83, 0.06455393, NaN, NaN, NaN, 0.03112983, "- N/A -   "
38.71, 1636.33, 0.06464556, NaN, NaN, NaN, 0.0274675, "- N/A -   "
38.76, 1638.72, 0.06472886, NaN, NaN, NaN, 0.0262467, "- N/A -   "
38.81, 1640.74, 0.06480661, NaN, NaN, NaN, 0.0299091, "- N/A -   "
38.86, 1642.53, 0.0648733, NaN, NaN, NaN, 0.03601294, "- N/A -   "
38.91, 1644.32, 0.06494545, NaN, NaN, NaN, 0.04089605, "- N/A -   "
38.96, 1646.228, 0.06501765, NaN, NaN, NaN, 0.04577916, "- N/A -   "
39.01, 1648.73, 0.06510928, NaN, NaN, NaN, 0.04211683, "- N/A -   "
39.06, 1650.88, 0.0651898, NaN, NaN, NaN, 0.0433376, "- N/A -   "
39.11, 1653.26, 0.0652759, NaN, NaN, NaN, 0.0433376, "- N/A -   "
39.16, 1655.89, 0.06536751, NaN, NaN, NaN, 0.0384545, "- N/A -   "
39.21, 1658.39, 0.0654647, NaN, NaN, NaN, 0.0323506, "- N/A -   "
39.26, 1661.13, 0.06555911, NaN, NaN, NaN, 0.0274675, "- N/A -   "
39.31, 1663.16, 0.06563964, NaN, NaN, NaN, 0.0286883, "- N/A -   "
39.36, 1665.43, 0.0657257, NaN, NaN, NaN, 0.0286883, "- N/A -   "
39.41, 1667.57, 0.06580069, NaN, NaN, NaN, 0.03112983, "- N/A -   "
39.46, 1669.72, 0.06587844, NaN, NaN, NaN, 0.0335714, "- N/A -   "
39.51, 1671.75, 0.06595619, NaN, NaN, NaN, 0.03601294, "- N/A -   "
39.56, 1674.01, 0.0660423, NaN, NaN, NaN, 0.0347922, "- N/A -   "
39.61, 1676.16, 0.06612279, NaN, NaN, NaN, 0.03601294, "- N/A -   "
39.66, 1677.949, 0.06619221, NaN, NaN, NaN, 0.0433376, "- N/A -   "
39.71, 1679.86, 0.0662672, NaN, NaN, NaN, 0.04577916, "- N/A -   "
39.76, 1682.24, 0.06635049, NaN, NaN, NaN, 0.04699994, "- N/A -   "
39.81, 1684.98, 0.0664477, NaN, NaN, NaN, 0.04089605, "- N/A -   "
39.86, 1687.61, 0.06654208, NaN, NaN, NaN, 0.03601294, "- N/A -   "
39.91, 1690.23, 0.0666337, NaN, NaN, NaN, 0.0323506, "- N/A -   "
39.96, 1692.38, 0.06671979, NaN, NaN, NaN, 0.0323506, "- N/A -   "
40.01, 1694.64, 0.06679755, NaN, NaN, NaN, 0.0335714, "- N/A -   "
40.06, 1696.67, 0.0668781, NaN, NaN, NaN, 0.0347922, "- N/A -   "
40.11, 1699.06, 0.06696692, NaN, NaN, NaN, 0.0323506, "- N/A -   "
40.16, 1701.44, 0.067053, NaN, NaN, NaN, 0.03112983, "- N/A -   "
40.163, 1701.56, 0.0670586, NaN, NaN, NaN, 0.03112983, "- N/A -   "