File: 2_Tensile_Data/Hamel_ForceTest_Bolt8_Test7.csv
Time, Load (lb), Position (in), AxialStrain (in), TransverseStrain (in), Auxiliary (), Control Out (V), Stress (psi)
0.0, 16.86649, 0.0, NaN, NaN, NaN, -0.006714277, "- N/A -   "
0.01, 16.9844, 2.776752E-6, NaN, NaN, NaN, -6.103888E-4, "- N/A -   "
0.02, 16.86649, 2.776752E-6, NaN, NaN, NaN, 0.006714277, "- N/A -   "
0.03, 16.9844, 2.776752E-6, NaN, NaN, NaN, 0.0177013, "- N/A -   "
0.04, 16.86649, 5.553504E-6, NaN, NaN, NaN, 0.03601294, "- N/A -   "
0.05, 16.9844, 1.38838e-05, NaN, NaN, NaN, 0.05188305, "- N/A -   "
0.06, 17.2203, 2.77675e-05, NaN, NaN, NaN, 0.0653116, "- N/A -   "
0.07, 17.5742, 4.720478E-5, NaN, NaN, NaN, 0.07751938, "- N/A -   "
0.08, 17.928, 6.6642e-05, NaN, NaN, NaN, 0.0872856, "- N/A -   "
0.09, 18.2819, 9.440956E-5, NaN, NaN, NaN, 0.095831, "- N/A -   "
0.1, 18.7536, 0.000124954, NaN, NaN, NaN, 0.101935, "- N/A -   "
0.11, 19.3434, 0.000152721, NaN, NaN, NaN, 0.095831, "- N/A -   "
0.12, 19.6972, 0.000183266, NaN, NaN, NaN, 0.09094793, "- N/A -   "
0.13, 20.05107, 0.000208256, NaN, NaN, NaN, 0.0872856, "- N/A -   "
0.14, 20.4049, 2.304704E-4, NaN, NaN, NaN, 0.084844, "- N/A -   "
0.15, 20.7588, 2.526844E-4, NaN, NaN, NaN, 0.08118171, "- N/A -   "
0.16, 21.1126, 0.000274898, NaN, NaN, NaN, 0.07874016, "- N/A -   "
0.17, 21.3485, 0.000297112, NaN, NaN, NaN, 0.0762986, "- N/A -   "
0.18, 21.5844, 0.000319326, NaN, NaN, NaN, 0.07385705, "- N/A -   "
0.19, 22.0562, 0.00034154, NaN, NaN, NaN, 0.07263627, "- N/A -   "
0.2, 22.41, 0.000360978, NaN, NaN, NaN, 0.0701947, "- N/A -   "
0.21, 22.6459, 3.80415E-4, NaN, NaN, NaN, 0.0689739, "- N/A -   "
0.22, 22.88181, 0.000402629, NaN, NaN, NaN, 0.06775316, "- N/A -   "
0.23, 23.2357, 0.000422066, NaN, NaN, NaN, 0.06653238, "- N/A -   "
0.24, 23.5895, 4.442803E-4, NaN, NaN, NaN, 0.06287005, "- N/A -   "
0.25, 23.82539, 4.664943E-4, NaN, NaN, NaN, 0.0604285, "- N/A -   "
0.26, 24.1792, 0.000485932, NaN, NaN, NaN, 0.0592077, "- N/A -   "
0.27, 24.4151, 5.081456E-4, NaN, NaN, NaN, 0.0579869, "- N/A -   "
0.28, 24.65102, 0.000527583, NaN, NaN, NaN, 0.0555454, "- N/A -   "
0.29, 25.0049, 5.470201E-4, NaN, NaN, NaN, 0.0543246, "- N/A -   "
0.3, 25.2408, 5.720109E-4, NaN, NaN, NaN, 0.05188305, "- N/A -   "
0.31, 25.5946, 0.000591448, NaN, NaN, NaN, 0.0494415, "- N/A -   "
0.32, 25.8305, 6.108854E-4, NaN, NaN, NaN, 0.0482207, "- N/A -   "
0.33, 26.0664, 6.330994E-4, NaN, NaN, NaN, 0.04699994, "- N/A -   "
0.34, 26.4202, 6.525367E-4, NaN, NaN, NaN, 0.0445584, "- N/A -   "
0.35, 26.6561, 6.719739E-4, NaN, NaN, NaN, 0.0433376, "- N/A -   "
0.36, 26.892, 0.000694188, NaN, NaN, NaN, 0.04211683, "- N/A -   "
0.37, 27.1279, 7.136252E-4, NaN, NaN, NaN, 0.04089605, "- N/A -   "
0.38, 27.3638, 7.302857E-4, NaN, NaN, NaN, 0.0396753, "- N/A -   "
0.39, 27.5997, 7.49723E-4, NaN, NaN, NaN, 0.0396753, "- N/A -   "
0.4, 27.95355, 7.663835E-4, NaN, NaN, NaN, 0.0384545, "- N/A -   "
0.41, 28.0715, 0.000783044, NaN, NaN, NaN, 0.0384545, "- N/A -   "
0.42, 28.3074, 7.997045E-4, NaN, NaN, NaN, 0.0384545, "- N/A -   "
0.43, 28.54329, 8.191418E-4, NaN, NaN, NaN, 0.0384545, "- N/A -   "
0.44, 28.89713, 8.358023E-4, NaN, NaN, NaN, 0.0372337, "- N/A -   "
0.45, 29.0151, 8.552396E-4, NaN, NaN, NaN, 0.03601294, "- N/A -   "
0.46, 29.133, 0.0008719, NaN, NaN, NaN, 0.03601294, "- N/A -   "
0.47, 29.4869, 8.885606E-4, NaN, NaN, NaN, 0.03601294, "- N/A -   "
0.48, 29.4869, 9.052211E-4, NaN, NaN, NaN, 0.0372337, "- N/A -   "
0.49, 29.84071, 0.000919105, NaN, NaN, NaN, 0.0372337, "- N/A -   "
0.5, 30.0766, 9.385421E-4, NaN, NaN, NaN, 0.0372337, "- N/A -   "
0.51, 30.3125, 9.552026E-4, NaN, NaN, NaN, 0.03601294, "- N/A -   "
0.52, 30.5484, 9.746399E-4, NaN, NaN, NaN, 0.0347922, "- N/A -   "
0.53, 30.78429, 9.940772E-4, NaN, NaN, NaN, 0.0335714, "- N/A -   "
0.54, 31.0202, 0.00101351, NaN, NaN, NaN, 0.0323506, "- N/A -   "
0.55, 31.1381, 0.00103295, NaN, NaN, NaN, 0.03112983, "- N/A -   "
0.56, 31.492, 0.00104961, NaN, NaN, NaN, 0.03112983, "- N/A -   "
0.57, 31.6099, 0.00106905, NaN, NaN, NaN, 0.0299091, "- N/A -   "
0.58, 31.8458, 0.00108571, NaN, NaN, NaN, 0.0299091, "- N/A -   "
0.59, 31.9638, 0.00110237, NaN, NaN, NaN, 0.0299091, "- N/A -   "
0.6, 32.3176, 0.001119031, NaN, NaN, NaN, 0.03112983, "- N/A -   "
0.61, 32.4356, 0.00113569, NaN, NaN, NaN, 0.0299091, "- N/A -   "
0.62, 32.67145, 0.001152352, NaN, NaN, NaN, 0.03112983, "- N/A -   "
0.63, 32.9073, 0.00116624, NaN, NaN, NaN, 0.03112983, "- N/A -   "
0.64, 33.02529, 0.0011829, NaN, NaN, NaN, 0.03112983, "- N/A -   "
0.65, 33.1432, 0.00119956, NaN, NaN, NaN, 0.03112983, "- N/A -   "
0.66, 33.49708, 0.00121622, NaN, NaN, NaN, 0.0323506, "- N/A -   "
0.67, 33.61503, 0.0012301, NaN, NaN, NaN, 0.0323506, "- N/A -   "
0.68, 33.73298, 0.00124398, NaN, NaN, NaN, 0.0335714, "- N/A -   "
0.69, 33.9689, 0.00126065, NaN, NaN, NaN, 0.0335714, "- N/A -   "
0.7, 34.08682, 0.001274529, NaN, NaN, NaN, 0.0347922, "- N/A -   "
0.71, 34.3227, 0.00128841, NaN, NaN, NaN, 0.03601294, "- N/A -   "
0.72, 34.4407, 0.0013023, NaN, NaN, NaN, 0.0384545, "- N/A -   "
0.73, 34.55861, 0.00131618, NaN, NaN, NaN, 0.0384545, "- N/A -   "
0.74, 34.7945, 0.00133006, NaN, NaN, NaN, 0.04089605, "- N/A -   "
0.75, 34.9125, 0.00134395, NaN, NaN, NaN, 0.04089605, "- N/A -   "
0.76, 35.1483, 0.00136061, NaN, NaN, NaN, 0.04089605, "- N/A -   "
0.77, 35.2663, 0.00137449, NaN, NaN, NaN, 0.04211683, "- N/A -   "
0.78, 35.50219, 0.00138838, NaN, NaN, NaN, 0.0433376, "- N/A -   "
0.79, 35.6201, 0.00140226, NaN, NaN, NaN, 0.0445584, "- N/A -   "
0.8, 35.85603, 0.00141892, NaN, NaN, NaN, 0.0445584, "- N/A -   "
0.81, 36.0919, 0.00143558, NaN, NaN, NaN, 0.04577916, "- N/A -   "
0.82, 36.2099, 0.00144946, NaN, NaN, NaN, 0.04577916, "- N/A -   "
0.83, 36.44577, 0.00146612, NaN, NaN, NaN, 0.04699994, "- N/A -   "
0.84, 36.6817, 0.00148001, NaN, NaN, NaN, 0.04699994, "- N/A -   "
0.85, 36.6817, 0.00149667, NaN, NaN, NaN, 0.04699994, "- N/A -   "
0.86, 37.0355, 0.00151333, NaN, NaN, NaN, 0.04699994, "- N/A -   "
0.87, 37.2714, 0.00152721, NaN, NaN, NaN, 0.0482207, "- N/A -   "
0.88, 37.3893, 0.00154665, NaN, NaN, NaN, 0.04699994, "- N/A -   "
0.89, 37.6252, 0.00156609, NaN, NaN, NaN, 0.04577916, "- N/A -   "
0.9, 37.8611, 0.00158553, NaN, NaN, NaN, 0.0445584, "- N/A -   "
0.91, 37.9791, 0.00160496, NaN, NaN, NaN, 0.0433376, "- N/A -   "
0.92, 38.215, 0.0016244, NaN, NaN, NaN, 0.04211683, "- N/A -   "
0.93, 38.4509, 0.00164384, NaN, NaN, NaN, 0.04089605, "- N/A -   "
0.94, 38.68677, 0.00166327, NaN, NaN, NaN, 0.0396753, "- N/A -   "
0.95, 38.9227, 0.00167993, NaN, NaN, NaN, 0.0396753, "- N/A -   "
0.96, 39.15856, 0.00169937, NaN, NaN, NaN, 0.0396753, "- N/A -   "
0.97, 39.3945, 0.00171603, NaN, NaN, NaN, 0.0384545, "- N/A -   "
0.98, 39.5124, 0.00173547, NaN, NaN, NaN, 0.0384545, "- N/A -   "
0.99, 39.7483, 0.00175213, NaN, NaN, NaN, 0.0372337, "- N/A -   "
1, 39.98419, 0.00177157, NaN, NaN, NaN, 0.0372337, "- N/A -   "
1.01, 40.22009, 0.00178823, NaN, NaN, NaN, 0.03601294, "- N/A -   "
1.02, 40.33803, 0.00180767, NaN, NaN, NaN, 0.0347922, "- N/A -   "
1.03, 40.69188, 0.0018271, NaN, NaN, NaN, 0.0335714, "- N/A -   "
1.04, 40.9278, 0.00184654, NaN, NaN, NaN, 0.0335714, "- N/A -   "
1.05, 41.04572, 0.00186042, NaN, NaN, NaN, 0.0335714, "- N/A -   "
1.06, 41.2816, 0.001879861, NaN, NaN, NaN, 0.0335714, "- N/A -   "
1.07, 41.39956, 0.00189374, NaN, NaN, NaN, 0.0335714, "- N/A -   "
1.08, 41.6355, 0.001913182, NaN, NaN, NaN, 0.0323506, "- N/A -   "
1.09, 41.8714, 0.00193262, NaN, NaN, NaN, 0.03112983, "- N/A -   "
1.1, 42.2252, 0.00195206, NaN, NaN, NaN, 0.03112983, "- N/A -   "
1.11, 42.3431, 0.001968717, NaN, NaN, NaN, 0.0299091, "- N/A -   "
1.12, 42.4611, 0.00198815, NaN, NaN, NaN, 0.0299091, "- N/A -   "
1.13, 42.8149, 0.00200481, NaN, NaN, NaN, 0.0286883, "- N/A -   "
1.14, 43.0508, 0.00202148, NaN, NaN, NaN, 0.0286883, "- N/A -   "
1.15, 43.1688, 0.00204091, NaN, NaN, NaN, 0.0274675, "- N/A -   "
1.16, 43.40467, 0.00206035, NaN, NaN, NaN, 0.0274675, "- N/A -   "
1.17, 43.6406, 0.00207423, NaN, NaN, NaN, 0.0274675, "- N/A -   "
1.18, 43.87646, 0.00209089, NaN, NaN, NaN, 0.0274675, "- N/A -   "
1.19, 43.9944, 0.00211033, NaN, NaN, NaN, 0.0274675, "- N/A -   "
1.2, 44.1124, 0.00212422, NaN, NaN, NaN, 0.0274675, "- N/A -   "
1.21, 44.34825, 0.002138099, NaN, NaN, NaN, 0.0286883, "- N/A -   "
1.22, 44.58414, 0.00215198, NaN, NaN, NaN, 0.0299091, "- N/A -   "
1.23, 44.70209, 0.00216587, NaN, NaN, NaN, 0.03112983, "- N/A -   "
1.24, 44.93799, 0.002182527, NaN, NaN, NaN, 0.03112983, "- N/A -   "
1.25, 45.05593, 0.00219919, NaN, NaN, NaN, 0.03112983, "- N/A -   "
1.26, 45.29183, 0.00221862, NaN, NaN, NaN, 0.03112983, "- N/A -   "
1.27, 45.5277, 0.00223251, NaN, NaN, NaN, 0.03112983, "- N/A -   "
1.28, 45.6457, 0.00224639, NaN, NaN, NaN, 0.0323506, "- N/A -   "
1.29, 45.76362, 0.002260276, NaN, NaN, NaN, 0.0335714, "- N/A -   "
1.3, 45.8816, 0.00227416, NaN, NaN, NaN, 0.0347922, "- N/A -   "
1.31, 46.11746, 0.00229082, NaN, NaN, NaN, 0.03601294, "- N/A -   "
1.32, 46.3534, 0.002304704, NaN, NaN, NaN, 0.03601294, "- N/A -   "
1.33, 46.4713, 0.00232136, NaN, NaN, NaN, 0.0372337, "- N/A -   "
1.34, 46.5893, 0.00233525, NaN, NaN, NaN, 0.0372337, "- N/A -   "
1.35, 46.9431, 0.00235191, NaN, NaN, NaN, 0.0384545, "- N/A -   "
1.36, 47.061, 0.00236579, NaN, NaN, NaN, 0.0384545, "- N/A -   "
1.37, 47.2969, 0.002382453, NaN, NaN, NaN, 0.0384545, "- N/A -   "
1.38, 47.4149, 0.00239911, NaN, NaN, NaN, 0.0384545, "- N/A -   "
1.39, 47.65078, 0.002413, NaN, NaN, NaN, 0.0396753, "- N/A -   "
1.4, 47.8867, 0.00242966, NaN, NaN, NaN, 0.0396753, "- N/A -   "
1.41, 48.00462, 0.00244354, NaN, NaN, NaN, 0.04089605, "- N/A -   "
1.42, 48.12257, 0.0024602, NaN, NaN, NaN, 0.04211683, "- N/A -   "
1.43, 48.3585, 0.00247131, NaN, NaN, NaN, 0.0433376, "- N/A -   "
1.44, 48.47641, 0.00248797, NaN, NaN, NaN, 0.0445584, "- N/A -   "
1.45, 48.7123, 0.00250463, NaN, NaN, NaN, 0.0445584, "- N/A -   "
1.46, 48.83025, 0.002518514, NaN, NaN, NaN, 0.0445584, "- N/A -   "
1.47, 49.0661, 0.00253517, NaN, NaN, NaN, 0.0445584, "- N/A -   "
1.48, 49.30204, 0.00255461, NaN, NaN, NaN, 0.0445584, "- N/A -   "
1.49, 49.5379, 0.00257127, NaN, NaN, NaN, 0.0445584, "- N/A -   "
1.5, 49.7738, 0.00258793, NaN, NaN, NaN, 0.0445584, "- N/A -   "
1.51, 49.8918, 0.00260459, NaN, NaN, NaN, 0.0445584, "- N/A -   "
1.52, 50.1277, 0.00261848, NaN, NaN, NaN, 0.0445584, "- N/A -   "
1.53, 50.2456, 0.00263514, NaN, NaN, NaN, 0.04577916, "- N/A -   "
1.54, 50.5995, 0.00264902, NaN, NaN, NaN, 0.04577916, "- N/A -   "
1.55, 50.7174, 0.00266568, NaN, NaN, NaN, 0.04577916, "- N/A -   "
1.56, 50.9533, 0.00268234, NaN, NaN, NaN, 0.04699994, "- N/A -   "
1.57, 51.0713, 0.002699, NaN, NaN, NaN, 0.04699994, "- N/A -   "
1.58, 51.4251, 0.00271566, NaN, NaN, NaN, 0.04577916, "- N/A -   "
1.59, 51.66099, 0.0027351, NaN, NaN, NaN, 0.04577916, "- N/A -   "
1.6, 51.89689, 0.002751761, NaN, NaN, NaN, 0.0445584, "- N/A -   "
1.61, 52.1328, 0.0027712, NaN, NaN, NaN, 0.0433376, "- N/A -   "
1.62, 52.25073, 0.00279064, NaN, NaN, NaN, 0.04211683, "- N/A -   "
1.63, 52.36868, 0.002807296, NaN, NaN, NaN, 0.04211683, "- N/A -   "
1.64, 52.72252, 0.00282673, NaN, NaN, NaN, 0.04211683, "- N/A -   "
1.65, 52.84047, 0.002843394, NaN, NaN, NaN, 0.04089605, "- N/A -   "
1.66, 53.19431, 0.00286283, NaN, NaN, NaN, 0.0396753, "- N/A -   "
1.67, 53.4302, 0.00288505, NaN, NaN, NaN, 0.0384545, "- N/A -   "
1.68, 53.784, 0.00290726, NaN, NaN, NaN, 0.03601294, "- N/A -   "
1.69, 54.0199, 0.0029267, NaN, NaN, NaN, 0.0335714, "- N/A -   "
1.7, 54.2558, 0.00294613, NaN, NaN, NaN, 0.0323506, "- N/A -   "
1.71, 54.4917, 0.002965571, NaN, NaN, NaN, 0.03112983, "- N/A -   "
1.72, 54.7276, 0.00298501, NaN, NaN, NaN, 0.0299091, "- N/A -   "
1.73, 55.0815, 0.003001669, NaN, NaN, NaN, 0.0299091, "- N/A -   "
1.74, 55.1994, 0.003021106, NaN, NaN, NaN, 0.0299091, "- N/A -   "
1.75, 55.43531, 0.00303777, NaN, NaN, NaN, 0.0286883, "- N/A -   "
1.76, 55.6712, 0.003054427, NaN, NaN, NaN, 0.0286883, "- N/A -   "
1.77, 55.7892, 0.00307109, NaN, NaN, NaN, 0.0286883, "- N/A -   "
1.78, 55.9071, 0.003087748, NaN, NaN, NaN, 0.0286883, "- N/A -   "
1.79, 56.2609, 0.00310441, NaN, NaN, NaN, 0.0286883, "- N/A -   "
1.8, 56.37889, 0.003121069, NaN, NaN, NaN, 0.0286883, "- N/A -   "
1.81, 56.4968, 0.00313495, NaN, NaN, NaN, 0.0299091, "- N/A -   "
1.82, 56.85068, 0.00315161, NaN, NaN, NaN, 0.0299091, "- N/A -   "
1.83, 56.9686, 0.003168274, NaN, NaN, NaN, 0.0299091, "- N/A -   "
1.84, 57.20452, 0.00318216, NaN, NaN, NaN, 0.03112983, "- N/A -   "
1.85, 57.44042, 0.003201595, NaN, NaN, NaN, 0.03112983, "- N/A -   "
1.86, 57.5584, 0.00321826, NaN, NaN, NaN, 0.03112983, "- N/A -   "
1.87, 57.79426, 0.00323214, NaN, NaN, NaN, 0.03112983, "- N/A -   "
1.88, 58.0302, 0.0032488, NaN, NaN, NaN, 0.03112983, "- N/A -   "
1.89, 58.1481, 0.00325991, NaN, NaN, NaN, 0.0335714, "- N/A -   "
1.9, 58.384, 0.00327657, NaN, NaN, NaN, 0.0335714, "- N/A -   "
1.91, 58.5019, 0.00329323, NaN, NaN, NaN, 0.0347922, "- N/A -   "
1.92, 58.8558, 0.00330711, NaN, NaN, NaN, 0.0347922, "- N/A -   "
1.93, 59.0917, 0.003321, NaN, NaN, NaN, 0.03601294, "- N/A -   "
1.94, 59.2096, 0.00334043, NaN, NaN, NaN, 0.03601294, "- N/A -   "
1.95, 59.4455, 0.003357093, NaN, NaN, NaN, 0.0347922, "- N/A -   "
1.96, 59.5635, 0.00337375, NaN, NaN, NaN, 0.03601294, "- N/A -   "
1.97, 59.79937, 0.00338764, NaN, NaN, NaN, 0.03601294, "- N/A -   "
1.98, 60.15321, 0.0034043, NaN, NaN, NaN, 0.03601294, "- N/A -   "
1.99, 60.3891, 0.00342096, NaN, NaN, NaN, 0.0372337, "- N/A -   "
2, 60.3891, 0.00343484, NaN, NaN, NaN, 0.0372337, "- N/A -   "
2.01, 60.625, 0.0034515, NaN, NaN, NaN, 0.0372337, "- N/A -   "
2.02, 60.97884, 0.003468163, NaN, NaN, NaN, 0.0384545, "- N/A -   "
2.03, 61.09679, 0.00348482, NaN, NaN, NaN, 0.0384545, "- N/A -   "
2.04, 61.3327, 0.00349871, NaN, NaN, NaN, 0.0384545, "- N/A -   "
2.05, 61.56858, 0.00351814, NaN, NaN, NaN, 0.0372337, "- N/A -   "
2.06, 61.8045, 0.00353481, NaN, NaN, NaN, 0.0372337, "- N/A -   "
2.07, 62.0404, 0.00355147, NaN, NaN, NaN, 0.0372337, "- N/A -   "
2.08, 62.2763, 0.00356813, NaN, NaN, NaN, 0.0384545, "- N/A -   "
2.09, 62.5122, 0.00358201, NaN, NaN, NaN, 0.0384545, "- N/A -   "
2.1, 62.6301, 0.00359867, NaN, NaN, NaN, 0.0384545, "- N/A -   "
2.11, 62.866, 0.003615331, NaN, NaN, NaN, 0.0396753, "- N/A -   "
2.12, 62.98395, 0.00362921, NaN, NaN, NaN, 0.0396753, "- N/A -   "
2.13, 63.2198, 0.0036431, NaN, NaN, NaN, 0.04089605, "- N/A -   "
2.14, 63.45574, 0.003659759, NaN, NaN, NaN, 0.04089605, "- N/A -   "
2.15, 63.5737, 0.00367364, NaN, NaN, NaN, 0.04211683, "- N/A -   "
2.16, 63.80958, 0.00368753, NaN, NaN, NaN, 0.0433376, "- N/A -   "
2.17, 64.04548, 0.003704187, NaN, NaN, NaN, 0.0433376, "- N/A -   "
2.18, 64.16342, 0.00372085, NaN, NaN, NaN, 0.0445584, "- N/A -   "
2.19, 64.3993, 0.00373473, NaN, NaN, NaN, 0.0445584, "- N/A -   "
2.2, 64.5173, 0.00375139, NaN, NaN, NaN, 0.0445584, "- N/A -   "
2.21, 64.87111, 0.00376805, NaN, NaN, NaN, 0.0445584, "- N/A -   "
2.22, 64.98906, 0.00378471, NaN, NaN, NaN, 0.0445584, "- N/A -   "
2.23, 65.3429, 0.00380415, NaN, NaN, NaN, 0.0445584, "- N/A -   "
2.24, 65.5788, 0.00382081, NaN, NaN, NaN, 0.0433376, "- N/A -   "
2.25, 65.81469, 0.00384302, NaN, NaN, NaN, 0.04211683, "- N/A -   "
2.26, 66.05058, 0.003862462, NaN, NaN, NaN, 0.04089605, "- N/A -   "
2.27, 66.52237, 0.003881899, NaN, NaN, NaN, 0.0384545, "- N/A -   "
2.28, 66.52237, 0.00389856, NaN, NaN, NaN, 0.0384545, "- N/A -   "
2.29, 66.99416, 0.003917997, NaN, NaN, NaN, 0.0372337, "- N/A -   "
2.3, 67.1121, 0.003937434, NaN, NaN, NaN, 0.03601294, "- N/A -   "
2.31, 67.34801, 0.00395409, NaN, NaN, NaN, 0.03601294, "- N/A -   "
2.32, 67.5839, 0.00397076, NaN, NaN, NaN, 0.03601294, "- N/A -   "
2.33, 67.81979, 0.00399019, NaN, NaN, NaN, 0.0347922, "- N/A -   "
2.34, 68.05569, 0.00400963, NaN, NaN, NaN, 0.0347922, "- N/A -   "
2.35, 68.40953, 0.00402907, NaN, NaN, NaN, 0.0335714, "- N/A -   "
2.36, 68.6454, 0.00404573, NaN, NaN, NaN, 0.0323506, "- N/A -   "
2.37, 68.7634, 0.004065165, NaN, NaN, NaN, 0.03112983, "- N/A -   "
2.38, 69.11722, 0.004084602, NaN, NaN, NaN, 0.03112983, "- N/A -   "
2.39, 69.35311, 0.00410126, NaN, NaN, NaN, 0.0299091, "- N/A -   "
2.4, 69.589, 0.004117923, NaN, NaN, NaN, 0.0299091, "- N/A -   "
2.41, 69.707, 0.00413458, NaN, NaN, NaN, 0.0299091, "- N/A -   "
2.42, 70.0608, 0.004151244, NaN, NaN, NaN, 0.0299091, "- N/A -   "
2.43, 70.29669, 0.00417068, NaN, NaN, NaN, 0.0299091, "- N/A -   "
2.44, 70.5326, 0.004187342, NaN, NaN, NaN, 0.0299091, "- N/A -   "
2.45, 70.6505, 0.004204002, NaN, NaN, NaN, 0.0286883, "- N/A -   "
2.46, 70.88643, 0.00422066, NaN, NaN, NaN, 0.0299091, "- N/A -   "
2.47, 71.12233, 0.004234547, NaN, NaN, NaN, 0.0299091, "- N/A -   "
2.48, 71.24027, 0.00424843, NaN, NaN, NaN, 0.03112983, "- N/A -   "
2.49, 71.4762, 0.004262314, NaN, NaN, NaN, 0.0323506, "- N/A -   "
2.5, 71.71206, 0.004276198, NaN, NaN, NaN, 0.0335714, "- N/A -   "
2.51, 71.83001, 0.00429286, NaN, NaN, NaN, 0.0335714, "- N/A -   "
2.52, 72.06591, 0.004306742, NaN, NaN, NaN, 0.0347922, "- N/A -   "
2.53, 72.3018, 0.00432063, NaN, NaN, NaN, 0.03601294, "- N/A -   "
2.54, 72.5377, 0.00434006, NaN, NaN, NaN, 0.03601294, "- N/A -   "
2.55, 72.77359, 0.00435672, NaN, NaN, NaN, 0.03601294, "- N/A -   "
2.56, 73.00948, 0.004373384, NaN, NaN, NaN, 0.0347922, "- N/A -   "
2.57, 73.2454, 0.00439282, NaN, NaN, NaN, 0.0347922, "- N/A -   "
2.58, 73.48127, 0.004409482, NaN, NaN, NaN, 0.0335714, "- N/A -   "
2.59, 73.71717, 0.00442892, NaN, NaN, NaN, 0.0323506, "- N/A -   "
2.6, 74.071, 0.00444836, NaN, NaN, NaN, 0.03112983, "- N/A -   "
2.61, 74.3069, 0.004465017, NaN, NaN, NaN, 0.03112983, "- N/A -   "
2.62, 74.5428, 0.00448168, NaN, NaN, NaN, 0.03112983, "- N/A -   "
2.63, 74.7787, 0.00450111, NaN, NaN, NaN, 0.03112983, "- N/A -   "
2.64, 74.8966, 0.004515, NaN, NaN, NaN, 0.03112983, "- N/A -   "
2.65, 75.13254, 0.00452888, NaN, NaN, NaN, 0.0323506, "- N/A -   "
2.66, 75.36844, 0.004545543, NaN, NaN, NaN, 0.0335714, "- N/A -   "
2.67, 75.6043, 0.00455943, NaN, NaN, NaN, 0.0335714, "- N/A -   "
2.68, 75.7223, 0.00457331, NaN, NaN, NaN, 0.0347922, "- N/A -   "
2.69, 75.95817, 0.004587194, NaN, NaN, NaN, 0.03601294, "- N/A -   "
2.7, 76.07612, 0.00460385, NaN, NaN, NaN, 0.03601294, "- N/A -   "
2.71, 76.31202, 0.004620515, NaN, NaN, NaN, 0.0372337, "- N/A -   "
2.72, 76.6659, 0.004634399, NaN, NaN, NaN, 0.0372337, "- N/A -   "
2.73, 76.7838, 0.00465106, NaN, NaN, NaN, 0.0384545, "- N/A -   "
2.74, 77.0197, 0.004664943, NaN, NaN, NaN, 0.0384545, "- N/A -   "
2.75, 77.25559, 0.004678827, NaN, NaN, NaN, 0.0396753, "- N/A -   "
2.76, 77.25559, 0.00469271, NaN, NaN, NaN, 0.04089605, "- N/A -   "
2.77, 77.6094, 0.004709371, NaN, NaN, NaN, 0.04211683, "- N/A -   "
2.78, 77.72738, 0.004723255, NaN, NaN, NaN, 0.04211683, "- N/A -   "
2.79, 77.96328, 0.00473714, NaN, NaN, NaN, 0.0433376, "- N/A -   "
2.8, 78.19917, 0.004753799, NaN, NaN, NaN, 0.0433376, "- N/A -   "
2.81, 78.55301, 0.00477324, NaN, NaN, NaN, 0.04211683, "- N/A -   "
2.82, 78.78891, 0.00479267, NaN, NaN, NaN, 0.04211683, "- N/A -   "
2.83, 78.90686, 0.004809334, NaN, NaN, NaN, 0.04089605, "- N/A -   "
2.84, 79.2607, 0.004825995, NaN, NaN, NaN, 0.04089605, "- N/A -   "
2.85, 79.4966, 0.00484266, NaN, NaN, NaN, 0.04089605, "- N/A -   "
2.86, 79.73249, 0.004862093, NaN, NaN, NaN, 0.04089605, "- N/A -   "
2.87, 79.96838, 0.004878753, NaN, NaN, NaN, 0.04089605, "- N/A -   "
2.88, 80.20428, 0.00489541, NaN, NaN, NaN, 0.04089605, "- N/A -   "
2.89, 80.44018, 0.004909297, NaN, NaN, NaN, 0.04089605, "- N/A -   "
2.9, 80.67606, 0.004925958, NaN, NaN, NaN, 0.04089605, "- N/A -   "
2.91, 80.912, 0.00494262, NaN, NaN, NaN, 0.04211683, "- N/A -   "
2.92, 81.14786, 0.004959279, NaN, NaN, NaN, 0.04211683, "- N/A -   "
2.93, 81.5017, 0.004975939, NaN, NaN, NaN, 0.04089605, "- N/A -   "
2.94, 81.61965, 0.00499538, NaN, NaN, NaN, 0.04089605, "- N/A -   "
2.95, 81.97349, 0.005014814, NaN, NaN, NaN, 0.0396753, "- N/A -   "
2.96, 82.09144, 0.005034251, NaN, NaN, NaN, 0.0384545, "- N/A -   "
2.97, 82.44528, 0.00505091, NaN, NaN, NaN, 0.0372337, "- N/A -   "
2.98, 82.68118, 0.005070349, NaN, NaN, NaN, 0.03601294, "- N/A -   "
2.99, 83.03502, 0.00508979, NaN, NaN, NaN, 0.03601294, "- N/A -   "
3, 83.15297, 0.00510367, NaN, NaN, NaN, 0.03601294, "- N/A -   "
3.01, 83.50681, 0.005123107, NaN, NaN, NaN, 0.03601294, "- N/A -   "
3.02, 83.74271, 0.00513977, NaN, NaN, NaN, 0.0347922, "- N/A -   "
3.03, 83.9786, 0.005156428, NaN, NaN, NaN, 0.0347922, "- N/A -   "
3.04, 84.21449, 0.00517587, NaN, NaN, NaN, 0.0347922, "- N/A -   "
3.05, 84.45039, 0.005192526, NaN, NaN, NaN, 0.0335714, "- N/A -   "
3.06, 84.80424, 0.00520919, NaN, NaN, NaN, 0.0335714, "- N/A -   "
3.07, 85.04012, 0.005225847, NaN, NaN, NaN, 0.0347922, "- N/A -   "
3.08, 85.15807, 0.00524251, NaN, NaN, NaN, 0.0335714, "- N/A -   "
3.09, 85.51192, 0.00525917, NaN, NaN, NaN, 0.0335714, "- N/A -   "
3.1, 85.74781, 0.00527861, NaN, NaN, NaN, 0.0335714, "- N/A -   "
3.11, 85.9837, 0.00529527, NaN, NaN, NaN, 0.0323506, "- N/A -   "
3.12, 86.1017, 0.00531193, NaN, NaN, NaN, 0.0323506, "- N/A -   "
3.13, 86.33755, 0.005328587, NaN, NaN, NaN, 0.0323506, "- N/A -   "
3.14, 86.69139, 0.005345247, NaN, NaN, NaN, 0.0323506, "- N/A -   "
3.15, 86.80934, 0.00536191, NaN, NaN, NaN, 0.0335714, "- N/A -   "
3.16, 87.16318, 0.00537857, NaN, NaN, NaN, 0.0323506, "- N/A -   "
3.17, 87.39908, 0.00539801, NaN, NaN, NaN, 0.0323506, "- N/A -   "
3.18, 87.63497, 0.00541189, NaN, NaN, NaN, 0.0323506, "- N/A -   "
3.19, 87.8709, 0.00543133, NaN, NaN, NaN, 0.0323506, "- N/A -   "
3.2, 88.10676, 0.00544799, NaN, NaN, NaN, 0.03112983, "- N/A -   "
3.21, 88.34265, 0.00546465, NaN, NaN, NaN, 0.03112983, "- N/A -   "
3.22, 88.6965, 0.00548131, NaN, NaN, NaN, 0.03112983, "- N/A -   "
3.23, 88.8144, 0.00549797, NaN, NaN, NaN, 0.0323506, "- N/A -   "
3.24, 89.05035, 0.00551185, NaN, NaN, NaN, 0.0335714, "- N/A -   "
3.25, 89.28623, 0.00552574, NaN, NaN, NaN, 0.0335714, "- N/A -   "
3.26, 89.52213, 0.0055424, NaN, NaN, NaN, 0.0335714, "- N/A -   "
3.27, 89.87598, 0.00555906, NaN, NaN, NaN, 0.0335714, "- N/A -   "
3.28, 89.99392, 0.00557294, NaN, NaN, NaN, 0.0347922, "- N/A -   "
3.29, 90.22981, 0.00559238, NaN, NaN, NaN, 0.0335714, "- N/A -   "
3.3, 90.4657, 0.00561182, NaN, NaN, NaN, 0.0335714, "- N/A -   "
3.31, 90.81956, 0.005628476, NaN, NaN, NaN, 0.0335714, "- N/A -   "
3.32, 90.9375, 0.00564514, NaN, NaN, NaN, 0.0335714, "- N/A -   "
3.33, 91.1734, 0.00565902, NaN, NaN, NaN, 0.0335714, "- N/A -   "
3.34, 91.40929, 0.00567568, NaN, NaN, NaN, 0.0335714, "- N/A -   "
3.35, 91.52724, 0.00569234, NaN, NaN, NaN, 0.0347922, "- N/A -   "
3.36, 91.88108, 0.005706225, NaN, NaN, NaN, 0.0347922, "- N/A -   "
3.37, 91.99903, 0.00572289, NaN, NaN, NaN, 0.0347922, "- N/A -   "
3.38, 92.35287, 0.005739546, NaN, NaN, NaN, 0.0347922, "- N/A -   "
3.39, 92.58876, 0.005756207, NaN, NaN, NaN, 0.0347922, "- N/A -   "
3.4, 92.70671, 0.005775644, NaN, NaN, NaN, 0.0347922, "- N/A -   "
3.41, 93.1785, 0.0057923, NaN, NaN, NaN, 0.0335714, "- N/A -   "
3.42, 93.41439, 0.005808965, NaN, NaN, NaN, 0.0335714, "- N/A -   "
3.43, 93.65029, 0.00582563, NaN, NaN, NaN, 0.0335714, "- N/A -   "
3.44, 93.8862, 0.00584229, NaN, NaN, NaN, 0.0335714, "- N/A -   "
3.45, 94.0041, 0.00585617, NaN, NaN, NaN, 0.0347922, "- N/A -   "
3.46, 94.24, 0.00587283, NaN, NaN, NaN, 0.0347922, "- N/A -   "
3.47, 94.59387, 0.00588949, NaN, NaN, NaN, 0.03601294, "- N/A -   "
3.48, 94.8298, 0.00590337, NaN, NaN, NaN, 0.03601294, "- N/A -   "
3.49, 95.06567, 0.005917258, NaN, NaN, NaN, 0.0372337, "- N/A -   "
3.5, 95.18361, 0.005933919, NaN, NaN, NaN, 0.0372337, "- N/A -   "
3.51, 95.5374, 0.005950579, NaN, NaN, NaN, 0.0372337, "- N/A -   "
3.52, 95.6554, 0.00596724, NaN, NaN, NaN, 0.0372337, "- N/A -   "
3.53, 96.00924, 0.0059839, NaN, NaN, NaN, 0.0384545, "- N/A -   "
3.54, 96.12719, 0.005997784, NaN, NaN, NaN, 0.0384545, "- N/A -   "
3.55, 96.36309, 0.006014445, NaN, NaN, NaN, 0.0396753, "- N/A -   "
3.56, 96.599, 0.006028328, NaN, NaN, NaN, 0.04089605, "- N/A -   "
3.57, 96.71693, 0.006039435, NaN, NaN, NaN, 0.04211683, "- N/A -   "
3.58, 97.07077, 0.006056096, NaN, NaN, NaN, 0.04211683, "- N/A -   "
3.59, 97.18872, 0.006072756, NaN, NaN, NaN, 0.0433376, "- N/A -   "
3.6, 97.54256, 0.006089417, NaN, NaN, NaN, 0.0433376, "- N/A -   "
3.61, 97.77845, 0.006103301, NaN, NaN, NaN, 0.0433376, "- N/A -   "
3.62, 98.01435, 0.006119961, NaN, NaN, NaN, 0.0445584, "- N/A -   "
3.63, 98.2502, 0.006136622, NaN, NaN, NaN, 0.04577916, "- N/A -   "
3.64, 98.4861, 0.00615328, NaN, NaN, NaN, 0.04577916, "- N/A -   "
3.65, 98.72203, 0.00616994, NaN, NaN, NaN, 0.04577916, "- N/A -   "
3.66, 99.0759, 0.006186603, NaN, NaN, NaN, 0.0445584, "- N/A -   "
3.67, 99.3118, 0.00620604, NaN, NaN, NaN, 0.0433376, "- N/A -   "
3.68, 99.66561, 0.006222701, NaN, NaN, NaN, 0.0433376, "- N/A -   "
3.69, 99.7836, 0.006242138, NaN, NaN, NaN, 0.0433376, "- N/A -   "
3.7, 100.255, 0.0062588, NaN, NaN, NaN, 0.04211683, "- N/A -   "
3.71, 100.491, 0.006278236, NaN, NaN, NaN, 0.04211683, "- N/A -   "
3.72, 100.845, 0.006297673, NaN, NaN, NaN, 0.04089605, "- N/A -   "
3.73, 100.963, 0.00631711, NaN, NaN, NaN, 0.0396753, "- N/A -   "
3.74, 101.317, 0.006336548, NaN, NaN, NaN, 0.0384545, "- N/A -   "
3.75, 101.671, 0.00635321, NaN, NaN, NaN, 0.0372337, "- N/A -   "
3.76, 101.907, 0.006372645, NaN, NaN, NaN, 0.03601294, "- N/A -   "
3.77, 102.143, 0.006392083, NaN, NaN, NaN, 0.03601294, "- N/A -   "
3.78, 102.26, 0.006408743, NaN, NaN, NaN, 0.03601294, "- N/A -   "
3.79, 102.6143, 0.006425404, NaN, NaN, NaN, 0.03601294, "- N/A -   "
3.8, 102.85, 0.00644206, NaN, NaN, NaN, 0.03601294, "- N/A -   "
3.81, 103.204, 0.006458725, NaN, NaN, NaN, 0.0347922, "- N/A -   "
3.82, 103.322, 0.00647539, NaN, NaN, NaN, 0.0347922, "- N/A -   "
3.83, 103.558, 0.006492046, NaN, NaN, NaN, 0.0347922, "- N/A -   "
3.84, 103.794, 0.006508706, NaN, NaN, NaN, 0.0347922, "- N/A -   "
3.85, 104.148, 0.006525367, NaN, NaN, NaN, 0.0347922, "- N/A -   "
3.86, 104.501, 0.00654203, NaN, NaN, NaN, 0.0347922, "- N/A -   "
3.87, 104.737, 0.006561464, NaN, NaN, NaN, 0.0347922, "- N/A -   "
3.88, 104.973, 0.006578125, NaN, NaN, NaN, 0.0347922, "- N/A -   "
3.89, 105.091, 0.00659479, NaN, NaN, NaN, 0.0347922, "- N/A -   "
3.9, 105.445, 0.00661145, NaN, NaN, NaN, 0.0347922, "- N/A -   "
3.91, 105.681, 0.00662811, NaN, NaN, NaN, 0.0347922, "- N/A -   "
3.92, 105.917, 0.00664477, NaN, NaN, NaN, 0.0335714, "- N/A -   "
3.93, 106.153, 0.0066642, NaN, NaN, NaN, 0.0335714, "- N/A -   "
3.94, 106.507, 0.00668087, NaN, NaN, NaN, 0.0323506, "- N/A -   "
3.95, 106.742, 0.0067003, NaN, NaN, NaN, 0.0323506, "- N/A -   "
3.96, 107.0963, 0.006716963, NaN, NaN, NaN, 0.03112983, "- N/A -   "
3.97, 107.45, 0.0067364, NaN, NaN, NaN, 0.0299091, "- N/A -   "
3.98, 107.686, 0.00675584, NaN, NaN, NaN, 0.0286883, "- N/A -   "
3.99, 108.04, 0.00677527, NaN, NaN, NaN, 0.0286883, "- N/A -   "
4, 108.394, 0.00679194, NaN, NaN, NaN, 0.0274675, "- N/A -   "
4.01, 108.63, 0.0068086, NaN, NaN, NaN, 0.0274675, "- N/A -   "
4.02, 108.748, 0.006825256, NaN, NaN, NaN, 0.0274675, "- N/A -   "
4.03, 108.983, 0.00684192, NaN, NaN, NaN, 0.0274675, "- N/A -   "
4.04, 109.219, 0.0068558, NaN, NaN, NaN, 0.0286883, "- N/A -   "
4.05, 109.455, 0.00686968, NaN, NaN, NaN, 0.0299091, "- N/A -   "
4.06, 109.691, 0.00688634, NaN, NaN, NaN, 0.0299091, "- N/A -   "
4.07, 110.045, 0.00690301, NaN, NaN, NaN, 0.03112983, "- N/A -   "
4.08, 110.045, 0.00691411, NaN, NaN, NaN, 0.0323506, "- N/A -   "
4.09, 110.281, 0.006928, NaN, NaN, NaN, 0.0335714, "- N/A -   "
4.1, 110.517, 0.00694188, NaN, NaN, NaN, 0.0347922, "- N/A -   "
4.11, 110.753, 0.00695576, NaN, NaN, NaN, 0.03601294, "- N/A -   "
4.12, 110.989, 0.00696965, NaN, NaN, NaN, 0.0372337, "- N/A -   "
4.13, 111.107, 0.006983531, NaN, NaN, NaN, 0.0384545, "- N/A -   "
4.14, 111.342, 0.00699741, NaN, NaN, NaN, 0.0396753, "- N/A -   "
4.15, 111.578, 0.0070113, NaN, NaN, NaN, 0.04089605, "- N/A -   "
4.16, 111.8142, 0.00702518, NaN, NaN, NaN, 0.04211683, "- N/A -   "
4.17, 112.0501, 0.00703907, NaN, NaN, NaN, 0.0433376, "- N/A -   "
4.18, 112.168, 0.00705573, NaN, NaN, NaN, 0.0445584, "- N/A -   "
4.19, 112.522, 0.00706961, NaN, NaN, NaN, 0.0445584, "- N/A -   "
4.2, 112.758, 0.00708627, NaN, NaN, NaN, 0.0445584, "- N/A -   "
4.21, 112.994, 0.00710293, NaN, NaN, NaN, 0.0445584, "- N/A -   "
4.22, 113.23, 0.007119592, NaN, NaN, NaN, 0.0445584, "- N/A -   "
4.23, 113.348, 0.00713625, NaN, NaN, NaN, 0.04577916, "- N/A -   "
4.24, 113.701, 0.00714736, NaN, NaN, NaN, 0.04699994, "- N/A -   "
4.25, 113.937, 0.0071668, NaN, NaN, NaN, 0.04699994, "- N/A -   "
4.26, 114.2911, 0.00718068, NaN, NaN, NaN, 0.04699994, "- N/A -   "
4.27, 114.409, 0.00719734, NaN, NaN, NaN, 0.04699994, "- N/A -   "
4.28, 114.763, 0.00721678, NaN, NaN, NaN, 0.04699994, "- N/A -   "
4.29, 115.117, 0.00723344, NaN, NaN, NaN, 0.04577916, "- N/A -   "
4.3, 115.353, 0.00725288, NaN, NaN, NaN, 0.04577916, "- N/A -   "
4.31, 115.706, 0.00726954, NaN, NaN, NaN, 0.0445584, "- N/A -   "
4.32, 116.06, 0.007288974, NaN, NaN, NaN, 0.0433376, "- N/A -   "
4.33, 116.296, 0.007308411, NaN, NaN, NaN, 0.04211683, "- N/A -   "
4.34, 116.5321, 0.00732785, NaN, NaN, NaN, 0.04089605, "- N/A -   "
4.35, 116.886, 0.00734729, NaN, NaN, NaN, 0.0396753, "- N/A -   "
4.36, 117.24, 0.007366723, NaN, NaN, NaN, 0.0384545, "- N/A -   "
4.37, 117.476, 0.00738616, NaN, NaN, NaN, 0.0384545, "- N/A -   "
4.38, 117.83, 0.00740282, NaN, NaN, NaN, 0.0372337, "- N/A -   "
4.39, 118.065, 0.007419481, NaN, NaN, NaN, 0.0372337, "- N/A -   "
4.4, 118.419, 0.00743892, NaN, NaN, NaN, 0.03601294, "- N/A -   "
4.41, 118.655, 0.00745558, NaN, NaN, NaN, 0.03601294, "- N/A -   "
4.42, 118.891, 0.00747502, NaN, NaN, NaN, 0.0347922, "- N/A -   "
4.43, 119.245, 0.00749168, NaN, NaN, NaN, 0.0347922, "- N/A -   "
4.44, 119.599, 0.007511114, NaN, NaN, NaN, 0.0347922, "- N/A -   "
4.45, 119.835, 0.007530551, NaN, NaN, NaN, 0.0335714, "- N/A -   "
4.46, 120.071, 0.007547212, NaN, NaN, NaN, 0.0335714, "- N/A -   "
4.47, 120.188, 0.0075611, NaN, NaN, NaN, 0.0335714, "- N/A -   "
4.48, 120.542, 0.00758053, NaN, NaN, NaN, 0.0323506, "- N/A -   "
4.49, 120.896, 0.007597193, NaN, NaN, NaN, 0.0323506, "- N/A -   "
4.5, 121.132, 0.00761663, NaN, NaN, NaN, 0.0323506, "- N/A -   "
4.51, 121.486, 0.007630514, NaN, NaN, NaN, 0.0323506, "- N/A -   "
4.52, 121.722, 0.00764995, NaN, NaN, NaN, 0.03112983, "- N/A -   "
4.53, 122.076, 0.007663835, NaN, NaN, NaN, 0.0323506, "- N/A -   "
4.54, 122.312, 0.00768327, NaN, NaN, NaN, 0.0323506, "- N/A -   "
4.55, 122.547, 0.007699933, NaN, NaN, NaN, 0.03112983, "- N/A -   "
4.56, 122.901, 0.00771937, NaN, NaN, NaN, 0.03112983, "- N/A -   "
4.57, 123.255, 0.007736031, NaN, NaN, NaN, 0.0299091, "- N/A -   "
4.58, 123.491, 0.007755468, NaN, NaN, NaN, 0.0299091, "- N/A -   "
4.59, 123.7269, 0.00777491, NaN, NaN, NaN, 0.0286883, "- N/A -   "
4.6, 123.963, 0.00779157, NaN, NaN, NaN, 0.0274675, "- N/A -   "
4.61, 124.317, 0.007808226, NaN, NaN, NaN, 0.0274675, "- N/A -   "
4.62, 124.553, 0.00782211, NaN, NaN, NaN, 0.0286883, "- N/A -   "
4.63, 124.788, 0.007838771, NaN, NaN, NaN, 0.0286883, "- N/A -   "
4.64, 125.024, 0.007855431, NaN, NaN, NaN, 0.0286883, "- N/A -   "
4.65, 125.26, 0.007872092, NaN, NaN, NaN, 0.0286883, "- N/A -   "
4.66, 125.614, 0.007891529, NaN, NaN, NaN, 0.0286883, "- N/A -   "
4.67, 125.85, 0.007908189, NaN, NaN, NaN, 0.0274675, "- N/A -   "
4.68, 126.204, 0.00792485, NaN, NaN, NaN, 0.0274675, "- N/A -   "
4.69, 126.44, 0.00794151, NaN, NaN, NaN, 0.0274675, "- N/A -   "
4.7, 126.676, 0.007955394, NaN, NaN, NaN, 0.0286883, "- N/A -   "
4.71, 126.911, 0.007969278, NaN, NaN, NaN, 0.0299091, "- N/A -   "
4.72, 127.147, 0.007980385, NaN, NaN, NaN, 0.0323506, "- N/A -   "
4.73, 127.383, 0.007994269, NaN, NaN, NaN, 0.0335714, "- N/A -   "
4.74, 127.383, 0.008008152, NaN, NaN, NaN, 0.03601294, "- N/A -   "
4.75, 127.737, 0.008022036, NaN, NaN, NaN, 0.03601294, "- N/A -   "
4.76, 127.973, 0.00803592, NaN, NaN, NaN, 0.0372337, "- N/A -   "
4.77, 128.209, 0.00805258, NaN, NaN, NaN, 0.0384545, "- N/A -   "
4.78, 128.4448, 0.008066464, NaN, NaN, NaN, 0.0396753, "- N/A -   "
4.79, 128.6807, 0.008080348, NaN, NaN, NaN, 0.0396753, "- N/A -   "
4.8, 128.799, 0.008094232, NaN, NaN, NaN, 0.04211683, "- N/A -   "
4.81, 129.152, 0.008108115, NaN, NaN, NaN, 0.04211683, "- N/A -   "
4.82, 129.388, 0.008121999, NaN, NaN, NaN, 0.0433376, "- N/A -   "
4.83, 129.506, 0.00813866, NaN, NaN, NaN, 0.0433376, "- N/A -   "
4.84, 129.742, 0.00815532, NaN, NaN, NaN, 0.0433376, "- N/A -   "
4.85, 130.096, 0.008171981, NaN, NaN, NaN, 0.0433376, "- N/A -   "
4.86, 130.332, 0.008185864, NaN, NaN, NaN, 0.0445584, "- N/A -   "
4.87, 130.568, 0.008202525, NaN, NaN, NaN, 0.0445584, "- N/A -   "
4.88, 130.922, 0.00822196, NaN, NaN, NaN, 0.0445584, "- N/A -   "
4.89, 131.276, 0.008238623, NaN, NaN, NaN, 0.0433376, "- N/A -   "
4.9, 131.511, 0.008255283, NaN, NaN, NaN, 0.0433376, "- N/A -   "
4.91, 131.747, 0.008271944, NaN, NaN, NaN, 0.0433376, "- N/A -   "
4.92, 131.983, 0.008288604, NaN, NaN, NaN, 0.0433376, "- N/A -   "
4.93, 132.337, 0.008305265, NaN, NaN, NaN, 0.0433376, "- N/A -   "
4.94, 132.573, 0.008319149, NaN, NaN, NaN, 0.0445584, "- N/A -   "
4.95, 132.9268, 0.008335809, NaN, NaN, NaN, 0.0445584, "- N/A -   "
4.96, 133.163, 0.00835247, NaN, NaN, NaN, 0.0445584, "- N/A -   "
4.97, 133.399, 0.008371907, NaN, NaN, NaN, 0.0445584, "- N/A -   "
4.98, 133.634, 0.008388568, NaN, NaN, NaN, 0.0445584, "- N/A -   "
4.99, 133.87, 0.008402451, NaN, NaN, NaN, 0.0445584, "- N/A -   "
5, 134.106, 0.008421889, NaN, NaN, NaN, 0.0445584, "- N/A -   "
5.01, 134.46, 0.008435773, NaN, NaN, NaN, 0.0445584, "- N/A -   "
5.02, 134.696, 0.008452432, NaN, NaN, NaN, 0.0445584, "- N/A -   "
5.03, 135.05, 0.00847187, NaN, NaN, NaN, 0.0445584, "- N/A -   "
5.04, 135.4037, 0.00848853, NaN, NaN, NaN, 0.0433376, "- N/A -   "
5.05, 135.758, 0.008507968, NaN, NaN, NaN, 0.04211683, "- N/A -   "
5.06, 135.993, 0.008527406, NaN, NaN, NaN, 0.04089605, "- N/A -   "
5.07, 136.347, 0.008546842, NaN, NaN, NaN, 0.04089605, "- N/A -   "
5.08, 136.583, 0.008563503, NaN, NaN, NaN, 0.0396753, "- N/A -   "
5.09, 136.937, 0.00858294, NaN, NaN, NaN, 0.0384545, "- N/A -   "
5.1, 137.4088, 0.008605154, NaN, NaN, NaN, 0.03601294, "- N/A -   "
5.11, 137.6447, 0.008624592, NaN, NaN, NaN, 0.0347922, "- N/A -   "
5.12, 138.116, 0.008646806, NaN, NaN, NaN, 0.0335714, "- N/A -   "
5.13, 138.47, 0.00866624, NaN, NaN, NaN, 0.0323506, "- N/A -   "
5.14, 138.706, 0.00868568, NaN, NaN, NaN, 0.0299091, "- N/A -   "
5.15, 139.06, 0.008705118, NaN, NaN, NaN, 0.0299091, "- N/A -   "
5.16, 139.296, 0.008721777, NaN, NaN, NaN, 0.0299091, "- N/A -   "
5.17, 139.532, 0.008738439, NaN, NaN, NaN, 0.0286883, "- N/A -   "
5.18, 139.8857, 0.008755099, NaN, NaN, NaN, 0.0286883, "- N/A -   "
5.19, 140.1216, 0.008771759, NaN, NaN, NaN, 0.0299091, "- N/A -   "
5.2, 140.357, 0.008785643, NaN, NaN, NaN, 0.0299091, "- N/A -   "
5.21, 140.593, 0.008802303, NaN, NaN, NaN, 0.0299091, "- N/A -   "
5.22, 140.947, 0.008818964, NaN, NaN, NaN, 0.0299091, "- N/A -   "
5.23, 141.301, 0.008838401, NaN, NaN, NaN, 0.0286883, "- N/A -   "
5.24, 141.537, 0.008855062, NaN, NaN, NaN, 0.0299091, "- N/A -   "
5.25, 141.773, 0.008871722, NaN, NaN, NaN, 0.0286883, "- N/A -   "
5.26, 142.1267, 0.008888382, NaN, NaN, NaN, 0.0299091, "- N/A -   "
5.27, 142.245, 0.008902267, NaN, NaN, NaN, 0.0299091, "- N/A -   "
5.28, 142.481, 0.008918927, NaN, NaN, NaN, 0.0299091, "- N/A -   "
5.29, 142.8344, 0.00893559, NaN, NaN, NaN, 0.0299091, "- N/A -   "
5.3, 143.07, 0.008949472, NaN, NaN, NaN, 0.03112983, "- N/A -   "
5.31, 143.424, 0.008966132, NaN, NaN, NaN, 0.03112983, "- N/A -   "
5.32, 143.66, 0.008980015, NaN, NaN, NaN, 0.0323506, "- N/A -   "
5.33, 143.896, 0.008993899, NaN, NaN, NaN, 0.0335714, "- N/A -   "
5.34, 144.132, 0.00901056, NaN, NaN, NaN, 0.0335714, "- N/A -   "
5.35, 144.368, 0.00902722, NaN, NaN, NaN, 0.0335714, "- N/A -   "
5.36, 144.722, 0.009043881, NaN, NaN, NaN, 0.0335714, "- N/A -   "
5.37, 144.957, 0.009060541, NaN, NaN, NaN, 0.0347922, "- N/A -   "
5.38, 145.193, 0.009074425, NaN, NaN, NaN, 0.0347922, "- N/A -   "
5.39, 145.429, 0.009093863, NaN, NaN, NaN, 0.0347922, "- N/A -   "
5.4, 145.783, 0.009107746, NaN, NaN, NaN, 0.0347922, "- N/A -   "
5.41, 146.019, 0.009127184, NaN, NaN, NaN, 0.0347922, "- N/A -   "
5.42, 146.255, 0.009141067, NaN, NaN, NaN, 0.0347922, "- N/A -   "
5.43, 146.6087, 0.00915773, NaN, NaN, NaN, 0.0347922, "- N/A -   "
5.44, 146.8446, 0.009174388, NaN, NaN, NaN, 0.03601294, "- N/A -   "
5.45, 147.0805, 0.009188272, NaN, NaN, NaN, 0.03601294, "- N/A -   "
5.46, 147.316, 0.00920493, NaN, NaN, NaN, 0.03601294, "- N/A -   "
5.47, 147.67, 0.009218816, NaN, NaN, NaN, 0.0372337, "- N/A -   "
5.48, 147.788, 0.009235477, NaN, NaN, NaN, 0.0372337, "- N/A -   "
5.49, 148.142, 0.00924936, NaN, NaN, NaN, 0.0384545, "- N/A -   "
5.5, 148.26, 0.009263244, NaN, NaN, NaN, 0.0396753, "- N/A -   "
5.51, 148.496, 0.009279905, NaN, NaN, NaN, 0.04089605, "- N/A -   "
5.52, 148.6138, 0.009291012, NaN, NaN, NaN, 0.04211683, "- N/A -   "
5.53, 148.968, 0.009307672, NaN, NaN, NaN, 0.04211683, "- N/A -   "
5.54, 149.204, 0.009324333, NaN, NaN, NaN, 0.04211683, "- N/A -   "
5.55, 149.557, 0.009340993, NaN, NaN, NaN, 0.04211683, "- N/A -   "
5.56, 149.793, 0.009354877, NaN, NaN, NaN, 0.0433376, "- N/A -   "
5.57, 150.029, 0.009371538, NaN, NaN, NaN, 0.0433376, "- N/A -   "
5.58, 150.383, 0.009388198, NaN, NaN, NaN, 0.0445584, "- N/A -   "
5.59, 150.501, 0.009402082, NaN, NaN, NaN, 0.0445584, "- N/A -   "
5.6, 150.855, 0.009418742, NaN, NaN, NaN, 0.0445584, "- N/A -   "
5.61, 151.091, 0.009435403, NaN, NaN, NaN, 0.0445584, "- N/A -   "
5.62, 151.445, 0.009452064, NaN, NaN, NaN, 0.0445584, "- N/A -   "
5.63, 151.68, 0.009468724, NaN, NaN, NaN, 0.0445584, "- N/A -   "
5.64, 152.034, 0.009485384, NaN, NaN, NaN, 0.0445584, "- N/A -   "
5.65, 152.388, 0.009504822, NaN, NaN, NaN, 0.0433376, "- N/A -   "
5.66, 152.742, 0.00952148, NaN, NaN, NaN, 0.0433376, "- N/A -   "
5.67, 152.978, 0.009540919, NaN, NaN, NaN, 0.0433376, "- N/A -   "
5.68, 153.332, 0.00955758, NaN, NaN, NaN, 0.04211683, "- N/A -   "
5.69, 153.8035, 0.00957979, NaN, NaN, NaN, 0.04089605, "- N/A -   "
5.7, 154.0394, 0.009599231, NaN, NaN, NaN, 0.0396753, "- N/A -   "
5.71, 154.393, 0.009618668, NaN, NaN, NaN, 0.0384545, "- N/A -   "
5.72, 154.747, 0.00963811, NaN, NaN, NaN, 0.0372337, "- N/A -   "
5.73, 155.101, 0.009654766, NaN, NaN, NaN, 0.03601294, "- N/A -   "
5.74, 155.337, 0.009674203, NaN, NaN, NaN, 0.0347922, "- N/A -   "
5.75, 155.691, 0.00969364, NaN, NaN, NaN, 0.0335714, "- N/A -   "
5.76, 155.927, 0.009710302, NaN, NaN, NaN, 0.0335714, "- N/A -   "
5.77, 156.2804, 0.009729738, NaN, NaN, NaN, 0.0323506, "- N/A -   "
5.78, 156.634, 0.009746399, NaN, NaN, NaN, 0.0323506, "- N/A -   "
5.79, 156.87, 0.00976306, NaN, NaN, NaN, 0.0323506, "- N/A -   "
5.8, 157.224, 0.009782497, NaN, NaN, NaN, 0.0323506, "- N/A -   "
5.81, 157.46, 0.009799158, NaN, NaN, NaN, 0.03112983, "- N/A -   "
5.82, 157.814, 0.009818594, NaN, NaN, NaN, 0.03112983, "- N/A -   "
5.83, 158.0496, 0.009835254, NaN, NaN, NaN, 0.03112983, "- N/A -   "
5.84, 158.403, 0.009851916, NaN, NaN, NaN, 0.03112983, "- N/A -   "
5.85, 158.639, 0.0098658, NaN, NaN, NaN, 0.03112983, "- N/A -   "
5.86, 158.875, 0.00988246, NaN, NaN, NaN, 0.03112983, "- N/A -   "
5.87, 159.111, 0.009899121, NaN, NaN, NaN, 0.03112983, "- N/A -   "
5.88, 159.347, 0.00991578, NaN, NaN, NaN, 0.03112983, "- N/A -   "
5.89, 159.583, 0.009929664, NaN, NaN, NaN, 0.0323506, "- N/A -   "
5.9, 159.819, 0.009946325, NaN, NaN, NaN, 0.0323506, "- N/A -   "
5.91, 160.173, 0.009960209, NaN, NaN, NaN, 0.0335714, "- N/A -   "
5.92, 160.2906, 0.00997687, NaN, NaN, NaN, 0.0347922, "- N/A -   "
5.93, 160.7624, 0.009990753, NaN, NaN, NaN, 0.0347922, "- N/A -   "
5.94, 160.88, 0.0100046, NaN, NaN, NaN, 0.03601294, "- N/A -   "
5.95, 161.234, 0.0100213, NaN, NaN, NaN, 0.03601294, "- N/A -   "
[...]
25.75, 931.741, 0.0430397, NaN, NaN, NaN, 0.0274675, "- N/A -   "
25.8, 933.752, 0.0431146, NaN, NaN, NaN, 0.0323506, "- N/A -   "
25.85, 935.763, 0.0431896, NaN, NaN, NaN, 0.0347922, "- N/A -   "
25.9, 938.01, 0.0432729, NaN, NaN, NaN, 0.0347922, "- N/A -   "
25.95, 940.139, 0.0433534, NaN, NaN, NaN, 0.0372337, "- N/A -   "
26, 941.9132, 0.0434228, NaN, NaN, NaN, 0.04211683, "- N/A -   "
26.05, 944.042, 0.04350337, NaN, NaN, NaN, 0.0433376, "- N/A -   "
26.1, 946.1713, 0.04358112, NaN, NaN, NaN, 0.04577916, "- N/A -   "
26.15, 948.6552, 0.04367275, NaN, NaN, NaN, 0.04211683, "- N/A -   "
26.2, 951.3757, 0.0437727, NaN, NaN, NaN, 0.0347922, "- N/A -   "
26.25, 954.0961, 0.0438699, NaN, NaN, NaN, 0.03112983, "- N/A -   "
26.3, 956.2252, 0.0439504, NaN, NaN, NaN, 0.03112983, "- N/A -   "
26.35, 958.1177, 0.0440226, NaN, NaN, NaN, 0.03601294, "- N/A -   "
26.4, 960.0102, 0.0440976, NaN, NaN, NaN, 0.0396753, "- N/A -   "
26.45, 962.2575, 0.0441809, NaN, NaN, NaN, 0.04089605, "- N/A -   "
26.5, 964.7414, 0.04427253, NaN, NaN, NaN, 0.03601294, "- N/A -   "
26.55, 966.9888, 0.04435861, NaN, NaN, NaN, 0.03601294, "- N/A -   "
26.6, 969.1178, 0.0444364, NaN, NaN, NaN, 0.0384545, "- N/A -   "
26.65, 971.129, 0.04451133, NaN, NaN, NaN, 0.04089605, "- N/A -   "
26.7, 973.6124, 0.0446002, NaN, NaN, NaN, 0.0384545, "- N/A -   "
26.75, 975.7415, 0.0446835, NaN, NaN, NaN, 0.0396753, "- N/A -   "
26.8, 977.8706, 0.044764, NaN, NaN, NaN, 0.0396753, "- N/A -   "
26.85, 980.1179, 0.0448473, NaN, NaN, NaN, 0.0396753, "- N/A -   "
26.9, 982.4836, 0.0449362, NaN, NaN, NaN, 0.0372337, "- N/A -   "
26.95, 984.8492, 0.0450195, NaN, NaN, NaN, 0.0372337, "- N/A -   "
27, 987.0965, 0.0451056, NaN, NaN, NaN, 0.0372337, "- N/A -   "
27.05, 989.462, 0.0451916, NaN, NaN, NaN, 0.0347922, "- N/A -   "
27.1, 991.946, 0.04528049, NaN, NaN, NaN, 0.0323506, "- N/A -   "
27.15, 994.1933, 0.04536657, NaN, NaN, NaN, 0.03112983, "- N/A -   "
27.2, 996.4407, 0.04544432, NaN, NaN, NaN, 0.0335714, "- N/A -   "
27.25, 998.688, 0.0455304, NaN, NaN, NaN, 0.0335714, "- N/A -   "
27.3, 1000.94, 0.0456165, NaN, NaN, NaN, 0.0323506, "- N/A -   "
27.35, 1002.83, 0.0456887, NaN, NaN, NaN, 0.0372337, "- N/A -   "
27.4, 1004.72, 0.04576087, NaN, NaN, NaN, 0.04089605, "- N/A -   "
27.45, 1006.85, 0.04583862, NaN, NaN, NaN, 0.0433376, "- N/A -   "
27.5, 1008.86, 0.04591359, NaN, NaN, NaN, 0.04699994, "- N/A -   "
27.55, 1011.23, 0.0460024, NaN, NaN, NaN, 0.04577916, "- N/A -   "
27.6, 1013.83, 0.04609408, NaN, NaN, NaN, 0.04089605, "- N/A -   "
27.65, 1016.58, 0.0461913, NaN, NaN, NaN, 0.03601294, "- N/A -   "
27.7, 1019.08, 0.0462773, NaN, NaN, NaN, 0.0335714, "- N/A -   "
27.75, 1021.11, 0.04635787, NaN, NaN, NaN, 0.0347922, "- N/A -   "
27.8, 1023.26, 0.0464384, NaN, NaN, NaN, 0.0372337, "- N/A -   "
27.85, 1025.88, 0.04653281, NaN, NaN, NaN, 0.03112983, "- N/A -   "
27.9, 1028.145, 0.0466189, NaN, NaN, NaN, 0.0299091, "- N/A -   "
27.95, 1030.29, 0.0466966, NaN, NaN, NaN, 0.0335714, "- N/A -   "
28, 1032.2, 0.04676883, NaN, NaN, NaN, 0.0372337, "- N/A -   "
28.05, 1034.23, 0.0468438, NaN, NaN, NaN, 0.04089605, "- N/A -   "
28.1, 1036.02, 0.046916, NaN, NaN, NaN, 0.04577916, "- N/A -   "
28.15, 1038.4, 0.0469965, NaN, NaN, NaN, 0.04699994, "- N/A -   "
28.2, 1040.905, 0.0470909, NaN, NaN, NaN, 0.0433376, "- N/A -   "
28.25, 1043.65, 0.0471853, NaN, NaN, NaN, 0.0372337, "- N/A -   "
28.3, 1046.03, 0.0472742, NaN, NaN, NaN, 0.03601294, "- N/A -   "
28.35, 1048.54, 0.0473631, NaN, NaN, NaN, 0.0323506, "- N/A -   "
28.4, 1050.68, 0.0474491, NaN, NaN, NaN, 0.03112983, "- N/A -   "
28.45, 1053.19, 0.0475352, NaN, NaN, NaN, 0.03112983, "- N/A -   "
28.5, 1055.573, 0.04762129, NaN, NaN, NaN, 0.0286883, "- N/A -   "
28.55, 1057.958, 0.04770737, NaN, NaN, NaN, 0.0274675, "- N/A -   "
28.6, 1059.866, 0.0477823, NaN, NaN, NaN, 0.03112983, "- N/A -   "
28.65, 1061.89, 0.04785454, NaN, NaN, NaN, 0.0372337, "- N/A -   "
28.7, 1063.682, 0.04792396, NaN, NaN, NaN, 0.04211683, "- N/A -   "
28.75, 1065.83, 0.04800171, NaN, NaN, NaN, 0.04577916, "- N/A -   "
28.8, 1068.09, 0.04808501, NaN, NaN, NaN, 0.0445584, "- N/A -   "
28.85, 1070.36, 0.0481655, NaN, NaN, NaN, 0.04577916, "- N/A -   "
28.9, 1072.86, 0.0482544, NaN, NaN, NaN, 0.0433376, "- N/A -   "
28.95, 1075.488, 0.048346, NaN, NaN, NaN, 0.0396753, "- N/A -   "
29, 1078.23, 0.0484488, NaN, NaN, NaN, 0.0323506, "- N/A -   "
29.05, 1080.74, 0.0485376, NaN, NaN, NaN, 0.0286883, "- N/A -   "
29.1, 1082.88, 0.0486181, NaN, NaN, NaN, 0.0299091, "- N/A -   "
29.15, 1084.91, 0.0486959, NaN, NaN, NaN, 0.0335714, "- N/A -   "
29.2, 1087.06, 0.04877087, NaN, NaN, NaN, 0.03601294, "- N/A -   "
29.25, 1089.32, 0.0488514, NaN, NaN, NaN, 0.0372337, "- N/A -   "
29.3, 1091.83, 0.0489375, NaN, NaN, NaN, 0.03601294, "- N/A -   "
29.35, 1094.09, 0.04902355, NaN, NaN, NaN, 0.0347922, "- N/A -   "
29.4, 1096, 0.0490985, NaN, NaN, NaN, 0.0396753, "- N/A -   "
29.45, 1098.15, 0.0491735, NaN, NaN, NaN, 0.04211683, "- N/A -   "
29.5, 1100.41, 0.049254, NaN, NaN, NaN, 0.0433376, "- N/A -   "
29.55, 1102.8, 0.04934288, NaN, NaN, NaN, 0.04089605, "- N/A -   "
29.6, 1105.66, 0.0494428, NaN, NaN, NaN, 0.0335714, "- N/A -   "
29.65, 1108.28, 0.04953725, NaN, NaN, NaN, 0.0299091, "- N/A -   "
29.7, 1110.55, 0.0496206, NaN, NaN, NaN, 0.0286883, "- N/A -   "
29.75, 1112.58, 0.04969553, NaN, NaN, NaN, 0.0323506, "- N/A -   "
29.8, 1114.72, 0.0497705, NaN, NaN, NaN, 0.03601294, "- N/A -   "
29.85, 1116.99, 0.0498538, NaN, NaN, NaN, 0.03601294, "- N/A -   "
29.9, 1119.61, 0.0499482, NaN, NaN, NaN, 0.0323506, "- N/A -   "
29.95, 1121.76, 0.0500287, NaN, NaN, NaN, 0.0323506, "- N/A -   "
30, 1123.785, 0.0501037, NaN, NaN, NaN, 0.03601294, "- N/A -   "
30.05, 1125.93, 0.05017868, NaN, NaN, NaN, 0.0396753, "- N/A -   "
30.1, 1127.96, 0.0502537, NaN, NaN, NaN, 0.0433376, "- N/A -   "
30.15, 1130.46, 0.0503425, NaN, NaN, NaN, 0.04089605, "- N/A -   "
30.2, 1132.61, 0.050423, NaN, NaN, NaN, 0.04211683, "- N/A -   "
30.25, 1134.99, 0.0505091, NaN, NaN, NaN, 0.04089605, "- N/A -   "
30.3, 1137.62, 0.0506035, NaN, NaN, NaN, 0.0372337, "- N/A -   "
30.35, 1140, 0.05068683, NaN, NaN, NaN, 0.03601294, "- N/A -   "
30.4, 1142.27, 0.05077013, NaN, NaN, NaN, 0.03601294, "- N/A -   "
30.45, 1144.89, 0.05086454, NaN, NaN, NaN, 0.0323506, "- N/A -   "
30.5, 1147.16, 0.0509451, NaN, NaN, NaN, 0.0323506, "- N/A -   "
30.55, 1149.07, 0.05102, NaN, NaN, NaN, 0.03601294, "- N/A -   "
30.6, 1151.45, 0.05110334, NaN, NaN, NaN, 0.03601294, "- N/A -   "
30.65, 1153.96, 0.0511922, NaN, NaN, NaN, 0.0347922, "- N/A -   "
30.7, 1156.22, 0.05128105, NaN, NaN, NaN, 0.0323506, "- N/A -   "
30.75, 1158.25, 0.051356, NaN, NaN, NaN, 0.03601294, "- N/A -   "
30.8, 1160.28, 0.051431, NaN, NaN, NaN, 0.04089605, "- N/A -   "
30.85, 1162.54, 0.0515115, NaN, NaN, NaN, 0.04089605, "- N/A -   "
30.9, 1164.69, 0.05159205, NaN, NaN, NaN, 0.0433376, "- N/A -   "
30.95, 1167.07, 0.05167535, NaN, NaN, NaN, 0.0433376, "- N/A -   "
31, 1169.7, 0.05177254, NaN, NaN, NaN, 0.0372337, "- N/A -   "
31.05, 1172.44, 0.0518669, NaN, NaN, NaN, 0.03112983, "- N/A -   "
31.1, 1174.71, 0.05195025, NaN, NaN, NaN, 0.03112983, "- N/A -   "
31.15, 1176.85, 0.0520308, NaN, NaN, NaN, 0.0323506, "- N/A -   "
31.2, 1179.118, 0.0521113, NaN, NaN, NaN, 0.0335714, "- N/A -   "
31.25, 1181.38, 0.05219738, NaN, NaN, NaN, 0.0335714, "- N/A -   "
31.3, 1184.01, 0.0522862, NaN, NaN, NaN, 0.0299091, "- N/A -   "
31.35, 1186.03, 0.052364, NaN, NaN, NaN, 0.0323506, "- N/A -   "
31.4, 1188.18, 0.052439, NaN, NaN, NaN, 0.03601294, "- N/A -   "
31.45, 1189.97, 0.0525112, NaN, NaN, NaN, 0.04211683, "- N/A -   "
31.5, 1192, 0.0525861, NaN, NaN, NaN, 0.0445584, "- N/A -   "
31.55, 1194.263, 0.05266665, NaN, NaN, NaN, 0.04577916, "- N/A -   "
31.6, 1196.65, 0.0527555, NaN, NaN, NaN, 0.0433376, "- N/A -   "
31.65, 1199.15, 0.05284436, NaN, NaN, NaN, 0.04211683, "- N/A -   "
31.7, 1201.66, 0.052936, NaN, NaN, NaN, 0.0372337, "- N/A -   "
31.75, 1204.04, 0.0530221, NaN, NaN, NaN, 0.0372337, "- N/A -   "
31.8, 1206.43, 0.05311093, NaN, NaN, NaN, 0.0335714, "- N/A -   "
31.85, 1209.05, 0.05320534, NaN, NaN, NaN, 0.0286883, "- N/A -   "
31.9, 1211.2, 0.05328587, NaN, NaN, NaN, 0.03112983, "- N/A -   "
31.95, 1213.34, 0.0533636, NaN, NaN, NaN, 0.0335714, "- N/A -   "
32, 1215.61, 0.0534469, NaN, NaN, NaN, 0.0335714, "- N/A -   "
32.05, 1217.76, 0.05352189, NaN, NaN, NaN, 0.03601294, "- N/A -   "
32.1, 1219.54, 0.0535941, NaN, NaN, NaN, 0.04089605, "- N/A -   "
32.15, 1221.57, 0.0536663, NaN, NaN, NaN, 0.04577916, "- N/A -   "
32.2, 1223.84, 0.05375236, NaN, NaN, NaN, 0.0445584, "- N/A -   "
32.25, 1226.34, 0.0538412, NaN, NaN, NaN, 0.04211683, "- N/A -   "
32.3, 1228.85, 0.05393285, NaN, NaN, NaN, 0.0396753, "- N/A -   "
32.35, 1231.11, 0.05401893, NaN, NaN, NaN, 0.0384545, "- N/A -   "
32.4, 1233.85, 0.0541161, NaN, NaN, NaN, 0.0323506, "- N/A -   "
32.45, 1236.48, 0.05420775, NaN, NaN, NaN, 0.0274675, "- N/A -   "
32.5, 1238.62, 0.05429105, NaN, NaN, NaN, 0.0286883, "- N/A -   "
32.55, 1240.89, 0.0543716, NaN, NaN, NaN, 0.0299091, "- N/A -   "
32.6, 1242.92, 0.05444377, NaN, NaN, NaN, 0.0335714, "- N/A -   "
32.65, 1245.06, 0.0545243, NaN, NaN, NaN, 0.03601294, "- N/A -   "
32.7, 1247.57, 0.05461038, NaN, NaN, NaN, 0.0347922, "- N/A -   "
32.75, 1249.48, 0.05468813, NaN, NaN, NaN, 0.03601294, "- N/A -   "
32.8, 1251.5, 0.0547631, NaN, NaN, NaN, 0.0396753, "- N/A -   "
32.85, 1253.53, 0.05483807, NaN, NaN, NaN, 0.0445584, "- N/A -   "
32.9, 1255.68, 0.054913, NaN, NaN, NaN, 0.04699994, "- N/A -   "
32.95, 1257.94, 0.0550019, NaN, NaN, NaN, 0.0445584, "- N/A -   "
33, 1260.92, 0.05509909, NaN, NaN, NaN, 0.0384545, "- N/A -   "
33.05, 1263.31, 0.0551907, NaN, NaN, NaN, 0.03601294, "- N/A -   "
33.1, 1265.81, 0.05527957, NaN, NaN, NaN, 0.0323506, "- N/A -   "
33.15, 1267.72, 0.0553573, NaN, NaN, NaN, 0.0347922, "- N/A -   "
33.2, 1269.87, 0.0554378, NaN, NaN, NaN, 0.0372337, "- N/A -   "
33.25, 1272.373, 0.0555239, NaN, NaN, NaN, 0.0347922, "- N/A -   "
33.3, 1274.758, 0.0556128, NaN, NaN, NaN, 0.0335714, "- N/A -   "
33.35, 1277.02, 0.05569331, NaN, NaN, NaN, 0.0335714, "- N/A -   "
33.4, 1279.05, 0.05577106, NaN, NaN, NaN, 0.03601294, "- N/A -   "
33.45, 1281.2, 0.0558516, NaN, NaN, NaN, 0.0372337, "- N/A -   "
33.5, 1283.11, 0.0559238, NaN, NaN, NaN, 0.04211683, "- N/A -   "
33.55, 1285.37, 0.05600986, NaN, NaN, NaN, 0.04089605, "- N/A -   "
33.6, 1287.76, 0.0560932, NaN, NaN, NaN, 0.04089605, "- N/A -   "
33.65, 1290.14, 0.0561792, NaN, NaN, NaN, 0.0396753, "- N/A -   "
33.7, 1292.65, 0.05627088, NaN, NaN, NaN, 0.03601294, "- N/A -   "
33.75, 1295.15, 0.0563597, NaN, NaN, NaN, 0.0335714, "- N/A -   "
33.8, 1297.3, 0.056443, NaN, NaN, NaN, 0.0335714, "- N/A -   "
33.85, 1299.56, 0.0565263, NaN, NaN, NaN, 0.0335714, "- N/A -   "
33.9, 1301.95, 0.0566124, NaN, NaN, NaN, 0.0323506, "- N/A -   "
33.95, 1304.33, 0.05670127, NaN, NaN, NaN, 0.03112983, "- N/A -   "
34, 1306.6, 0.0567846, NaN, NaN, NaN, 0.03112983, "- N/A -   "
34.05, 1308.74, 0.05686232, NaN, NaN, NaN, 0.0323506, "- N/A -   "
34.1, 1311.01, 0.0569484, NaN, NaN, NaN, 0.0323506, "- N/A -   "
34.15, 1313.16, 0.0570234, NaN, NaN, NaN, 0.0347922, "- N/A -   "
34.2, 1314.946, 0.05709557, NaN, NaN, NaN, 0.0396753, "- N/A -   "
34.25, 1316.854, 0.0571678, NaN, NaN, NaN, 0.0445584, "- N/A -   "
34.3, 1319.12, 0.0572511, NaN, NaN, NaN, 0.0445584, "- N/A -   "
34.35, 1321.39, 0.05733437, NaN, NaN, NaN, 0.04577916, "- N/A -   "
34.4, 1324.01, 0.05742323, NaN, NaN, NaN, 0.04211683, "- N/A -   "
34.45, 1326.51, 0.0575176, NaN, NaN, NaN, 0.0372337, "- N/A -   "
34.5, 1329.02, 0.0576093, NaN, NaN, NaN, 0.0335714, "- N/A -   "
34.55, 1331.522, 0.0576981, NaN, NaN, NaN, 0.0323506, "- N/A -   "
34.6, 1333.67, 0.0577787, NaN, NaN, NaN, 0.0323506, "- N/A -   "
34.65, 1336.05, 0.05786751, NaN, NaN, NaN, 0.0299091, "- N/A -   "
34.7, 1338.44, 0.05795081, NaN, NaN, NaN, 0.0299091, "- N/A -   "
34.75, 1340.59, 0.05803134, NaN, NaN, NaN, 0.03112983, "- N/A -   "
34.8, 1342.73, 0.05811186, NaN, NaN, NaN, 0.0335714, "- N/A -   "
34.85, 1344.52, 0.0581841, NaN, NaN, NaN, 0.0372337, "- N/A -   "
34.9, 1346.43, 0.0582535, NaN, NaN, NaN, 0.0433376, "- N/A -   "
34.95, 1348.46, 0.05832845, NaN, NaN, NaN, 0.04699994, "- N/A -   "
35, 1350.84, 0.0584145, NaN, NaN, NaN, 0.04577916, "- N/A -   "
35.05, 1353.35, 0.05850616, NaN, NaN, NaN, 0.04211683, "- N/A -   "
35.1, 1356.088, 0.05860612, NaN, NaN, NaN, 0.03601294, "- N/A -   "
35.15, 1358.71, 0.0586978, NaN, NaN, NaN, 0.03112983, "- N/A -   "
35.2, 1360.98, 0.0587838, NaN, NaN, NaN, 0.0299091, "- N/A -   "
35.25, 1363.36, 0.05886714, NaN, NaN, NaN, 0.0299091, "- N/A -   "
35.3, 1365.628, 0.05895322, NaN, NaN, NaN, 0.03112983, "- N/A -   "
35.35, 1368.01, 0.05903652, NaN, NaN, NaN, 0.0299091, "- N/A -   "
35.4, 1370.28, 0.05911982, NaN, NaN, NaN, 0.03112983, "- N/A -   "
35.45, 1372.19, 0.059192, NaN, NaN, NaN, 0.0347922, "- N/A -   "
35.5, 1374.095, 0.0592642, NaN, NaN, NaN, 0.0396753, "- N/A -   "
35.55, 1376.12, 0.059342, NaN, NaN, NaN, 0.04211683, "- N/A -   "
35.6, 1378.27, 0.05941971, NaN, NaN, NaN, 0.0445584, "- N/A -   "
35.65, 1380.42, 0.05950024, NaN, NaN, NaN, 0.04577916, "- N/A -   "
35.7, 1382.68, 0.05958354, NaN, NaN, NaN, 0.04577916, "- N/A -   "
35.75, 1385.19, 0.0596724, NaN, NaN, NaN, 0.0433376, "- N/A -   "
35.8, 1387.81, 0.0597668, NaN, NaN, NaN, 0.0384545, "- N/A -   "
35.85, 1390.55, 0.0598668, NaN, NaN, NaN, 0.03112983, "- N/A -   "
35.9, 1392.82, 0.0599528, NaN, NaN, NaN, 0.0299091, "- N/A -   "
35.95, 1395.08, 0.0600362, NaN, NaN, NaN, 0.0299091, "- N/A -   "
36, 1397.23, 0.0601139, NaN, NaN, NaN, 0.0323506, "- N/A -   "
36.05, 1399.26, 0.06018887, NaN, NaN, NaN, 0.03601294, "- N/A -   "
36.1, 1401.4, 0.06026662, NaN, NaN, NaN, 0.0384545, "- N/A -   "
36.15, 1403.67, 0.0603527, NaN, NaN, NaN, 0.0384545, "- N/A -   "
36.2, 1406.05, 0.060436, NaN, NaN, NaN, 0.0384545, "- N/A -   "
36.25, 1408.08, 0.060511, NaN, NaN, NaN, 0.04211683, "- N/A -   "
36.3, 1409.99, 0.06058595, NaN, NaN, NaN, 0.0445584, "- N/A -   "
36.35, 1412.37, 0.06066925, NaN, NaN, NaN, 0.04577916, "- N/A -   "
36.4, 1414.88, 0.06076644, NaN, NaN, NaN, 0.0396753, "- N/A -   "
36.45, 1417.622, 0.0608608, NaN, NaN, NaN, 0.0335714, "- N/A -   "
36.5, 1420.13, 0.0609553, NaN, NaN, NaN, 0.0299091, "- N/A -   "
36.55, 1422.15, 0.061033, NaN, NaN, NaN, 0.03112983, "- N/A -   "
36.6, 1424.3, 0.0611108, NaN, NaN, NaN, 0.0347922, "- N/A -   "
36.65, 1426.33, 0.0611885, NaN, NaN, NaN, 0.0372337, "- N/A -   "
36.7, 1428.71, 0.0612718, NaN, NaN, NaN, 0.0372337, "- N/A -   "
36.75, 1431.34, 0.0613634, NaN, NaN, NaN, 0.0323506, "- N/A -   "
36.8, 1433.36, 0.061444, NaN, NaN, NaN, 0.0347922, "- N/A -   "
36.85, 1435.39, 0.0615189, NaN, NaN, NaN, 0.0384545, "- N/A -   "
36.9, 1437.3, 0.06159391, NaN, NaN, NaN, 0.04089605, "- N/A -   "
36.95, 1439.45, 0.06167444, NaN, NaN, NaN, 0.04211683, "- N/A -   "
37, 1441.83, 0.0617605, NaN, NaN, NaN, 0.04089605, "- N/A -   "
37.05, 1443.98, 0.061841, NaN, NaN, NaN, 0.04211683, "- N/A -   "
37.1, 1446.48, 0.0619299, NaN, NaN, NaN, 0.04089605, "- N/A -   "
37.15, 1448.866, 0.062016, NaN, NaN, NaN, 0.0384545, "- N/A -   "
37.2, 1451.13, 0.0621021, NaN, NaN, NaN, 0.0372337, "- N/A -   "
37.25, 1453.4, 0.06218536, NaN, NaN, NaN, 0.0372337, "- N/A -   "
37.3, 1455.78, 0.062277, NaN, NaN, NaN, 0.0347922, "- N/A -   "
37.35, 1458.17, 0.0623603, NaN, NaN, NaN, 0.0335714, "- N/A -   "
37.4, 1460.31, 0.0624436, NaN, NaN, NaN, 0.0335714, "- N/A -   "
37.45, 1462.58, 0.0625241, NaN, NaN, NaN, 0.0347922, "- N/A -   "
37.5, 1464.73, 0.0626102, NaN, NaN, NaN, 0.0335714, "- N/A -   "
37.55, 1466.87, 0.06268795, NaN, NaN, NaN, 0.03601294, "- N/A -   "
37.6, 1469.14, 0.0627685, NaN, NaN, NaN, 0.0372337, "- N/A -   "
37.65, 1471.4, 0.06285178, NaN, NaN, NaN, 0.0372337, "- N/A -   "
37.7, 1473.31, 0.0629295, NaN, NaN, NaN, 0.0396753, "- N/A -   "
37.75, 1475.58, 0.06301005, NaN, NaN, NaN, 0.04089605, "- N/A -   "
37.8, 1477.72, 0.06309058, NaN, NaN, NaN, 0.04211683, "- N/A -   "
37.85, 1480.47, 0.06318776, NaN, NaN, NaN, 0.0372337, "- N/A -   "
37.9, 1482.972, 0.06328218, NaN, NaN, NaN, 0.0323506, "- N/A -   "
37.95, 1485.12, 0.0633627, NaN, NaN, NaN, 0.0335714, "- N/A -   "
38, 1487.265, 0.06344045, NaN, NaN, NaN, 0.0347922, "- N/A -   "
38.05, 1489.53, 0.0635265, NaN, NaN, NaN, 0.0335714, "- N/A -   "
38.1, 1492.04, 0.06361816, NaN, NaN, NaN, 0.0299091, "- N/A -   "
38.15, 1494.3, 0.06370424, NaN, NaN, NaN, 0.0299091, "- N/A -   "
38.2, 1496.45, 0.06378199, NaN, NaN, NaN, 0.03112983, "- N/A -   "
38.25, 1498.24, 0.06385419, NaN, NaN, NaN, 0.03601294, "- N/A -   "
38.3, 1500.14, 0.0639236, NaN, NaN, NaN, 0.04211683, "- N/A -   "
38.35, 1501.93, 0.0639958, NaN, NaN, NaN, 0.0482207, "- N/A -   "
38.4, 1504.32, 0.0640791, NaN, NaN, NaN, 0.04699994, "- N/A -   "
38.45, 1506.82, 0.06417351, NaN, NaN, NaN, 0.04211683, "- N/A -   "
38.5, 1509.45, 0.0642679, NaN, NaN, NaN, 0.0372337, "- N/A -   "
38.55, 1511.95, 0.06435955, NaN, NaN, NaN, 0.0335714, "- N/A -   "
38.6, 1514.216, 0.06444286, NaN, NaN, NaN, 0.0347922, "- N/A -   "
38.65, 1516.48, 0.06453171, NaN, NaN, NaN, 0.0323506, "- N/A -   "
38.7, 1518.99, 0.06462057, NaN, NaN, NaN, 0.0286883, "- N/A -   "
38.75, 1521.37, 0.0647066, NaN, NaN, NaN, 0.0274675, "- N/A -   "
38.8, 1523.4, 0.06478717, NaN, NaN, NaN, 0.0286883, "- N/A -   "
38.85, 1525.43, 0.06486215, NaN, NaN, NaN, 0.0323506, "- N/A -   "
38.9, 1527.21, 0.0649316, NaN, NaN, NaN, 0.0384545, "- N/A -   "
38.95, 1529.12, 0.06500376, NaN, NaN, NaN, 0.0433376, "- N/A -   "
39, 1531.51, 0.0650926, NaN, NaN, NaN, 0.04211683, "- N/A -   "
39.05, 1534.01, 0.06517869, NaN, NaN, NaN, 0.0396753, "- N/A -   "
39.1, 1536.16, 0.065262, NaN, NaN, NaN, 0.0396753, "- N/A -   "
39.15, 1538.42, 0.0653453, NaN, NaN, NaN, 0.0396753, "- N/A -   "
39.2, 1540.69, 0.06543416, NaN, NaN, NaN, 0.0384545, "- N/A -   "
39.25, 1543.552, 0.0655341, NaN, NaN, NaN, 0.03112983, "- N/A -   "
39.3, 1545.937, 0.0656202, NaN, NaN, NaN, 0.0286883, "- N/A -   "
39.35, 1547.85, 0.0657007, NaN, NaN, NaN, 0.03112983, "- N/A -   "
39.4, 1550.111, 0.06577848, NaN, NaN, NaN, 0.0335714, "- N/A -   "
39.45, 1552.02, 0.06585067, NaN, NaN, NaN, 0.0384545, "- N/A -   "
39.5, 1554.05, 0.0659284, NaN, NaN, NaN, 0.04089605, "- N/A -   "
39.55, 1556.55, 0.06601727, NaN, NaN, NaN, 0.0372337, "- N/A -   "
39.6, 1559.05, 0.06610613, NaN, NaN, NaN, 0.0347922, "- N/A -   "
39.65, 1560.96, 0.06617832, NaN, NaN, NaN, 0.04089605, "- N/A -   "
39.7, 1562.87, 0.0662533, NaN, NaN, NaN, 0.0433376, "- N/A -   "
39.75, 1565.14, 0.06633382, NaN, NaN, NaN, 0.0445584, "- N/A -   "
39.8, 1567.64, 0.06642546, NaN, NaN, NaN, 0.04089605, "- N/A -   "
39.85, 1570.503, 0.06652542, NaN, NaN, NaN, 0.0347922, "- N/A -   "
39.9, 1573.01, 0.06661983, NaN, NaN, NaN, 0.0299091, "- N/A -   "
39.95, 1575.03, 0.06669758, NaN, NaN, NaN, 0.0323506, "- N/A -   "
40, 1576.82, 0.06676977, NaN, NaN, NaN, 0.0372337, "- N/A -   "
40.05, 1579.21, 0.0668531, NaN, NaN, NaN, 0.0372337, "- N/A -   "
40.1, 1581.59, 0.06694471, NaN, NaN, NaN, 0.0347922, "- N/A -   "
40.15, 1583.98, 0.06703357, NaN, NaN, NaN, 0.03112983, "- N/A -   "
40.2, 1586.24, 0.06711409, NaN, NaN, NaN, 0.0323506, "- N/A -   "
40.25, 1588.27, 0.06718906, NaN, NaN, NaN, 0.03601294, "- N/A -   "
40.3, 1589.941, 0.06726126, NaN, NaN, NaN, 0.04089605, "- N/A -   "
40.35, 1592.21, 0.06734179, NaN, NaN, NaN, 0.04211683, "- N/A -   "
40.4, 1594.83, 0.06743342, NaN, NaN, NaN, 0.0384545, "- N/A -   "
40.45, 1597.22, 0.06751394, NaN, NaN, NaN, 0.0396753, "- N/A -   "
40.5, 1599.36, 0.06760002, NaN, NaN, NaN, 0.0384545, "- N/A -   "
40.55, 1601.747, 0.0676861, NaN, NaN, NaN, 0.0372337, "- N/A -   "
40.6, 1604.01, 0.06776941, NaN, NaN, NaN, 0.0372337, "- N/A -   "
40.65, 1606.28, 0.0678583, NaN, NaN, NaN, 0.03601294, "- N/A -   "
40.7, 1608.78, 0.06794434, NaN, NaN, NaN, 0.0335714, "- N/A -   "
40.75, 1610.93, 0.0680276, NaN, NaN, NaN, 0.0335714, "- N/A -   "
40.774, 1612, 0.0680665, NaN, NaN, NaN, 0.0347922, "- N/A -   "