File: 2_Tensile_Data/Hamel_ForceTest_Bolt2_Test1.csv
Time, Load (lb), Position (in), AxialStrain (in), TransverseStrain (in), Auxiliary (), Control Out (V), Stress (psi)
0.0,1.17947,0.0, NaN, NaN, NaN,0.4315449," ""- N/A -   """
0.00999999,1.41537,0.000166606, NaN, NaN, NaN,0.4315449," ""- N/A -   """
0.02,1.65126,0.000327658, NaN, NaN, NaN,0.433986," ""- N/A -   """
0.03,1.65126,0.0004942621, NaN, NaN, NaN,0.433986," ""- N/A -   """
0.04,2.005107,0.00066642, NaN, NaN, NaN,0.4315449," ""- N/A -   """
0.05,2.12305,0.000835802, NaN, NaN, NaN,0.4303241," ""- N/A -   """
0.06,2.476897,0.001016292, NaN, NaN, NaN,0.4303241," ""- N/A -   """
0.07,2.712792,0.00117457, NaN, NaN, NaN,0.4303241," ""- N/A -   """
0.08,3.06663,0.00133284, NaN, NaN, NaN,0.435207," ""- N/A -   """
0.09,3.42048,0.00149389, NaN, NaN, NaN,0.436428," ""- N/A -   """
0.1,3.774319,0.0016605, NaN, NaN, NaN,0.433986," ""- N/A -   """
0.11,4.12816,0.00183266, NaN, NaN, NaN,0.4315449," ""- N/A -   """
0.12,4.59995,0.002004815, NaN, NaN, NaN,0.429103," ""- N/A -   """
0.13,5.071741,0.00217697, NaN, NaN, NaN,0.4266618," ""- N/A -   """
0.14,5.54353,0.00233803, NaN, NaN, NaN,0.429103," ""- N/A -   """
0.15,6.01532,0.00249908, NaN, NaN, NaN,0.4315449," ""- N/A -   """
0.16,6.369163,0.00266291, NaN, NaN, NaN,0.432766," ""- N/A -   """
0.17,6.84095,0.00283784, NaN, NaN, NaN,0.429103," ""- N/A -   """
0.18,7.1948,0.00300445, NaN, NaN, NaN,0.429103," ""- N/A -   """
0.19,7.784533,0.00317105, NaN, NaN, NaN,0.429103," ""- N/A -   """
0.2,8.138375,0.003337656, NaN, NaN, NaN,0.429103," ""- N/A -   """
0.21,8.492218,0.003498708, NaN, NaN, NaN,0.4315449," ""- N/A -   """
0.22,8.846061,0.00365976, NaN, NaN, NaN,0.433986," ""- N/A -   """
0.23,9.199903,0.00382636, NaN, NaN, NaN,0.433986," ""- N/A -   """
0.24,9.671693,0.00399297, NaN, NaN, NaN,0.433986," ""- N/A -   """
0.25,10.1435,0.004162352, NaN, NaN, NaN,0.432766," ""- N/A -   """
0.26,10.4973,0.00433451, NaN, NaN, NaN,0.4303241," ""- N/A -   """
0.27,10.9691,0.004515, NaN, NaN, NaN,0.427883," ""- N/A -   """
0.28,11.4409,0.004678827, NaN, NaN, NaN,0.429103," ""- N/A -   """
0.29,11.9127,0.004834325, NaN, NaN, NaN,0.4303241," ""- N/A -   """
0.3,12.3845,0.004995377, NaN, NaN, NaN,0.432766," ""- N/A -   """
0.31,12.9742,0.00516198, NaN, NaN, NaN,0.432766," ""- N/A -   """
0.32,13.3281,0.00533136, NaN, NaN, NaN,0.4315449," ""- N/A -   """
0.33,13.9178,0.005503523, NaN, NaN, NaN,0.429103," ""- N/A -   """
0.34,14.3896,0.005667351, NaN, NaN, NaN,0.4315449," ""- N/A -   """
0.35,14.9793,0.00582563, NaN, NaN, NaN,0.435207," ""- N/A -   """
0.36,15.4511,0.00599223, NaN, NaN, NaN,0.43887," ""- N/A -   """
0.37,16.1588,0.00616161, NaN, NaN, NaN,0.437649," ""- N/A -   """
0.38,16.86649,0.00632544, NaN, NaN, NaN,0.435207," ""- N/A -   """
0.39,17.6921,0.00650315, NaN, NaN, NaN,0.4303241," ""- N/A -   """
0.4,18.2819,0.00667254, NaN, NaN, NaN,0.429103," ""- N/A -   """
0.41,18.9895,0.00683914, NaN, NaN, NaN,0.429103," ""- N/A -   """
0.42,19.6972,0.007000192, NaN, NaN, NaN,0.4315449," ""- N/A -   """
0.43,20.4049,0.007161244, NaN, NaN, NaN,0.433986," ""- N/A -   """
0.439,21.1126,0.00732229, NaN, NaN, NaN,0.436428," ""- N/A -   """
0.449,21.93823,0.00749723, NaN, NaN, NaN,0.432766," ""- N/A -   """
0.46,22.7639,0.00767217, NaN, NaN, NaN,0.432766," ""- N/A -   """
0.47,23.5895,0.007841548, NaN, NaN, NaN,0.4315449," ""- N/A -   """
0.48,24.1792,0.007997046, NaN, NaN, NaN,0.432766," ""- N/A -   """
0.49,25.0049,0.008158097, NaN, NaN, NaN,0.435207," ""- N/A -   """
0.5,25.8305,0.00831637, NaN, NaN, NaN,0.43887," ""- N/A -   """
0.51,26.5382,0.008485755, NaN, NaN, NaN,0.437649," ""- N/A -   """
0.52,27.4818,0.008657913, NaN, NaN, NaN,0.435207," ""- N/A -   """
0.53,28.1894,0.008830071, NaN, NaN, NaN,0.432766," ""- N/A -   """
0.54,29.0151,0.008999453, NaN, NaN, NaN,0.4315449," ""- N/A -   """
0.55,29.84071,0.009168835, NaN, NaN, NaN,0.4303241," ""- N/A -   """
0.56,30.6663,0.009329887, NaN, NaN, NaN,0.432766," ""- N/A -   """
0.57,31.492,0.009496491, NaN, NaN, NaN,0.432766," ""- N/A -   """
0.58,32.1997,0.00966032, NaN, NaN, NaN,0.433986," ""- N/A -   """
0.59,33.02529,0.009832479, NaN, NaN, NaN,0.4303241," ""- N/A -   """
0.6,33.9689,0.009999084, NaN, NaN, NaN,0.4303241," ""- N/A -   """
0.61,34.7945,0.0101657, NaN, NaN, NaN,0.4303241," ""- N/A -   """
0.62,35.7381,0.0103323, NaN, NaN, NaN,0.4303241," ""- N/A -   """
0.63,36.44577,0.01049057, NaN, NaN, NaN,0.433986," ""- N/A -   """
0.64,37.2714,0.0106627, NaN, NaN, NaN,0.436428," ""- N/A -   """
0.65,38.215,0.0108266, NaN, NaN, NaN,0.432766," ""- N/A -   """
0.66,39.04061,0.0109959, NaN, NaN, NaN,0.4315449," ""- N/A -   """
0.67,39.8662,0.0111709, NaN, NaN, NaN,0.427883," ""- N/A -   """
0.68,40.8098,0.0113403, NaN, NaN, NaN,0.4266618," ""- N/A -   """
0.69,41.7534,0.0115013, NaN, NaN, NaN,0.429103," ""- N/A -   """
0.7,42.579,0.0116624, NaN, NaN, NaN,0.4315449," ""- N/A -   """
0.71,43.40467,0.0118234, NaN, NaN, NaN,0.433986," ""- N/A -   """
0.72,44.2303,0.01199, NaN, NaN, NaN,0.433986," ""- N/A -   """
0.73,45.05593,0.0121594, NaN, NaN, NaN,0.432766," ""- N/A -   """
0.74,46.11746,0.0123316, NaN, NaN, NaN,0.4303241," ""- N/A -   """
0.75,47.061,0.0125065, NaN, NaN, NaN,0.4303241," ""- N/A -   """
0.76,47.8867,0.0126675, NaN, NaN, NaN,0.432766," ""- N/A -   """
0.77,48.83025,0.0128203, NaN, NaN, NaN,0.435207," ""- N/A -   """
0.78,49.6559,0.01298687, NaN, NaN, NaN,0.435207," ""- N/A -   """
0.79,50.5995,0.0131563, NaN, NaN, NaN,0.433986," ""- N/A -   """
0.8,51.543,0.0133284, NaN, NaN, NaN,0.4315449," ""- N/A -   """
0.81,52.48662,0.0135033, NaN, NaN, NaN,0.427883," ""- N/A -   """
0.82,53.4302,0.01366995, NaN, NaN, NaN,0.427883," ""- N/A -   """
0.83,54.2558,0.0138227, NaN, NaN, NaN,0.433986," ""- N/A -   """
0.84,55.1994,0.0139893, NaN, NaN, NaN,0.433986," ""- N/A -   """
0.85,56.02505,0.014167, NaN, NaN, NaN,0.432766," ""- N/A -   """
0.86,56.9686,0.0143308, NaN, NaN, NaN,0.433986," ""- N/A -   """
0.87,57.79426,0.0144919, NaN, NaN, NaN,0.432766," ""- N/A -   """
0.88,58.6199,0.01466125, NaN, NaN, NaN,0.4315449," ""- N/A -   """
0.89,59.5635,0.0148251, NaN, NaN, NaN,0.432766," ""- N/A -   """
0.9,60.3891,0.0149889, NaN, NaN, NaN,0.433986," ""- N/A -   """
0.91,61.09679,0.0151555, NaN, NaN, NaN,0.433986," ""- N/A -   """
0.92,62.1583,0.01531934, NaN, NaN, NaN,0.435207," ""- N/A -   """
0.93,62.98395,0.0154943, NaN, NaN, NaN,0.435207," ""- N/A -   """
0.94,63.92753,0.0156692, NaN, NaN, NaN,0.432766," ""- N/A -   """
0.95,64.75317,0.015833, NaN, NaN, NaN,0.429103," ""- N/A -   """
0.96,65.5788,0.0159996, NaN, NaN, NaN,0.429103," ""- N/A -   """
0.97,66.40443,0.01615792, NaN, NaN, NaN,0.432766," ""- N/A -   """
0.98,67.23006,0.0163217, NaN, NaN, NaN,0.433986," ""- N/A -   """
0.99,68.17364,0.0164856, NaN, NaN, NaN,0.435207," ""- N/A -   """
1.0,68.9993,0.0166577, NaN, NaN, NaN,0.432766," ""- N/A -   """
1.01,69.8249,0.0168271, NaN, NaN, NaN,0.4315449," ""- N/A -   """
1.02,70.7685,0.0169937, NaN, NaN, NaN,0.4315449," ""- N/A -   """
1.03,71.59412,0.0171603, NaN, NaN, NaN,0.4315449," ""- N/A -   """
1.04,72.41975,0.0173186, NaN, NaN, NaN,0.435207," ""- N/A -   """
1.05,73.2454,0.01748243, NaN, NaN, NaN,0.436428," ""- N/A -   """
1.06,74.189,0.017649, NaN, NaN, NaN,0.436428," ""- N/A -   """
1.07,75.13254,0.0178267, NaN, NaN, NaN,0.4315449," ""- N/A -   """
1.08,75.95817,0.0179989, NaN, NaN, NaN,0.429103," ""- N/A -   """
1.09,76.90175,0.01816829, NaN, NaN, NaN,0.427883," ""- N/A -   """
1.1,77.6094,0.0183293, NaN, NaN, NaN,0.4303241," ""- N/A -   """
1.11,78.4351,0.0184848, NaN, NaN, NaN,0.435207," ""- N/A -   """
1.12,79.37865,0.0186487, NaN, NaN, NaN,0.436428," ""- N/A -   """
1.13,80.32223,0.0188292, NaN, NaN, NaN,0.433986," ""- N/A -   """
1.14,81.26581,0.0189985, NaN, NaN, NaN,0.432766," ""- N/A -   """
1.15,82.09144,0.0191707, NaN, NaN, NaN,0.4303241," ""- N/A -   """
1.16,83.15297,0.0193345, NaN, NaN, NaN,0.4315449," ""- N/A -   """
1.17,84.09654,0.0194872, NaN, NaN, NaN,0.433986," ""- N/A -   """
1.18,85.15807,0.0196483, NaN, NaN, NaN,0.436428," ""- N/A -   """
1.19,86.33755,0.0198205, NaN, NaN, NaN,0.433986," ""- N/A -   """
1.2,87.51702,0.0199898, NaN, NaN, NaN,0.432766," ""- N/A -   """
1.21,88.6965,0.02015922, NaN, NaN, NaN,0.4315449," ""- N/A -   """
1.22,89.99392,0.0203369, NaN, NaN, NaN,0.4303241," ""- N/A -   """
1.23,91.05545,0.0205035, NaN, NaN, NaN,0.4303241," ""- N/A -   """
1.24,92.35287,0.02066181, NaN, NaN, NaN,0.435207," ""- N/A -   """
1.25,93.53234,0.02081731, NaN, NaN, NaN,0.436428," ""- N/A -   """
1.26,94.7118,0.0209895, NaN, NaN, NaN,0.433986," ""- N/A -   """
1.27,96.12719,0.0211533, NaN, NaN, NaN,0.435207," ""- N/A -   """
1.28,97.30666,0.0213255, NaN, NaN, NaN,0.432766," ""- N/A -   """
1.29,98.4861,0.0214976, NaN, NaN, NaN,0.4303241," ""- N/A -   """
1.3,99.54767,0.021667, NaN, NaN, NaN,0.429103," ""- N/A -   """
1.31,100.845,0.0218225, NaN, NaN, NaN,0.433986," ""- N/A -   """
1.32,102.025,0.0219891, NaN, NaN, NaN,0.437649," ""- N/A -   """
1.33,103.322,0.0221557, NaN, NaN, NaN,0.437649," ""- N/A -   """
1.34,104.619,0.0223195, NaN, NaN, NaN,0.435207," ""- N/A -   """
1.35,105.917,0.02249169, NaN, NaN, NaN,0.432766," ""- N/A -   """
1.36,107.922,0.0226694, NaN, NaN, NaN,0.427883," ""- N/A -   """
1.37,110.399,0.0228332, NaN, NaN, NaN,0.429103," ""- N/A -   """
1.38,112.876,0.0229915, NaN, NaN, NaN,0.432766," ""- N/A -   """
1.39,115.353,0.0231526, NaN, NaN, NaN,0.435207," ""- N/A -   """
1.4,118.301,0.0233164, NaN, NaN, NaN,0.436428," ""- N/A -   """
1.41,121.368,0.0234969, NaN, NaN, NaN,0.436428," ""- N/A -   """
1.42,124.67,0.0236663, NaN, NaN, NaN,0.4315449," ""- N/A -   """
1.43,127.737,0.0238356, NaN, NaN, NaN,0.4303241," ""- N/A -   """
1.44,130.804,0.02398836, NaN, NaN, NaN,0.432766," ""- N/A -   """
1.45,133.752,0.0241466, NaN, NaN, NaN,0.436428," ""- N/A -   """
1.46,136.819,0.0243105, NaN, NaN, NaN,0.437649," ""- N/A -   """
1.47,140.1216,0.0244798, NaN, NaN, NaN,0.436428," ""- N/A -   """
1.48,143.542,0.0246492, NaN, NaN, NaN,0.435207," ""- N/A -   """
1.49,146.8446,0.0248214, NaN, NaN, NaN,0.432766," ""- N/A -   """
1.5,150.265,0.02498799, NaN, NaN, NaN,0.432766," ""- N/A -   """
1.51,153.568,0.0251574, NaN, NaN, NaN,0.435207," ""- N/A -   """
1.52,156.87,0.0253184, NaN, NaN, NaN,0.436428," ""- N/A -   """
1.53,160.2906,0.0254795, NaN, NaN, NaN,0.436428," ""- N/A -   """
1.54,163.711,0.0256461, NaN, NaN, NaN,0.436428," ""- N/A -   """
1.55,167.25,0.0258155, NaN, NaN, NaN,0.435207," ""- N/A -   """
1.56,170.906,0.0259848, NaN, NaN, NaN,0.433986," ""- N/A -   """
1.57,174.562,0.0261514, NaN, NaN, NaN,0.433986," ""- N/A -   """
1.58,177.983,0.0263153, NaN, NaN, NaN,0.435207," ""- N/A -   """
1.59,181.521,0.0264791, NaN, NaN, NaN,0.436428," ""- N/A -   """
1.6,185.413,0.0266429, NaN, NaN, NaN,0.437649," ""- N/A -   """
1.61,189.0698,0.0268151, NaN, NaN, NaN,0.43887," ""- N/A -   """
1.62,192.962,0.0269845, NaN, NaN, NaN,0.437649," ""- N/A -   """
1.63,196.736,0.02715108, NaN, NaN, NaN,0.433986," ""- N/A -   """
1.64,200.7466,0.0273177, NaN, NaN, NaN,0.433986," ""- N/A -   """
1.65,204.403,0.0274815, NaN, NaN, NaN,0.435207," ""- N/A -   """
1.66,207.941,0.0276426, NaN, NaN, NaN,0.437649," ""- N/A -   """
1.67,211.9516,0.0278064, NaN, NaN, NaN,0.43887," ""- N/A -   """
1.68,215.962,0.0279702, NaN, NaN, NaN,0.44009," ""- N/A -   """
1.69,220.09,0.02814238, NaN, NaN, NaN,0.437649," ""- N/A -   """
1.7,224.218,0.02831454, NaN, NaN, NaN,0.436428," ""- N/A -   """
1.71,228.228,0.0284839, NaN, NaN, NaN,0.435207," ""- N/A -   """
1.72,232.003,0.0286422, NaN, NaN, NaN,0.43887," ""- N/A -   """
1.73,235.777,0.0288032, NaN, NaN, NaN,0.441311," ""- N/A -   """
1.74,239.551,0.0289726, NaN, NaN, NaN,0.44009," ""- N/A -   """
1.75,243.7961,0.0291392, NaN, NaN, NaN,0.44009," ""- N/A -   """
1.76,247.92,0.02931417, NaN, NaN, NaN,0.436428," ""- N/A -   """
1.77,251.926,0.0294836, NaN, NaN, NaN,0.435207," ""- N/A -   """
1.78,255.579,0.0296446, NaN, NaN, NaN,0.437649," ""- N/A -   """
1.79,259.231,0.02980288, NaN, NaN, NaN,0.441311," ""- N/A -   """
1.8,263.2374,0.0299695, NaN, NaN, NaN,0.441311," ""- N/A -   """
1.81,267.126,0.0301361, NaN, NaN, NaN,0.441311," ""- N/A -   """
1.82,271.014,0.0303055, NaN, NaN, NaN,0.44009," ""- N/A -   """
1.83,275.138,0.0304749, NaN, NaN, NaN,0.43887," ""- N/A -   """
1.84,279.0261,0.03064701, NaN, NaN, NaN,0.436428," ""- N/A -   """
1.85,282.914,0.0308081, NaN, NaN, NaN,0.43887," ""- N/A -   """
1.86,286.567,0.0309691, NaN, NaN, NaN,0.441311," ""- N/A -   """
1.87,290.4552,0.0311329, NaN, NaN, NaN,0.442532," ""- N/A -   """
1.88,294.4613,0.03130232, NaN, NaN, NaN,0.441311," ""- N/A -   """
1.89,298.467,0.0314717, NaN, NaN, NaN,0.44009," ""- N/A -   """
1.9,302.356,0.03164942, NaN, NaN, NaN,0.437649," ""- N/A -   """
1.91,306.362,0.03181602, NaN, NaN, NaN,0.436428," ""- N/A -   """
1.92,309.7787,0.0319743, NaN, NaN, NaN,0.437649," ""- N/A -   """
1.93,313.549,0.0321326, NaN, NaN, NaN,0.441311," ""- N/A -   """
1.94,317.4374,0.0322992, NaN, NaN, NaN,0.441311," ""- N/A -   """
1.95,321.443,0.0324658, NaN, NaN, NaN,0.441311," ""- N/A -   """
1.96,325.0961,0.0326379, NaN, NaN, NaN,0.43887," ""- N/A -   """
1.97,329.102,0.03280177, NaN, NaN, NaN,0.44009," ""- N/A -   """
1.98,332.873,0.03297115, NaN, NaN, NaN,0.43887," ""- N/A -   """
1.99,336.8787,0.0331405, NaN, NaN, NaN,0.44009," ""- N/A -   """
2.0,340.6491,0.0333044, NaN, NaN, NaN,0.442532," ""- N/A -   """
2.01,344.4196,0.033471, NaN, NaN, NaN,0.442532," ""- N/A -   """
2.02,348.3078,0.033632, NaN, NaN, NaN,0.441311," ""- N/A -   """
2.03,352.078,0.03380418, NaN, NaN, NaN,0.43887," ""- N/A -   """
2.04,356.202,0.03397356, NaN, NaN, NaN,0.437649," ""- N/A -   """
2.05,359.9726,0.0341457, NaN, NaN, NaN,0.435207," ""- N/A -   """
2.06,363.3896,0.03430677, NaN, NaN, NaN,0.437649," ""- N/A -   """
2.07,367.042,0.0344706, NaN, NaN, NaN,0.43887," ""- N/A -   """
2.08,371.1661,0.03463998, NaN, NaN, NaN,0.441311," ""- N/A -   """
2.09,375.172,0.0348038, NaN, NaN, NaN,0.43887," ""- N/A -   """
2.1,379.296,0.03497874, NaN, NaN, NaN,0.435207," ""- N/A -   """
2.11,383.184,0.0351481, NaN, NaN, NaN,0.433986," ""- N/A -   """
2.12,386.955,0.035312, NaN, NaN, NaN,0.435207," ""- N/A -   """
2.13,390.725,0.03547023, NaN, NaN, NaN,0.43887," ""- N/A -   """
2.14,394.613,0.03563128, NaN, NaN, NaN,0.441311," ""- N/A -   """
2.15,398.62,0.0357979, NaN, NaN, NaN,0.442532," ""- N/A -   """
2.16,402.626,0.03597, NaN, NaN, NaN,0.44009," ""- N/A -   """
2.17,406.75,0.0361422, NaN, NaN, NaN,0.437649," ""- N/A -   """
2.18,410.9913,0.0363199, NaN, NaN, NaN,0.436428," ""- N/A -   """
2.19,414.88,0.0364837, NaN, NaN, NaN,0.437649," ""- N/A -   """
2.2,418.65,0.03664202, NaN, NaN, NaN,0.441311," ""- N/A -   """
2.21,422.7739,0.0368114, NaN, NaN, NaN,0.44009," ""- N/A -   """
2.22,426.78,0.0369725, NaN, NaN, NaN,0.43887," ""- N/A -   """
2.23,430.786,0.0371391, NaN, NaN, NaN,0.43887," ""- N/A -   """
2.24,434.91,0.0373057, NaN, NaN, NaN,0.43887," ""- N/A -   """
2.25,438.9161,0.0374723, NaN, NaN, NaN,0.43887," ""- N/A -   """
2.26,442.687,0.0376389, NaN, NaN, NaN,0.43887," ""- N/A -   """
2.27,446.928,0.0378027, NaN, NaN, NaN,0.44009," ""- N/A -   """
2.28,451.17,0.0379693, NaN, NaN, NaN,0.44009," ""- N/A -   """
2.29,455.1761,0.0381359, NaN, NaN, NaN,0.44009," ""- N/A -   """
2.3,459.182,0.03830807, NaN, NaN, NaN,0.437649," ""- N/A -   """
2.31,463.188,0.0384775, NaN, NaN, NaN,0.436428," ""- N/A -   """
2.32,467.548,0.0386468, NaN, NaN, NaN,0.435207," ""- N/A -   """
2.33,471.5539,0.03881344, NaN, NaN, NaN,0.435207," ""- N/A -   """
2.34,475.442,0.0389717, NaN, NaN, NaN,0.43887," ""- N/A -   """
2.35,479.2126,0.03913554, NaN, NaN, NaN,0.44009," ""- N/A -   """
2.36,483.337,0.03930492, NaN, NaN, NaN,0.43887," ""- N/A -   """
2.37,487.578,0.0394715, NaN, NaN, NaN,0.43887," ""- N/A -   """
2.38,491.82,0.0396465, NaN, NaN, NaN,0.435207," ""- N/A -   """
2.39,495.708,0.0398186, NaN, NaN, NaN,0.436428," ""- N/A -   """
2.4,499.361,0.0399713, NaN, NaN, NaN,0.43887," ""- N/A -   """
2.41,503.2491,0.0401324, NaN, NaN, NaN,0.441311," ""- N/A -   """
2.42,507.373,0.040299, NaN, NaN, NaN,0.441311," ""- N/A -   """
2.43,511.379,0.04046561, NaN, NaN, NaN,0.441311," ""- N/A -   """
2.44,515.511,0.0406405, NaN, NaN, NaN,0.437649," ""- N/A -   """
2.45,519.414,0.0408127, NaN, NaN, NaN,0.435207," ""- N/A -   """
2.46,523.3173,0.04097375, NaN, NaN, NaN,0.437649," ""- N/A -   """
2.47,527.2206,0.0411348, NaN, NaN, NaN,0.44009," ""- N/A -   """
2.48,530.887,0.0412931, NaN, NaN, NaN,0.443753," ""- N/A -   """
2.49,534.672,0.0414625, NaN, NaN, NaN,0.442532," ""- N/A -   """
2.5,538.8121,0.0416318, NaN, NaN, NaN,0.441311," ""- N/A -   """
2.51,542.8336,0.041804, NaN, NaN, NaN,0.43887," ""- N/A -   """
2.52,546.9735,0.04197338, NaN, NaN, NaN,0.437649," ""- N/A -   """
2.53,550.6402,0.04214, NaN, NaN, NaN,0.437649," ""- N/A -   """
2.54,554.3069,0.04229826, NaN, NaN, NaN,0.441311," ""- N/A -   """
2.55,558.092,0.0424621, NaN, NaN, NaN,0.442532," ""- N/A -   """
2.56,562.2317,0.0426343, NaN, NaN, NaN,0.44009," ""- N/A -   """
2.57,566.135,0.042812, NaN, NaN, NaN,0.43887," ""- N/A -   """
2.58,570.038,0.04298412, NaN, NaN, NaN,0.436428," ""- N/A -   """
2.59,574.06,0.04314517, NaN, NaN, NaN,0.435207," ""- N/A -   """
2.6,577.8448,0.04331178, NaN, NaN, NaN,0.437649," ""- N/A -   """
2.61,581.63,0.0434756, NaN, NaN, NaN,0.43887," ""- N/A -   """
2.62,585.4148,0.0436422, NaN, NaN, NaN,0.43887," ""- N/A -   """
2.63,589.2,0.0438005, NaN, NaN, NaN,0.442532," ""- N/A -   """
2.64,592.9847,0.0439671, NaN, NaN, NaN,0.442532," ""- N/A -   """
2.65,597.0063,0.04413369, NaN, NaN, NaN,0.442532," ""- N/A -   """
2.66,601.2644,0.0443086, NaN, NaN, NaN,0.43887," ""- N/A -   """
2.67,605.168,0.0444752, NaN, NaN, NaN,0.43887," ""- N/A -   """
2.68,608.5978,0.0446363, NaN, NaN, NaN,0.441311," ""- N/A -   """
2.69,612.6193,0.0447973, NaN, NaN, NaN,0.443753," ""- N/A -   """
2.7,616.286,0.0449695, NaN, NaN, NaN,0.441311," ""- N/A -   """
2.71,620.4259,0.0451361, NaN, NaN, NaN,0.441311," ""- N/A -   """
2.72,624.447,0.04530826, NaN, NaN, NaN,0.43887," ""- N/A -   """
2.73,628.469,0.0454776, NaN, NaN, NaN,0.437649," ""- N/A -   """
2.74,632.1357,0.04564425, NaN, NaN, NaN,0.437649," ""- N/A -   """
2.75,635.921,0.04580252, NaN, NaN, NaN,0.441311," ""- N/A -   """
2.76,639.7056,0.0459747, NaN, NaN, NaN,0.442532," ""- N/A -   """
2.77,643.727,0.04613851, NaN, NaN, NaN,0.443753," ""- N/A -   """
2.78,647.7487,0.0463107, NaN, NaN, NaN,0.441311," ""- N/A -   """
2.79,651.7703,0.0464773, NaN, NaN, NaN,0.437649," ""- N/A -   """
2.8,655.6735,0.0466411, NaN, NaN, NaN,0.43887," ""- N/A -   """
2.81,659.222,0.04680215, NaN, NaN, NaN,0.441311," ""- N/A -   """
2.82,662.8887,0.04696043, NaN, NaN, NaN,0.444973," ""- N/A -   """
2.83,666.9103,0.04712981, NaN, NaN, NaN,0.443753," ""- N/A -   """
2.84,671.168,0.0472992, NaN, NaN, NaN,0.442532," ""- N/A -   """
2.85,675.426,0.0474769, NaN, NaN, NaN,0.437649," ""- N/A -   """
2.86,679.566,0.0476463, NaN, NaN, NaN,0.436428," ""- N/A -   """
2.87,683.47,0.04781289, NaN, NaN, NaN,0.436428," ""- N/A -   """
2.88,687.1363,0.04797394, NaN, NaN, NaN,0.43887," ""- N/A -   """
2.89,691.2761,0.0481406, NaN, NaN, NaN,0.43887," ""- N/A -   """
2.9,695.1794,0.04830993, NaN, NaN, NaN,0.437649," ""- N/A -   """
2.91,699.3192,0.0484765, NaN, NaN, NaN,0.437649," ""- N/A -   """
2.92,703.341,0.0486459, NaN, NaN, NaN,0.436428," ""- N/A -   """
2.93,707.3623,0.0488125, NaN, NaN, NaN,0.436428," ""- N/A -   """
2.94,711.384,0.04897357, NaN, NaN, NaN,0.43887," ""- N/A -   """
2.95,715.4054,0.04914018, NaN, NaN, NaN,0.43887," ""- N/A -   """
2.96,719.309,0.04930401, NaN, NaN, NaN,0.44009," ""- N/A -   """
2.97,723.0936,0.04947061, NaN, NaN, NaN,0.44009," ""- N/A -   """
2.98,727.233,0.04963444, NaN, NaN, NaN,0.441311," ""- N/A -   """
2.99,731.373,0.0498066, NaN, NaN, NaN,0.43887," ""- N/A -   """
3.0,735.5131,0.04997598, NaN, NaN, NaN,0.437649," ""- N/A -   """
3.01,739.416,0.0501398, NaN, NaN, NaN,0.43887," ""- N/A -   """
3.02,743.0831,0.0502953, NaN, NaN, NaN,0.443753," ""- N/A -   """
3.03,746.868,0.0504619, NaN, NaN, NaN,0.443753," ""- N/A -   """
3.04,751.363,0.05062852, NaN, NaN, NaN,0.443753," ""- N/A -   """
3.05,755.6209,0.0507979, NaN, NaN, NaN,0.443753," ""- N/A -   """
3.06,759.7607,0.0509701, NaN, NaN, NaN,0.441311," ""- N/A -   """
3.07,763.7823,0.0511394, NaN, NaN, NaN,0.44009," ""- N/A -   """
3.08,767.5672,0.0512949, NaN, NaN, NaN,0.444973," ""- N/A -   """
3.09,771.4705,0.0514532, NaN, NaN, NaN,0.4486358," ""- N/A -   """
3.1,775.3738,0.0516143, NaN, NaN, NaN,0.451077," ""- N/A -   """
3.11,779.5136,0.0517836, NaN, NaN, NaN,0.449857," ""- N/A -   """
3.12,783.7717,0.05195858, NaN, NaN, NaN,0.446194," ""- N/A -   """
3.13,788.1481,0.05213351, NaN, NaN, NaN,0.442532," ""- N/A -   """
3.14,792.643,0.05230568, NaN, NaN, NaN,0.44009," ""- N/A -   """
3.15,796.664,0.0524723, NaN, NaN, NaN,0.44009," ""- N/A -   """
3.16,800.804,0.0526389, NaN, NaN, NaN,0.44009," ""- N/A -   """
3.17,804.707,0.05279994, NaN, NaN, NaN,0.442532," ""- N/A -   """
3.18,808.8472,0.05296932, NaN, NaN, NaN,0.441311," ""- N/A -   """
3.19,812.869,0.0531387, NaN, NaN, NaN,0.44009," ""- N/A -   """
3.2,817.2452,0.05330808, NaN, NaN, NaN,0.43887," ""- N/A -   """
3.21,821.6216,0.05347469, NaN, NaN, NaN,0.43887," ""- N/A -   """
3.22,825.4066,0.05363574, NaN, NaN, NaN,0.441311," ""- N/A -   """
3.23,829.4281,0.0537996, NaN, NaN, NaN,0.442532," ""- N/A -   """
3.24,833.805,0.0539801, NaN, NaN, NaN,0.44009," ""- N/A -   """
3.25,838.0626,0.05414944, NaN, NaN, NaN,0.43887," ""- N/A -   """
3.26,842.321,0.0543216, NaN, NaN, NaN,0.436428," ""- N/A -   """
3.27,846.579,0.0544882, NaN, NaN, NaN,0.432766," ""- N/A -   """
3.28,850.7187,0.0546493, NaN, NaN, NaN,0.435207," ""- N/A -   """
3.29,854.622,0.0548131, NaN, NaN, NaN,0.436428," ""- N/A -   """
3.3,858.7618,0.0549797, NaN, NaN, NaN,0.436428," ""- N/A -   """
3.31,863.0199,0.0551463, NaN, NaN, NaN,0.436428," ""- N/A -   """
3.32,867.1597,0.0553129, NaN, NaN, NaN,0.436428," ""- N/A -   """
3.33,871.4178,0.05548228, NaN, NaN, NaN,0.435207," ""- N/A -   """
3.34,875.794,0.0556544, NaN, NaN, NaN,0.435207," ""- N/A -   """
3.35,879.9341,0.055821, NaN, NaN, NaN,0.436428," ""- N/A -   """
3.36,883.719,0.05597376, NaN, NaN, NaN,0.43887," ""- N/A -   """
3.37,887.9772,0.05613204, NaN, NaN, NaN,0.442532," ""- N/A -   """
3.38,891.9987,0.0563042, NaN, NaN, NaN,0.44009," ""- N/A -   """
3.39,896.3751,0.05647358, NaN, NaN, NaN,0.43887," ""- N/A -   """
3.4,900.751,0.05664851, NaN, NaN, NaN,0.435207," ""- N/A -   """
3.41,905.246,0.0568179, NaN, NaN, NaN,0.433986," ""- N/A -   """
3.42,909.1494,0.0569817, NaN, NaN, NaN,0.435207," ""- N/A -   """
3.429,913.289,0.05714555, NaN, NaN, NaN,0.44009," ""- N/A -   """
3.44,917.547,0.0573066, NaN, NaN, NaN,0.43887," ""- N/A -   """
3.449,921.569,0.0574704, NaN, NaN, NaN,0.44009," ""- N/A -   """
3.46,925.9453,0.05763981, NaN, NaN, NaN,0.43887," ""- N/A -   """
3.469,930.3217,0.0578175, NaN, NaN, NaN,0.433986," ""- N/A -   """
3.48,934.6981,0.0579814, NaN, NaN, NaN,0.435207," ""- N/A -   """
3.489,938.7196,0.0581424, NaN, NaN, NaN,0.437649," ""- N/A -   """
3.5,942.7412,0.0582979, NaN, NaN, NaN,0.442532," ""- N/A -   """
3.509,946.6445,0.05846451, NaN, NaN, NaN,0.443753," ""- N/A -   """
3.52,951.0209,0.0586339, NaN, NaN, NaN,0.442532," ""- N/A -   """
3.53,955.7521,0.0588144, NaN, NaN, NaN,0.44009," ""- N/A -   """
3.54,960.1284,0.0589865, NaN, NaN, NaN,0.437649," ""- N/A -   """
3.55,964.3866,0.0591476, NaN, NaN, NaN,0.436428," ""- N/A -   """
3.56,968.4081,0.0593031, NaN, NaN, NaN,0.441311," ""- N/A -   """
3.57,972.6662,0.0594697, NaN, NaN, NaN,0.441311," ""- N/A -   """
3.58,976.9244,0.0596391, NaN, NaN, NaN,0.44009," ""- N/A -   """
3.59,981.419,0.05980291, NaN, NaN, NaN,0.441311," ""- N/A -   """
3.6,985.441,0.05997229, NaN, NaN, NaN,0.44009," ""- N/A -   """
3.61,989.817,0.0601361, NaN, NaN, NaN,0.441311," ""- N/A -   """
3.62,994.1933,0.0603027, NaN, NaN, NaN,0.441311," ""- N/A -   """
3.63,998.57,0.0604693, NaN, NaN, NaN,0.441311," ""- N/A -   """
3.64,1002.83,0.0606332, NaN, NaN, NaN,0.442532," ""- N/A -   """
3.65,1006.85,0.06080253, NaN, NaN, NaN,0.441311," ""- N/A -   """
3.66,1011.34,0.06097192, NaN, NaN, NaN,0.44009," ""- N/A -   """
3.67,1015.86,0.0611441, NaN, NaN, NaN,0.437649," ""- N/A -   """
3.68,1020.51,0.0613162, NaN, NaN, NaN,0.435207," ""- N/A -   """
3.69,1024.93,0.0614856, NaN, NaN, NaN,0.433986," ""- N/A -   """
3.7,1028.98,0.06164667, NaN, NaN, NaN,0.436428," ""- N/A -   """
3.71,1033.39,0.0618077, NaN, NaN, NaN,0.43887," ""- N/A -   """
3.72,1037.8,0.0619743, NaN, NaN, NaN,0.43887," ""- N/A -   """
3.73,1042.1,0.06214093, NaN, NaN, NaN,0.43887," ""- N/A -   """
3.74,1046.629,0.0623186, NaN, NaN, NaN,0.437649," ""- N/A -   """
3.75,1051.16,0.06248247, NaN, NaN, NaN,0.435207," ""- N/A -   """
3.76,1055.22,0.0626463, NaN, NaN, NaN,0.436428," ""- N/A -   """
3.77,1059.63,0.06280179, NaN, NaN, NaN,0.441311," ""- N/A -   """
3.78,1063.92,0.06296563, NaN, NaN, NaN,0.442532," ""- N/A -   """
3.79,1067.98,0.0631267, NaN, NaN, NaN,0.444973," ""- N/A -   """
3.8,1072.626,0.06330161, NaN, NaN, NaN,0.441311," ""- N/A -   """
3.81,1077.28,0.06348488, NaN, NaN, NaN,0.437649," ""- N/A -   """
3.82,1081.93,0.0636487, NaN, NaN, NaN,0.435207," ""- N/A -   """
3.83,1086.22,0.06380976, NaN, NaN, NaN,0.437649," ""- N/A -   """
3.84,1090.28,0.06396526, NaN, NaN, NaN,0.442532," ""- N/A -   """
3.85,1094.57,0.06413186, NaN, NaN, NaN,0.442532," ""- N/A -   """
3.86,1099.1,0.064304, NaN, NaN, NaN,0.44009," ""- N/A -   """
3.87,1103.75,0.06447062, NaN, NaN, NaN,0.44009," ""- N/A -   """
3.88,1108.4,0.06464001, NaN, NaN, NaN,0.43887," ""- N/A -   """
3.89,1112.58,0.06480939, NaN, NaN, NaN,0.437649," ""- N/A -   """
3.9,1116.87,0.06497044, NaN, NaN, NaN,0.44009," ""- N/A -   """
3.91,1121.52,0.06513149, NaN, NaN, NaN,0.442532," ""- N/A -   """
3.92,1126.05,0.0653009, NaN, NaN, NaN,0.441311," ""- N/A -   """
3.93,1130.22,0.06546748, NaN, NaN, NaN,0.441311," ""- N/A -   """
3.94,1134.88,0.06563409, NaN, NaN, NaN,0.441311," ""- N/A -   """
3.95,1139.41,0.06580625, NaN, NaN, NaN,0.43887," ""- N/A -   """
3.96,1143.7,0.06597563, NaN, NaN, NaN,0.43887," ""- N/A -   """
3.97,1148.11,0.06613667, NaN, NaN, NaN,0.441311," ""- N/A -   """
3.98,1152.52,0.06629773, NaN, NaN, NaN,0.443753," ""- N/A -   """
3.99,1156.94,0.06646711, NaN, NaN, NaN,0.442532," ""- N/A -   """
4.0,1161.47,0.06663371, NaN, NaN, NaN,0.442532," ""- N/A -   """
4.01,1166.12,0.06680588, NaN, NaN, NaN,0.44009," ""- N/A -   """
4.02,1170.53,0.06697248, NaN, NaN, NaN,0.44009," ""- N/A -   """
4.03,1174.94,0.06713908, NaN, NaN, NaN,0.44009," ""- N/A -   """
4.04,1179.24,0.06730014, NaN, NaN, NaN,0.442532," ""- N/A -   """
4.05,1183.53,0.067464, NaN, NaN, NaN,0.443753," ""- N/A -   """
4.06,1187.94,0.06763612, NaN, NaN, NaN,0.441311," ""- N/A -   """
4.07,1192.47,0.06780551, NaN, NaN, NaN,0.44009," ""- N/A -   """
4.08,1197.01,0.06797767, NaN, NaN, NaN,0.437649," ""- N/A -   """
4.09,1201.66,0.0681526, NaN, NaN, NaN,0.433986," ""- N/A -   """
4.1,1206.19,0.0683192, NaN, NaN, NaN,0.437649," ""- N/A -   """
4.11,1210.48,0.0684747, NaN, NaN, NaN,0.43887," ""- N/A -   """
4.12,1214.77,0.0686358, NaN, NaN, NaN,0.441311," ""- N/A -   """
4.13,1219.07,0.0688024, NaN, NaN, NaN,0.441311," ""- N/A -   """
4.14,1223.48,0.06897452, NaN, NaN, NaN,0.43887," ""- N/A -   """
4.15,1228.37,0.06914946, NaN, NaN, NaN,0.435207," ""- N/A -   """
4.16,1232.9,0.06931884, NaN, NaN, NaN,0.433986," ""- N/A -   """
4.17,1237.19,0.06947711, NaN, NaN, NaN,0.437649," ""- N/A -   """
4.18,1241.25,0.0696354, NaN, NaN, NaN,0.441311," ""- N/A -   """
4.19,1245.54,0.06980199, NaN, NaN, NaN,0.441311," ""- N/A -   """
4.2,1250.67,0.0699742, NaN, NaN, NaN,0.43887," ""- N/A -   """
4.21,1255.32,0.07014631, NaN, NaN, NaN,0.436428," ""- N/A -   """
4.22,1259.73,0.07032125, NaN, NaN, NaN,0.432766," ""- N/A -   """
4.23,1264.26,0.07048507, NaN, NaN, NaN,0.433986," ""- N/A -   """
4.24,1268.44,0.0706489, NaN, NaN, NaN,0.435207," ""- N/A -   """
4.25,1272.73,0.07080995, NaN, NaN, NaN,0.437649," ""- N/A -   """
4.26,1277.26,0.07097656, NaN, NaN, NaN,0.437649," ""- N/A -   """
4.27,1281.56,0.0711404, NaN, NaN, NaN,0.43887," ""- N/A -   """
4.28,1286.087,0.07130699, NaN, NaN, NaN,0.43887," ""- N/A -   """
4.29,1290.62,0.0714736, NaN, NaN, NaN,0.43887," ""- N/A -   """
4.3,1295.39,0.07164298, NaN, NaN, NaN,0.437649," ""- N/A -   """
4.31,1299.44,0.07180958, NaN, NaN, NaN,0.441311," ""- N/A -   """
4.32,1303.97,0.07196786, NaN, NaN, NaN,0.441311," ""- N/A -   """
4.33,1308.27,0.0721345, NaN, NaN, NaN,0.441311," ""- N/A -   """
4.34,1312.92,0.07230107, NaN, NaN, NaN,0.441311," ""- N/A -   """
4.35,1317.57,0.07247322, NaN, NaN, NaN,0.43887," ""- N/A -   """
4.36,1321.98,0.07264816, NaN, NaN, NaN,0.435207," ""- N/A -   """
4.37,1326.51,0.07281477, NaN, NaN, NaN,0.435207," ""- N/A -   """
4.38,1330.81,0.07297859, NaN, NaN, NaN,0.436428," ""- N/A -   """
4.39,1335.22,0.0731424, NaN, NaN, NaN,0.441311," ""- N/A -   """
4.4,1339.63,0.0733035, NaN, NaN, NaN,0.443753," ""- N/A -   """
4.41,1344.04,0.07347286, NaN, NaN, NaN,0.443753," ""- N/A -   """
4.42,1348.46,0.07363947, NaN, NaN, NaN,0.44009," ""- N/A -   """
4.43,1353.226,0.07380885, NaN, NaN, NaN,0.43887," ""- N/A -   """
4.44,1357.64,0.07397545, NaN, NaN, NaN,0.43887," ""- N/A -   """
4.45,1361.812,0.07413095, NaN, NaN, NaN,0.443753," ""- N/A -   """
4.46,1366.11,0.074292, NaN, NaN, NaN,0.446194," ""- N/A -   """
4.47,1370.52,0.07446416, NaN, NaN, NaN,0.443753," ""- N/A -   """
4.48,1375.41,0.07463909, NaN, NaN, NaN,0.44009," ""- N/A -   """
4.49,1380.296,0.07482236, NaN, NaN, NaN,0.436428," ""- N/A -   """
4.5,1384.95,0.07499451, NaN, NaN, NaN,0.433986," ""- N/A -   """
4.51,1389.24,0.0751472, NaN, NaN, NaN,0.436428," ""- N/A -   """
4.52,1393.18,0.0753027, NaN, NaN, NaN,0.441311," ""- N/A -   """
4.53,1397.47,0.07546101, NaN, NaN, NaN,0.444973," ""- N/A -   """
4.54,1402.24,0.07562762, NaN, NaN, NaN,0.444973," ""- N/A -   """
4.55,1406.77,0.07580256, NaN, NaN, NaN,0.441311," ""- N/A -   """
4.56,1411.54,0.07596916, NaN, NaN, NaN,0.441311," ""- N/A -   """
4.57,1415.95,0.07614131, NaN, NaN, NaN,0.43887," ""- N/A -   """
4.58,1420.36,0.07630237, NaN, NaN, NaN,0.441311," ""- N/A -   """
4.59,1424.78,0.076469, NaN, NaN, NaN,0.444973," ""- N/A -   """
4.6,1429.43,0.07663002, NaN, NaN, NaN,0.443753," ""- N/A -   """
4.61,1433.96,0.07680219, NaN, NaN, NaN,0.441311," ""- N/A -   """
4.62,1438.491,0.07697434, NaN, NaN, NaN,0.43887," ""- N/A -   """
4.63,1443.26,0.0771465, NaN, NaN, NaN,0.436428," ""- N/A -   """
4.64,1447.67,0.0773131, NaN, NaN, NaN,0.436428," ""- N/A -   """
4.65,1451.97,0.07747416, NaN, NaN, NaN,0.43887," ""- N/A -   """
4.66,1456.26,0.0776408, NaN, NaN, NaN,0.43887," ""- N/A -   """
4.67,1460.55,0.07780459, NaN, NaN, NaN,0.44009," ""- N/A -   """
4.68,1465.08,0.07796842, NaN, NaN, NaN,0.441311," ""- N/A -   """
4.69,1469.62,0.0781378, NaN, NaN, NaN,0.44009," ""- N/A -   """
4.7,1473.91,0.07830718, NaN, NaN, NaN,0.43887," ""- N/A -   """
4.71,1478.32,0.07847101, NaN, NaN, NaN,0.44009," ""- N/A -   """
4.72,1482.73,0.0786376, NaN, NaN, NaN,0.44009," ""- N/A -   """
4.73,1486.91,0.07879867, NaN, NaN, NaN,0.442532," ""- N/A -   """
4.74,1491.32,0.0789681, NaN, NaN, NaN,0.441311," ""- N/A -   """
4.75,1495.73,0.07913466, NaN, NaN, NaN,0.441311," ""- N/A -   """
4.76,1500.025,0.07930959, NaN, NaN, NaN,0.437649," ""- N/A -   """
4.77,1504.91,0.07948452, NaN, NaN, NaN,0.433986," ""- N/A -   """
4.78,1508.969,0.0796511, NaN, NaN, NaN,0.433986," ""- N/A -   """
4.79,1512.55,0.0798122, NaN, NaN, NaN,0.436428," ""- N/A -   """
4.8,1515.41,0.0799677, NaN, NaN, NaN,0.441311," ""- N/A -   """
4.81,-4.717899,0.08018426, NaN, NaN, NaN,0.413233," ""- N/A -   """
4.82,-6.487111,0.08049527, NaN, NaN, NaN,0.319233," ""- N/A -   """
4.83,3.53842,0.0807424, NaN, NaN, NaN,0.2508698," ""- N/A -   """
4.84,-2.12305,0.08093121, NaN, NaN, NaN,0.216688," ""- N/A -   """
4.85,1.06153,0.08108949, NaN, NaN, NaN,0.195935," ""- N/A -   """
4.86,-5.425584,0.0812311, NaN, NaN, NaN,0.183727," ""- N/A -   """
4.87,0.825632,0.08136161, NaN, NaN, NaN,0.1751816," ""- N/A -   """
4.88,-0.589737,0.08148101, NaN, NaN, NaN,0.182506," ""- N/A -   """
4.89,-0.94358,0.08159486, NaN, NaN, NaN,0.194714," ""- N/A -   """
4.9,-0.589737,0.08170593, NaN, NaN, NaN,0.215467," ""- N/A -   """
4.91,-2.241,0.081817, NaN, NaN, NaN,0.242324," ""- N/A -   """
4.92,0.589737,0.08193084, NaN, NaN, NaN,0.265519," ""- N/A -   """
4.93,-2.12305,0.08204469, NaN, NaN, NaN,0.2899347," ""- N/A -   """
4.94,0.235895,0.0821696, NaN, NaN, NaN,0.3106879," ""- N/A -   """
4.95,-1.76921,0.08230571, NaN, NaN, NaN,0.336324," ""- N/A -   """
4.96,-0.825632,0.0824501, NaN, NaN, NaN,0.358298," ""- N/A -   """
4.97,-1.17947,0.08260004, NaN, NaN, NaN,0.377831," ""- N/A -   """
4.98,-1.41537,0.0827555, NaN, NaN, NaN,0.394922," ""- N/A -   """
4.99,-0.825632,0.0829194, NaN, NaN, NaN,0.4083501," ""- N/A -   """
5.0,-1.29742,0.08308042, NaN, NaN, NaN,0.422999," ""- N/A -   """
5.01,-0.94358,0.0832498, NaN, NaN, NaN,0.433986," ""- N/A -   """
5.02,-1.17947,0.08342195, NaN, NaN, NaN,0.443753," ""- N/A -   """
5.03,-1.06153,0.0835997, NaN, NaN, NaN,0.451077," ""- N/A -   """
5.04,-1.17947,0.08378293, NaN, NaN, NaN,0.45596," ""- N/A -   """
5.05,-1.06153,0.0839662, NaN, NaN, NaN,0.460844," ""- N/A -   """
5.06,-1.06153,0.0841578, NaN, NaN, NaN,0.465727," ""- N/A -   """
5.07,-1.17947,0.08433551, NaN, NaN, NaN,0.473051," ""- N/A -   """
5.08,-1.06153,0.0845132, NaN, NaN, NaN,0.480376," ""- N/A -   """
5.09,-1.06153,0.0846965, NaN, NaN, NaN,0.4754929," ""- N/A -   """
5.1,-1.06153,0.0848714, NaN, NaN, NaN,0.468168," ""- N/A -   """
5.11,-1.06153,0.08505746, NaN, NaN, NaN,0.459623," ""- N/A -   """
5.12,-1.17947,0.08524351, NaN, NaN, NaN,0.449857," ""- N/A -   """
5.13,-1.06153,0.08541289, NaN, NaN, NaN,0.4486358," ""- N/A -   """
5.14,-1.17947,0.0855795, NaN, NaN, NaN,0.4486358," ""- N/A -   """
5.15,-1.06153,0.08575165, NaN, NaN, NaN,0.446194," ""- N/A -   """
5.16,-1.17947,0.08593214, NaN, NaN, NaN,0.443753," ""- N/A -   """
5.17,-1.06153,0.0861099, NaN, NaN, NaN,0.43887," ""- N/A -   """
5.18,-1.17947,0.0862848, NaN, NaN, NaN,0.436428," ""- N/A -   """
5.19,-1.17947,0.08644306, NaN, NaN, NaN,0.435207," ""- N/A -   """
5.2,-1.17947,0.08660412, NaN, NaN, NaN,0.437649," ""- N/A -   """
5.21,-1.17947,0.08676794, NaN, NaN, NaN,0.43887," ""- N/A -   """
5.22,-1.06153,0.08693455, NaN, NaN, NaN,0.43887," ""- N/A -   """
5.23,-1.17947,0.08710671, NaN, NaN, NaN,0.436428," ""- N/A -   """
5.24,-1.17947,0.08727609, NaN, NaN, NaN,0.435207," ""- N/A -   """
5.25,-1.17947,0.08744825, NaN, NaN, NaN,0.432766," ""- N/A -   """
5.26,-1.17947,0.08761485, NaN, NaN, NaN,0.432766," ""- N/A -   """
5.27,-1.17947,0.08777313, NaN, NaN, NaN,0.436428," ""- N/A -   """
5.28,-1.06153,0.08793973, NaN, NaN, NaN,0.436428," ""- N/A -   """
5.29,-1.06153,0.08810912, NaN, NaN, NaN,0.435207," ""- N/A -   """
5.3,-1.06153,0.08827572, NaN, NaN, NaN,0.435207," ""- N/A -   """
5.31,-1.17947,0.08844788, NaN, NaN, NaN,0.432766," ""- N/A -   """
5.32,-1.06153,0.08861726, NaN, NaN, NaN,0.432766," ""- N/A -   """
5.33,-1.06153,0.08877832, NaN, NaN, NaN,0.435207," ""- N/A -   """
5.34,-1.17947,0.08893659, NaN, NaN, NaN,0.43887," ""- N/A -   """
5.35,-1.17947,0.08911152, NaN, NaN, NaN,0.43887," ""- N/A -   """
5.36,-1.06153,0.08927535, NaN, NaN, NaN,0.436428," ""- N/A -   """
5.37,-1.17947,0.08945029, NaN, NaN, NaN,0.435207," ""- N/A -   """
5.38,-1.06153,0.0896169, NaN, NaN, NaN,0.432766," ""- N/A -   """
5.39,-1.06153,0.0897835, NaN, NaN, NaN,0.432766," ""- N/A -   """
5.4,-1.06153,0.08995011, NaN, NaN, NaN,0.432766," ""- N/A -   """
5.41,-1.06153,0.09011393, NaN, NaN, NaN,0.433986," ""- N/A -   """
5.42,-1.06153,0.09027776, NaN, NaN, NaN,0.435207," ""- N/A -   """
5.43,-1.17947,0.09044436, NaN, NaN, NaN,0.435207," ""- N/A -   """
5.44,-1.17947,0.0906137, NaN, NaN, NaN,0.433986," ""- N/A -   """
5.45,-1.06153,0.09078868, NaN, NaN, NaN,0.4303241," ""- N/A -   """
5.46,-1.17947,0.09096084, NaN, NaN, NaN,0.427883," ""- N/A -   """
5.47,-1.06153,0.0911219, NaN, NaN, NaN,0.4303241," ""- N/A -   """
5.48,-1.06153,0.09128294, NaN, NaN, NaN,0.432766," ""- N/A -   """
5.49,-1.06153,0.091444, NaN, NaN, NaN,0.435207," ""- N/A -   """
5.5,-1.17947,0.0916134, NaN, NaN, NaN,0.433986," ""- N/A -   """
5.51,-1.17947,0.0917828, NaN, NaN, NaN,0.432766," ""- N/A -   """
5.52,-1.06153,0.0919577, NaN, NaN, NaN,0.429103," ""- N/A -   """
5.53,-1.06153,0.0921243, NaN, NaN, NaN,0.429103," ""- N/A -   """
5.54,-1.06153,0.09228813, NaN, NaN, NaN,0.4303241," ""- N/A -   """
5.55,-1.06153,0.09244641, NaN, NaN, NaN,0.433986," ""- N/A -   """
5.56,-1.06153,0.09261301, NaN, NaN, NaN,0.433986," ""- N/A -   """
5.57,-1.17947,0.0927796, NaN, NaN, NaN,0.433986," ""- N/A -   """
5.58,-1.06153,0.0929545, NaN, NaN, NaN,0.4303241," ""- N/A -   """
5.59,-1.06153,0.09312393, NaN, NaN, NaN,0.429103," ""- N/A -   """
5.6,-1.06153,0.09329054, NaN, NaN, NaN,0.429103," ""- N/A -   """
5.61,-1.06153,0.09344881, NaN, NaN, NaN,0.432766," ""- N/A -   """
5.62,-1.06153,0.09361542, NaN, NaN, NaN,0.432766," ""- N/A -   """
5.63,-1.06153,0.0937848, NaN, NaN, NaN,0.4315449," ""- N/A -   """
5.64,-1.06153,0.0939542, NaN, NaN, NaN,0.432766," ""- N/A -   """
5.65,-1.06153,0.09412356, NaN, NaN, NaN,0.432766," ""- N/A -   """
5.66,-1.06153,0.09428462, NaN, NaN, NaN,0.4315449," ""- N/A -   """
5.67,-1.06153,0.09445955, NaN, NaN, NaN,0.4315449," ""- N/A -   """
5.68,-1.17947,0.09461504, NaN, NaN, NaN,0.432766," ""- N/A -   """
5.69,-1.06153,0.09478165, NaN, NaN, NaN,0.432766," ""- N/A -   """
5.7,-1.17947,0.0949483, NaN, NaN, NaN,0.432766," ""- N/A -   """
5.71,-1.06153,0.09511486, NaN, NaN, NaN,0.432766," ""- N/A -   """
5.72,-1.06153,0.0952842, NaN, NaN, NaN,0.4315449," ""- N/A -   """
5.73,-1.06153,0.09545363, NaN, NaN, NaN,0.4303241," ""- N/A -   """
5.74,-1.06153,0.09562856, NaN, NaN, NaN,0.4303241," ""- N/A -   """
5.75,-1.06153,0.09578961, NaN, NaN, NaN,0.432766," ""- N/A -   """
5.76,-1.06153,0.09595344, NaN, NaN, NaN,0.433986," ""- N/A -   """
5.77,-1.06153,0.0961117, NaN, NaN, NaN,0.435207," ""- N/A -   """
5.78,-1.06153,0.0962811, NaN, NaN, NaN,0.433986," ""- N/A -   """
5.79,-1.06153,0.096456, NaN, NaN, NaN,0.4303241," ""- N/A -   """
5.8,-1.06153,0.09663097, NaN, NaN, NaN,0.4266618," ""- N/A -   """
5.81,-1.06153,0.09679479, NaN, NaN, NaN,0.427883," ""- N/A -   """
5.82,-1.06153,0.09695307, NaN, NaN, NaN,0.4315449," ""- N/A -   """
5.83,-1.06153,0.0971197, NaN, NaN, NaN,0.433986," ""- N/A -   """
5.84,-1.06153,0.09728073, NaN, NaN, NaN,0.437649," ""- N/A -   """
5.85,-1.06153,0.0974501, NaN, NaN, NaN,0.436428," ""- N/A -   """
5.86,-1.06153,0.09761949, NaN, NaN, NaN,0.4315449," ""- N/A -   """
5.87,-1.06153,0.09778609, NaN, NaN, NaN,0.4315449," ""- N/A -   """
5.88,-1.06153,0.09794715, NaN, NaN, NaN,0.433986," ""- N/A -   """
5.89,-1.06153,0.0981082, NaN, NaN, NaN,0.436428," ""- N/A -   """
5.9,-1.06153,0.0982776, NaN, NaN, NaN,0.435207," ""- N/A -   """
5.91,-1.06153,0.0984497, NaN, NaN, NaN,0.432766," ""- N/A -   """
5.92,-0.94358,0.0986191, NaN, NaN, NaN,0.4315449," ""- N/A -   """
5.93,-1.06153,0.09879128, NaN, NaN, NaN,0.429103," ""- N/A -   """
5.94,-0.94358,0.0989551, NaN, NaN, NaN,0.4303241," ""- N/A -   """
5.95,-1.06153,0.09911616, NaN, NaN, NaN,0.432766," ""- N/A -   """
5.96,-1.06153,0.0992744, NaN, NaN, NaN,0.436428," ""- N/A -   """
5.97,-1.06153,0.0994466, NaN, NaN, NaN,0.433986," ""- N/A -   """
5.98,-1.06153,0.0996132, NaN, NaN, NaN,0.433986," ""- N/A -   """
5.99,-1.06153,0.09978536, NaN, NaN, NaN,0.4315449," ""- N/A -   """
6.0,-1.06153,0.09995196, NaN, NaN, NaN,0.4315449," ""- N/A -   """
6.01,-1.06153,0.100119, NaN, NaN, NaN,0.4315449," ""- N/A -   """
6.02,-1.06153,0.100282, NaN, NaN, NaN,0.432766," ""- N/A -   """
6.03,-1.06153,0.100446, NaN, NaN, NaN,0.433986," ""- N/A -   """
6.04,-1.06153,0.100616, NaN, NaN, NaN,0.432766," ""- N/A -   """
6.05,-1.06153,0.100782, NaN, NaN, NaN,0.432766," ""- N/A -   """
[...]
19.79,-0.94358,0.329706, NaN, NaN, NaN,0.429103," ""- N/A -   """
19.8,-1.06153,0.329873, NaN, NaN, NaN,0.429103," ""- N/A -   """
19.81,-0.94358,0.330031, NaN, NaN, NaN,0.432766," ""- N/A -   """
19.82,-0.94358,0.330195, NaN, NaN, NaN,0.435207," ""- N/A -   """
19.83,-1.06153,0.3303585, NaN, NaN, NaN,0.437649," ""- N/A -   """
19.84,-0.94358,0.330539, NaN, NaN, NaN,0.436428," ""- N/A -   """
19.85,-1.06153,0.3307139, NaN, NaN, NaN,0.4315449," ""- N/A -   """
19.86,-0.94358,0.3308861, NaN, NaN, NaN,0.429103," ""- N/A -   """
19.87,-0.94358,0.331042, NaN, NaN, NaN,0.4303241," ""- N/A -   """
19.88,-1.06153,0.3312054, NaN, NaN, NaN,0.433986," ""- N/A -   """
19.89,-0.94358,0.3313609, NaN, NaN, NaN,0.436428," ""- N/A -   """
19.9,-1.06153,0.331527, NaN, NaN, NaN,0.436428," ""- N/A -   """
19.91,-0.94358,0.331697, NaN, NaN, NaN,0.433986," ""- N/A -   """
19.92,-1.06153,0.3318746, NaN, NaN, NaN,0.429103," ""- N/A -   """
19.93,-0.94358,0.332038, NaN, NaN, NaN,0.4303241," ""- N/A -   """
19.94,-1.06153,0.332205, NaN, NaN, NaN,0.4303241," ""- N/A -   """
19.95,-0.94358,0.3323744, NaN, NaN, NaN,0.432766," ""- N/A -   """
19.96,-0.94358,0.332541, NaN, NaN, NaN,0.432766," ""- N/A -   """
19.97,-0.94358,0.3327076, NaN, NaN, NaN,0.4315449," ""- N/A -   """
19.98,-1.06153,0.332874, NaN, NaN, NaN,0.427883," ""- N/A -   """
19.99,-1.06153,0.3330408, NaN, NaN, NaN,0.427883," ""- N/A -   """
20,-1.06153,0.333205, NaN, NaN, NaN,0.429103," ""- N/A -   """
20.01,-0.825632,0.3333685, NaN, NaN, NaN,0.4303241," ""- N/A -   """
20.02,-0.94358,0.333538, NaN, NaN, NaN,0.429103," ""- N/A -   """
20.03,-0.94358,0.333702, NaN, NaN, NaN,0.4303241," ""- N/A -   """
20.04,-0.94358,0.333874, NaN, NaN, NaN,0.4303241," ""- N/A -   """
20.05,-0.94358,0.334035, NaN, NaN, NaN,0.4303241," ""- N/A -   """
20.06,-1.06153,0.3342015, NaN, NaN, NaN,0.4303241," ""- N/A -   """
20.07,-0.94358,0.334376, NaN, NaN, NaN,0.429103," ""- N/A -   """
20.08,-1.06153,0.3345347, NaN, NaN, NaN,0.4303241," ""- N/A -   """
20.09,-0.94358,0.3346958, NaN, NaN, NaN,0.432766," ""- N/A -   """
20.1,-0.94358,0.3348596, NaN, NaN, NaN,0.433986," ""- N/A -   """
20.11,-0.94358,0.3350262, NaN, NaN, NaN,0.432766," ""- N/A -   """
20.12,-1.06153,0.335198, NaN, NaN, NaN,0.429103," ""- N/A -   """
20.13,-0.94358,0.335379, NaN, NaN, NaN,0.4266618," ""- N/A -   """
20.14,-0.94358,0.3355399, NaN, NaN, NaN,0.4266618," ""- N/A -   """
20.15,-1.06153,0.335701, NaN, NaN, NaN,0.4303241," ""- N/A -   """
20.16,-0.94358,0.335865, NaN, NaN, NaN,0.435207," ""- N/A -   """
20.17,-0.94358,0.336026, NaN, NaN, NaN,0.435207," ""- N/A -   """
20.18,-1.06153,0.336192, NaN, NaN, NaN,0.435207," ""- N/A -   """
20.19,-1.06153,0.3363646, NaN, NaN, NaN,0.4315449," ""- N/A -   """
20.2,-0.94358,0.336537, NaN, NaN, NaN,0.427883," ""- N/A -   """
20.21,-0.94358,0.336703, NaN, NaN, NaN,0.427883," ""- N/A -   """
20.22,-0.94358,0.336873, NaN, NaN, NaN,0.4315449," ""- N/A -   """
20.23,-0.94358,0.337028, NaN, NaN, NaN,0.4315449," ""- N/A -   """
20.24,-0.94358,0.337195, NaN, NaN, NaN,0.4303241," ""- N/A -   """
20.25,-1.06153,0.33737, NaN, NaN, NaN,0.4315449," ""- N/A -   """
20.26,-0.94358,0.337539, NaN, NaN, NaN,0.4303241," ""- N/A -   """
20.27,-1.06153,0.337703, NaN, NaN, NaN,0.427883," ""- N/A -   """
20.28,-0.94358,0.337861, NaN, NaN, NaN,0.4315449," ""- N/A -   """
20.29,-0.94358,0.33802, NaN, NaN, NaN,0.437649," ""- N/A -   """
20.3,-0.94358,0.338189, NaN, NaN, NaN,0.436428," ""- N/A -   """
20.31,-0.94358,0.338358, NaN, NaN, NaN,0.435207," ""- N/A -   """
20.32,-1.06153,0.33853, NaN, NaN, NaN,0.4315449," ""- N/A -   """
20.33,-1.06153,0.3387, NaN, NaN, NaN,0.4303241," ""- N/A -   """
20.34,-0.94358,0.338869, NaN, NaN, NaN,0.429103," ""- N/A -   """
20.35,-0.94358,0.3390386, NaN, NaN, NaN,0.4315449," ""- N/A -   """
20.36,-1.06153,0.3392, NaN, NaN, NaN,0.432766," ""- N/A -   """
20.37,-1.06153,0.3393579, NaN, NaN, NaN,0.433986," ""- N/A -   """
20.38,-0.94358,0.339525, NaN, NaN, NaN,0.432766," ""- N/A -   """
20.39,-0.94358,0.339691, NaN, NaN, NaN,0.432766," ""- N/A -   """
20.4,-0.94358,0.339861, NaN, NaN, NaN,0.4315449," ""- N/A -   """
20.41,-1.06153,0.340022, NaN, NaN, NaN,0.432766," ""- N/A -   """
20.42,-1.06153,0.340191, NaN, NaN, NaN,0.4315449," ""- N/A -   """
20.43,-0.94358,0.340352, NaN, NaN, NaN,0.433986," ""- N/A -   """
20.44,-0.94358,0.340519, NaN, NaN, NaN,0.433986," ""- N/A -   """
20.45,-0.94358,0.3406908, NaN, NaN, NaN,0.432766," ""- N/A -   """
20.46,-0.94358,0.340855, NaN, NaN, NaN,0.4315449," ""- N/A -   """
20.47,-0.94358,0.341027, NaN, NaN, NaN,0.429103," ""- N/A -   """
20.48,-0.94358,0.341196, NaN, NaN, NaN,0.427883," ""- N/A -   """
20.49,-0.94358,0.34136, NaN, NaN, NaN,0.429103," ""- N/A -   """
20.5,-1.06153,0.341521, NaN, NaN, NaN,0.4315449," ""- N/A -   """
20.51,-1.06153,0.341685, NaN, NaN, NaN,0.432766," ""- N/A -   """
20.52,-1.06153,0.3418598, NaN, NaN, NaN,0.432766," ""- N/A -   """
20.53,-1.06153,0.342026, NaN, NaN, NaN,0.427883," ""- N/A -   """
20.54,-0.94358,0.342196, NaN, NaN, NaN,0.4266618," ""- N/A -   """
20.55,-1.06153,0.3423596, NaN, NaN, NaN,0.427883," ""- N/A -   """
20.56,-0.94358,0.3425151, NaN, NaN, NaN,0.432766," ""- N/A -   """
20.57,-1.06153,0.342673, NaN, NaN, NaN,0.44009," ""- N/A -   """
20.58,-1.06153,0.342843, NaN, NaN, NaN,0.442532," ""- N/A -   """
20.59,-0.94358,0.3430177, NaN, NaN, NaN,0.43887," ""- N/A -   """
20.6,-0.94358,0.343193, NaN, NaN, NaN,0.435207," ""- N/A -   """
20.61,-0.94358,0.343365, NaN, NaN, NaN,0.4315449," ""- N/A -   """
20.62,-0.94358,0.3435314, NaN, NaN, NaN,0.4315449," ""- N/A -   """
20.63,-0.94358,0.343692, NaN, NaN, NaN,0.433986," ""- N/A -   """
20.64,-0.94358,0.343862, NaN, NaN, NaN,0.435207," ""- N/A -   """
20.65,-0.94358,0.3440312, NaN, NaN, NaN,0.4315449," ""- N/A -   """
20.66,-0.94358,0.3441978, NaN, NaN, NaN,0.4315449," ""- N/A -   """
20.67,-0.94358,0.3443672, NaN, NaN, NaN,0.4303241," ""- N/A -   """
20.68,-1.06153,0.3445338, NaN, NaN, NaN,0.4303241," ""- N/A -   """
20.69,-0.94358,0.344695, NaN, NaN, NaN,0.432766," ""- N/A -   """
20.7,-0.94358,0.344853, NaN, NaN, NaN,0.437649," ""- N/A -   """
20.71,-0.94358,0.345025, NaN, NaN, NaN,0.435207," ""- N/A -   """
20.72,-1.06153,0.3451919, NaN, NaN, NaN,0.435207," ""- N/A -   """
20.73,-0.94358,0.3453613, NaN, NaN, NaN,0.432766," ""- N/A -   """
20.74,-0.94358,0.345539, NaN, NaN, NaN,0.4303241," ""- N/A -   """
20.75,-1.06153,0.3457056, NaN, NaN, NaN,0.427883," ""- N/A -   """
20.76,-0.94358,0.345869, NaN, NaN, NaN,0.429103," ""- N/A -   """
20.77,-1.06153,0.34603, NaN, NaN, NaN,0.4315449," ""- N/A -   """
20.78,-0.94358,0.346189, NaN, NaN, NaN,0.435207," ""- N/A -   """
20.79,-0.94358,0.346355, NaN, NaN, NaN,0.435207," ""- N/A -   """
20.8,-1.06153,0.346525, NaN, NaN, NaN,0.433986," ""- N/A -   """
20.81,-1.06153,0.346702, NaN, NaN, NaN,0.429103," ""- N/A -   """
20.82,-0.94358,0.346869, NaN, NaN, NaN,0.429103," ""- N/A -   """
20.83,-0.94358,0.347033, NaN, NaN, NaN,0.436428," ""- N/A -   """
20.84,-0.94358,0.347186, NaN, NaN, NaN,0.43887," ""- N/A -   """
20.85,-0.94358,0.347349, NaN, NaN, NaN,0.44009," ""- N/A -   """
20.86,-0.94358,0.347516, NaN, NaN, NaN,0.44009," ""- N/A -   """
20.87,-0.94358,0.347694, NaN, NaN, NaN,0.4315449," ""- N/A -   """
20.88,-0.94358,0.347871, NaN, NaN, NaN,0.4266618," ""- N/A -   """
20.89,-1.06153,0.348038, NaN, NaN, NaN,0.4266618," ""- N/A -   """
20.9,-1.06153,0.3481991, NaN, NaN, NaN,0.429103," ""- N/A -   """
20.91,-0.94358,0.34836, NaN, NaN, NaN,0.4315449," ""- N/A -   """
20.92,-1.06153,0.348524, NaN, NaN, NaN,0.433986," ""- N/A -   """
20.93,-1.06153,0.348693, NaN, NaN, NaN,0.432766," ""- N/A -   """
20.94,-1.06153,0.3488655, NaN, NaN, NaN,0.4303241," ""- N/A -   """
20.95,-1.06153,0.349032, NaN, NaN, NaN,0.4303241," ""- N/A -   """
20.96,-1.06153,0.349196, NaN, NaN, NaN,0.4315449," ""- N/A -   """
20.97,-1.06153,0.349354, NaN, NaN, NaN,0.435207," ""- N/A -   """
20.98,-0.94358,0.3495153, NaN, NaN, NaN,0.43887," ""- N/A -   """
20.99,-1.06153,0.349687, NaN, NaN, NaN,0.433986," ""- N/A -   """
21,-0.94358,0.349865, NaN, NaN, NaN,0.432766," ""- N/A -   """
21.01,-0.94358,0.350037, NaN, NaN, NaN,0.4315449," ""- N/A -   """
21.02,-0.94358,0.350209, NaN, NaN, NaN,0.427883," ""- N/A -   """
21.03,-1.06153,0.3503622, NaN, NaN, NaN,0.4303241," ""- N/A -   """
21.04,-0.94358,0.3505288, NaN, NaN, NaN,0.4303241," ""- N/A -   """
21.05,-0.94358,0.350684, NaN, NaN, NaN,0.435207," ""- N/A -   """
21.06,-0.94358,0.3508509, NaN, NaN, NaN,0.435207," ""- N/A -   """
21.07,-0.94358,0.35102, NaN, NaN, NaN,0.433986," ""- N/A -   """
21.08,-0.94358,0.35119, NaN, NaN, NaN,0.432766," ""- N/A -   """
21.09,-0.94358,0.3513563, NaN, NaN, NaN,0.432766," ""- N/A -   """
21.1,-0.94358,0.351531, NaN, NaN, NaN,0.4315449," ""- N/A -   """
21.11,-0.94358,0.3516895, NaN, NaN, NaN,0.435207," ""- N/A -   """
21.12,-1.06153,0.351856, NaN, NaN, NaN,0.436428," ""- N/A -   """
21.13,-1.06153,0.3520144, NaN, NaN, NaN,0.436428," ""- N/A -   """
21.14,-1.06153,0.352184, NaN, NaN, NaN,0.433986," ""- N/A -   """
21.15,-1.06153,0.352356, NaN, NaN, NaN,0.432766," ""- N/A -   """
21.16,-1.06153,0.3525336, NaN, NaN, NaN,0.427883," ""- N/A -   """
21.17,-1.06153,0.3526919, NaN, NaN, NaN,0.4315449," ""- N/A -   """
21.18,-0.94358,0.352864, NaN, NaN, NaN,0.433986," ""- N/A -   """
21.19,-0.94358,0.353028, NaN, NaN, NaN,0.433986," ""- N/A -   """
21.2,-0.94358,0.353194, NaN, NaN, NaN,0.433986," ""- N/A -   """
21.21,-0.94358,0.353364, NaN, NaN, NaN,0.432766," ""- N/A -   """
21.22,-1.06153,0.3535305, NaN, NaN, NaN,0.4303241," ""- N/A -   """
21.23,-0.94358,0.353694, NaN, NaN, NaN,0.429103," ""- N/A -   """
21.24,-0.94358,0.353853, NaN, NaN, NaN,0.432766," ""- N/A -   """
21.25,-0.94358,0.354014, NaN, NaN, NaN,0.435207," ""- N/A -   """
21.26,-0.94358,0.35418, NaN, NaN, NaN,0.435207," ""- N/A -   """
21.27,-0.94358,0.3543496, NaN, NaN, NaN,0.433986," ""- N/A -   """
21.28,-0.94358,0.35453, NaN, NaN, NaN,0.432766," ""- N/A -   """
21.29,-1.06153,0.3546967, NaN, NaN, NaN,0.427883," ""- N/A -   """
21.3,-0.94358,0.3548661, NaN, NaN, NaN,0.4266618," ""- N/A -   """
21.31,-1.06153,0.355027, NaN, NaN, NaN,0.4303241," ""- N/A -   """
21.32,-0.94358,0.355185, NaN, NaN, NaN,0.433986," ""- N/A -   """
21.33,-0.94358,0.3553576, NaN, NaN, NaN,0.4315449," ""- N/A -   """
21.34,-0.94358,0.355519, NaN, NaN, NaN,0.433986," ""- N/A -   """
21.35,-0.94358,0.355685, NaN, NaN, NaN,0.433986," ""- N/A -   """
21.36,-1.06153,0.355855, NaN, NaN, NaN,0.432766," ""- N/A -   """
21.37,-0.94358,0.356021, NaN, NaN, NaN,0.432766," ""- N/A -   """
21.38,-0.94358,0.356182, NaN, NaN, NaN,0.435207," ""- N/A -   """
21.39,-1.06153,0.356352, NaN, NaN, NaN,0.433986," ""- N/A -   """
21.4,-1.06153,0.356518, NaN, NaN, NaN,0.435207," ""- N/A -   """
21.41,-0.94358,0.356688, NaN, NaN, NaN,0.433986," ""- N/A -   """
21.42,-0.94358,0.3568598, NaN, NaN, NaN,0.4315449," ""- N/A -   """
21.43,-0.94358,0.357032, NaN, NaN, NaN,0.427883," ""- N/A -   """
21.44,-1.06153,0.3571986, NaN, NaN, NaN,0.427883," ""- N/A -   """
21.45,-1.06153,0.357362, NaN, NaN, NaN,0.429103," ""- N/A -   """
21.46,-0.94358,0.357526, NaN, NaN, NaN,0.4303241," ""- N/A -   """
21.47,-0.94358,0.357698, NaN, NaN, NaN,0.432766," ""- N/A -   """
21.48,-0.94358,0.3578539, NaN, NaN, NaN,0.432766," ""- N/A -   """
21.49,-1.06153,0.3580316, NaN, NaN, NaN,0.4315449," ""- N/A -   """
21.5,-0.94358,0.358204, NaN, NaN, NaN,0.429103," ""- N/A -   """
21.51,-1.06153,0.358356, NaN, NaN, NaN,0.4315449," ""- N/A -   """
21.52,-0.94358,0.3585203, NaN, NaN, NaN,0.432766," ""- N/A -   """
21.53,-1.06153,0.358679, NaN, NaN, NaN,0.436428," ""- N/A -   """
21.54,-1.06153,0.3588452, NaN, NaN, NaN,0.437649," ""- N/A -   """
21.55,-1.06153,0.3590229, NaN, NaN, NaN,0.432766," ""- N/A -   """
21.56,-1.06153,0.359195, NaN, NaN, NaN,0.4303241," ""- N/A -   """
21.57,-1.06153,0.359376, NaN, NaN, NaN,0.427883," ""- N/A -   """
21.58,-1.06153,0.359537, NaN, NaN, NaN,0.429103," ""- N/A -   """
21.59,-0.94358,0.359695, NaN, NaN, NaN,0.432766," ""- N/A -   """
21.6,-1.06153,0.35985, NaN, NaN, NaN,0.435207," ""- N/A -   """
21.61,-0.94358,0.36002, NaN, NaN, NaN,0.433986," ""- N/A -   """
21.62,-0.94358,0.3601891, NaN, NaN, NaN,0.432766," ""- N/A -   """
21.63,-1.06153,0.3603585, NaN, NaN, NaN,0.4315449," ""- N/A -   """
21.64,-0.94358,0.360525, NaN, NaN, NaN,0.4315449," ""- N/A -   """
21.65,-1.06153,0.360686, NaN, NaN, NaN,0.433986," ""- N/A -   """
21.66,-0.94358,0.3608472, NaN, NaN, NaN,0.436428," ""- N/A -   """
21.67,-0.94358,0.361028, NaN, NaN, NaN,0.433986," ""- N/A -   """
21.68,-1.06153,0.3612, NaN, NaN, NaN,0.432766," ""- N/A -   """
21.69,-0.94358,0.361372, NaN, NaN, NaN,0.4303241," ""- N/A -   """
21.7,-0.94358,0.361533, NaN, NaN, NaN,0.427883," ""- N/A -   """
21.71,-0.94358,0.3616969, NaN, NaN, NaN,0.427883," ""- N/A -   """
21.72,-0.94358,0.361858, NaN, NaN, NaN,0.4303241," ""- N/A -   """
21.73,-1.06153,0.362019, NaN, NaN, NaN,0.432766," ""- N/A -   """
21.74,-0.94358,0.362183, NaN, NaN, NaN,0.433986," ""- N/A -   """
21.75,-0.94358,0.362355, NaN, NaN, NaN,0.4315449," ""- N/A -   """
21.76,-0.94358,0.3625244, NaN, NaN, NaN,0.4303241," ""- N/A -   """
21.77,-0.94358,0.362699, NaN, NaN, NaN,0.4303241," ""- N/A -   """
21.78,-1.06153,0.3628659, NaN, NaN, NaN,0.4303241," ""- N/A -   """
21.79,-0.94358,0.3630214, NaN, NaN, NaN,0.4315449," ""- N/A -   """
21.8,-0.94358,0.363185, NaN, NaN, NaN,0.432766," ""- N/A -   """
21.81,-0.94358,0.363352, NaN, NaN, NaN,0.432766," ""- N/A -   """
21.82,-0.825632,0.363518, NaN, NaN, NaN,0.432766," ""- N/A -   """
21.83,-0.94358,0.3636934, NaN, NaN, NaN,0.429103," ""- N/A -   """
21.84,-0.94358,0.363868, NaN, NaN, NaN,0.425441," ""- N/A -   """
21.85,-1.06153,0.364032, NaN, NaN, NaN,0.4266618," ""- N/A -   """
21.86,-0.94358,0.364202, NaN, NaN, NaN,0.429103," ""- N/A -   """
21.87,-0.94358,0.364368, NaN, NaN, NaN,0.429103," ""- N/A -   """
21.88,-1.06153,0.364532, NaN, NaN, NaN,0.4303241," ""- N/A -   """
21.89,-0.94358,0.364696, NaN, NaN, NaN,0.4315449," ""- N/A -   """
21.9,-0.94358,0.364854, NaN, NaN, NaN,0.4303241," ""- N/A -   """
21.91,-0.825632,0.365018, NaN, NaN, NaN,0.4315449," ""- N/A -   """
21.92,-0.94358,0.365176, NaN, NaN, NaN,0.435207," ""- N/A -   """
21.93,-0.94358,0.36534, NaN, NaN, NaN,0.44009," ""- N/A -   """
21.94,-0.94358,0.365504, NaN, NaN, NaN,0.4535189," ""- N/A -   """
21.95,-0.94358,0.3656871, NaN, NaN, NaN,0.45474," ""- N/A -   """
21.96,-1.06153,0.365862, NaN, NaN, NaN,0.447415," ""- N/A -   """
21.97,-0.94358,0.3660453, NaN, NaN, NaN,0.437649," ""- N/A -   """
21.98,-0.94358,0.36622, NaN, NaN, NaN,0.437649," ""- N/A -   """
21.99,-0.94358,0.366373, NaN, NaN, NaN,0.44009," ""- N/A -   """
22,-1.06153,0.366537, NaN, NaN, NaN,0.441311," ""- N/A -   """
22.01,-0.94358,0.366709, NaN, NaN, NaN,0.43887," ""- N/A -   """
22.02,-1.06153,0.366876, NaN, NaN, NaN,0.437649," ""- N/A -   """
22.03,-0.94358,0.367048, NaN, NaN, NaN,0.435207," ""- N/A -   """
22.04,-1.06153,0.3672171, NaN, NaN, NaN,0.433986," ""- N/A -   """
22.05,-0.94358,0.3673948, NaN, NaN, NaN,0.432766," ""- N/A -   """
22.06,-0.94358,0.367553, NaN, NaN, NaN,0.433986," ""- N/A -   """
22.07,-0.94358,0.367722, NaN, NaN, NaN,0.435207," ""- N/A -   """
22.08,-0.94358,0.3678835, NaN, NaN, NaN,0.435207," ""- N/A -   """
22.09,-0.94358,0.3680529, NaN, NaN, NaN,0.433986," ""- N/A -   """
22.1,-1.06153,0.368225, NaN, NaN, NaN,0.4303241," ""- N/A -   """
22.11,-0.94358,0.368392, NaN, NaN, NaN,0.4303241," ""- N/A -   """
22.12,-0.94358,0.3685638, NaN, NaN, NaN,0.427883," ""- N/A -   """
22.13,-1.06153,0.368725, NaN, NaN, NaN,0.4303241," ""- N/A -   """
22.14,-0.94358,0.3688859, NaN, NaN, NaN,0.432766," ""- N/A -   """
22.15,-0.94358,0.369053, NaN, NaN, NaN,0.432766," ""- N/A -   """
22.16,-1.06153,0.369225, NaN, NaN, NaN,0.433986," ""- N/A -   """
22.17,-0.94358,0.3693996, NaN, NaN, NaN,0.4315449," ""- N/A -   """
22.18,-1.06153,0.3695718, NaN, NaN, NaN,0.427883," ""- N/A -   """
22.19,-0.94358,0.3697245, NaN, NaN, NaN,0.4303241," ""- N/A -   """
22.2,-0.94358,0.369886, NaN, NaN, NaN,0.432766," ""- N/A -   """
22.21,-1.06153,0.370049, NaN, NaN, NaN,0.433986," ""- N/A -   """
22.22,-1.06153,0.370213, NaN, NaN, NaN,0.435207," ""- N/A -   """
22.23,-1.06153,0.370385, NaN, NaN, NaN,0.432766," ""- N/A -   """
22.24,-0.94358,0.370569, NaN, NaN, NaN,0.429103," ""- N/A -   """
22.25,-0.94358,0.370735, NaN, NaN, NaN,0.427883," ""- N/A -   """
22.26,-0.94358,0.3708935, NaN, NaN, NaN,0.4315449," ""- N/A -   """
22.27,-0.94358,0.371049, NaN, NaN, NaN,0.432766," ""- N/A -   """
22.28,-0.94358,0.3712156, NaN, NaN, NaN,0.435207," ""- N/A -   """
22.29,-1.06153,0.371379, NaN, NaN, NaN,0.433986," ""- N/A -   """
22.3,-0.94358,0.371552, NaN, NaN, NaN,0.4315449," ""- N/A -   """
22.31,-0.94358,0.3717182, NaN, NaN, NaN,0.4303241," ""- N/A -   """
22.32,-0.94358,0.3718876, NaN, NaN, NaN,0.429103," ""- N/A -   """
22.33,-0.94358,0.372057, NaN, NaN, NaN,0.432766," ""- N/A -   """
22.34,-0.94358,0.372221, NaN, NaN, NaN,0.432766," ""- N/A -   """
22.35,-0.94358,0.37239, NaN, NaN, NaN,0.4315449," ""- N/A -   """
22.36,-1.06153,0.37256, NaN, NaN, NaN,0.4303241," ""- N/A -   """
22.37,-0.94358,0.372726, NaN, NaN, NaN,0.4303241," ""- N/A -   """
22.38,-1.06153,0.372887, NaN, NaN, NaN,0.429103," ""- N/A -   """
22.39,-0.94358,0.373051, NaN, NaN, NaN,0.4303241," ""- N/A -   """
22.4,-1.06153,0.3732121, NaN, NaN, NaN,0.432766," ""- N/A -   """
22.41,-0.94358,0.3733815, NaN, NaN, NaN,0.4315449," ""- N/A -   """
22.42,-0.94358,0.3735481, NaN, NaN, NaN,0.4315449," ""- N/A -   """
22.43,-0.94358,0.3737147, NaN, NaN, NaN,0.4315449," ""- N/A -   """
22.44,-0.94358,0.373884, NaN, NaN, NaN,0.4303241," ""- N/A -   """
22.45,-0.94358,0.374056, NaN, NaN, NaN,0.432766," ""- N/A -   """
22.46,-1.06153,0.374223, NaN, NaN, NaN,0.432766," ""- N/A -   """
22.47,-0.94358,0.374381, NaN, NaN, NaN,0.435207," ""- N/A -   """
22.48,-1.06153,0.374539, NaN, NaN, NaN,0.436428," ""- N/A -   """
22.49,-0.94358,0.374706, NaN, NaN, NaN,0.436428," ""- N/A -   """
22.5,-0.94358,0.3748726, NaN, NaN, NaN,0.436428," ""- N/A -   """
22.51,-0.94358,0.375045, NaN, NaN, NaN,0.435207," ""- N/A -   """
22.52,-0.94358,0.37522, NaN, NaN, NaN,0.4303241," ""- N/A -   """
22.53,-0.94358,0.3753863, NaN, NaN, NaN,0.4303241," ""- N/A -   """
22.54,-0.94358,0.375547, NaN, NaN, NaN,0.432766," ""- N/A -   """
22.55,-1.06153,0.375711, NaN, NaN, NaN,0.433986," ""- N/A -   """
22.56,-1.06153,0.375875, NaN, NaN, NaN,0.435207," ""- N/A -   """
22.57,-0.94358,0.376047, NaN, NaN, NaN,0.432766," ""- N/A -   """
22.58,-0.825632,0.376225, NaN, NaN, NaN,0.4266618," ""- N/A -   """
22.59,-1.06153,0.3763915, NaN, NaN, NaN,0.4266618," ""- N/A -   """
22.6,-1.06153,0.376555, NaN, NaN, NaN,0.427883," ""- N/A -   """
22.61,-1.06153,0.376714, NaN, NaN, NaN,0.4315449," ""- N/A -   """
22.62,-0.94358,0.3768774, NaN, NaN, NaN,0.432766," ""- N/A -   """
22.63,-1.06153,0.37705, NaN, NaN, NaN,0.4303241," ""- N/A -   """
22.64,-0.825632,0.3772245, NaN, NaN, NaN,0.4303241," ""- N/A -   """
22.65,-0.94358,0.377397, NaN, NaN, NaN,0.427883," ""- N/A -   """
22.66,-0.94358,0.377563, NaN, NaN, NaN,0.4266618," ""- N/A -   """
22.67,-0.94358,0.377722, NaN, NaN, NaN,0.4266618," ""- N/A -   """
22.68,-0.94358,0.377877, NaN, NaN, NaN,0.4315449," ""- N/A -   """
22.69,-0.94358,0.378046, NaN, NaN, NaN,0.4303241," ""- N/A -   """
22.7,-0.94358,0.378213, NaN, NaN, NaN,0.4303241," ""- N/A -   """
22.71,-1.06153,0.37838, NaN, NaN, NaN,0.4303241," ""- N/A -   """
22.72,-1.06153,0.378549, NaN, NaN, NaN,0.429103," ""- N/A -   """
22.73,-0.94358,0.378716, NaN, NaN, NaN,0.429103," ""- N/A -   """
22.74,-1.06153,0.378877, NaN, NaN, NaN,0.4315449," ""- N/A -   """
22.75,-0.94358,0.379046, NaN, NaN, NaN,0.435207," ""- N/A -   """
22.76,-0.94358,0.379204, NaN, NaN, NaN,0.433986," ""- N/A -   """
22.77,-1.06153,0.379371, NaN, NaN, NaN,0.433986," ""- N/A -   """
22.78,-0.94358,0.379538, NaN, NaN, NaN,0.433986," ""- N/A -   """
22.79,-0.94358,0.379707, NaN, NaN, NaN,0.4315449," ""- N/A -   """