File: 2_Tensile_Data/Hamel_ForceTest_Bolt4_Test9.csv
Time, Load (lb), Position (in), AxialStrain (in), TransverseStrain (in), Auxiliary (), Control Out (V), Stress (psi)
0.0, 11.0871, 0.0, NaN, NaN, NaN, -0.007935055, "- N/A -   "
0.01, 11.0871, 0.0, NaN, NaN, NaN, -6.103888E-4, "- N/A -   "
0.02, 11.205, 0.0, NaN, NaN, NaN, 0.0115974, "- N/A -   "
0.03, 11.205, 0.0, NaN, NaN, NaN, 0.03112983, "- N/A -   "
0.04, 11.323, 8.330256E-6, NaN, NaN, NaN, 0.0482207, "- N/A -   "
0.05, 11.4409, 2.2214e-05, NaN, NaN, NaN, 0.06164927, "- N/A -   "
0.06, 11.6768, 3.60978e-05, NaN, NaN, NaN, 0.07385705, "- N/A -   "
0.07, 12.14859, 5.83118e-05, NaN, NaN, NaN, 0.084844, "- N/A -   "
0.08, 12.5024, 8.33026e-05, NaN, NaN, NaN, 0.09216871, "- N/A -   "
0.09, 12.8563, 0.000113847, NaN, NaN, NaN, 0.09949338, "- N/A -   "
0.1, 13.3281, 0.000144391, NaN, NaN, NaN, 0.103156, "- N/A -   "
0.11, 13.9178, 0.000174935, NaN, NaN, NaN, 0.095831, "- N/A -   "
0.12, 14.3896, 0.000208256, NaN, NaN, NaN, 0.0897272, "- N/A -   "
0.13, 14.9793, 2.360239E-4, NaN, NaN, NaN, 0.08362327, "- N/A -   "
0.14, 15.3332, 0.000263791, NaN, NaN, NaN, 0.07874016, "- N/A -   "
0.15, 15.687, 0.000288782, NaN, NaN, NaN, 0.0762986, "- N/A -   "
0.16, 16.0409, 3.109962E-4, NaN, NaN, NaN, 0.07385705, "- N/A -   "
0.17, 16.3947, 0.000330433, NaN, NaN, NaN, 0.07141549, "- N/A -   "
0.18, 16.6306, 0.000349871, NaN, NaN, NaN, 0.0701947, "- N/A -   "
0.19, 16.9844, 0.000366531, NaN, NaN, NaN, 0.0701947, "- N/A -   "
0.2, 17.2203, 3.859685E-4, NaN, NaN, NaN, 0.0689739, "- N/A -   "
0.21, 17.5742, 0.000405406, NaN, NaN, NaN, 0.0689739, "- N/A -   "
0.22, 17.8101, 0.000422066, NaN, NaN, NaN, 0.06775316, "- N/A -   "
0.23, 18.046, 0.000441504, NaN, NaN, NaN, 0.06653238, "- N/A -   "
0.24, 18.2819, 4.609408E-4, NaN, NaN, NaN, 0.0653116, "- N/A -   "
0.25, 18.6357, 4.776013E-4, NaN, NaN, NaN, 0.0653116, "- N/A -   "
0.26, 18.8716, 4.970386E-4, NaN, NaN, NaN, 0.0640908, "- N/A -   "
0.27, 19.1075, 5.164758E-4, NaN, NaN, NaN, 0.0640908, "- N/A -   "
0.28, 19.4613, 5.359131E-4, NaN, NaN, NaN, 0.06287005, "- N/A -   "
0.29, 19.6972, 5.553504E-4, NaN, NaN, NaN, 0.0604285, "- N/A -   "
0.3, 20.05107, 0.000577564, NaN, NaN, NaN, 0.0592077, "- N/A -   "
0.31, 20.4049, 5.997784E-4, NaN, NaN, NaN, 0.05676616, "- N/A -   "
0.32, 20.7588, 0.000619216, NaN, NaN, NaN, 0.0543246, "- N/A -   "
0.33, 20.99465, 6.414297E-4, NaN, NaN, NaN, 0.05188305, "- N/A -   "
0.34, 21.3485, 6.636437E-4, NaN, NaN, NaN, 0.0494415, "- N/A -   "
0.35, 21.7023, 6.858577E-4, NaN, NaN, NaN, 0.0482207, "- N/A -   "
0.36, 21.93823, 7.025182E-4, NaN, NaN, NaN, 0.04699994, "- N/A -   "
0.37, 22.1741, 7.219555E-4, NaN, NaN, NaN, 0.04577916, "- N/A -   "
0.38, 22.41, 7.413927E-4, NaN, NaN, NaN, 0.0445584, "- N/A -   "
0.39, 22.6459, 7.6083E-4, NaN, NaN, NaN, 0.0433376, "- N/A -   "
0.4, 22.9998, 0.000780267, NaN, NaN, NaN, 0.04211683, "- N/A -   "
0.41, 23.2357, 7.997045E-4, NaN, NaN, NaN, 0.04089605, "- N/A -   "
0.42, 23.4715, 8.191418E-4, NaN, NaN, NaN, 0.0396753, "- N/A -   "
0.43, 23.7074, 8.38579E-4, NaN, NaN, NaN, 0.0384545, "- N/A -   "
0.44, 23.9433, 8.552396E-4, NaN, NaN, NaN, 0.0384545, "- N/A -   "
0.45, 24.0613, 0.0008719, NaN, NaN, NaN, 0.0384545, "- N/A -   "
0.46, 24.4151, 8.885606E-4, NaN, NaN, NaN, 0.0384545, "- N/A -   "
0.47, 24.65102, 9.052211E-4, NaN, NaN, NaN, 0.0384545, "- N/A -   "
0.48, 24.769, 9.246584E-4, NaN, NaN, NaN, 0.0372337, "- N/A -   "
0.49, 25.1228, 9.440956E-4, NaN, NaN, NaN, 0.03601294, "- N/A -   "
0.5, 25.3587, 9.663096E-4, NaN, NaN, NaN, 0.0347922, "- N/A -   "
0.51, 25.7125, 9.857469E-4, NaN, NaN, NaN, 0.0323506, "- N/A -   "
0.52, 25.9484, 0.00100518, NaN, NaN, NaN, 0.0323506, "- N/A -   "
0.53, 26.18434, 0.00102184, NaN, NaN, NaN, 0.03112983, "- N/A -   "
0.54, 26.4202, 0.001041282, NaN, NaN, NaN, 0.0299091, "- N/A -   "
0.55, 26.5382, 0.00105794, NaN, NaN, NaN, 0.0299091, "- N/A -   "
0.56, 26.892, 0.001074603, NaN, NaN, NaN, 0.0299091, "- N/A -   "
0.57, 27.1279, 0.00109126, NaN, NaN, NaN, 0.0299091, "- N/A -   "
0.58, 27.2459, 0.00110792, NaN, NaN, NaN, 0.0299091, "- N/A -   "
0.59, 27.4818, 0.00112181, NaN, NaN, NaN, 0.03112983, "- N/A -   "
0.6, 27.7177, 0.00113847, NaN, NaN, NaN, 0.0323506, "- N/A -   "
0.61, 27.8356, 0.001152352, NaN, NaN, NaN, 0.0323506, "- N/A -   "
0.62, 28.0715, 0.00116624, NaN, NaN, NaN, 0.0335714, "- N/A -   "
0.63, 28.3074, 0.0011829, NaN, NaN, NaN, 0.0335714, "- N/A -   "
0.64, 28.54329, 0.00119956, NaN, NaN, NaN, 0.0347922, "- N/A -   "
0.65, 28.6612, 0.00121344, NaN, NaN, NaN, 0.0347922, "- N/A -   "
0.66, 28.89713, 0.0012301, NaN, NaN, NaN, 0.0347922, "- N/A -   "
0.67, 29.133, 0.00124676, NaN, NaN, NaN, 0.0347922, "- N/A -   "
0.68, 29.3689, 0.0012662, NaN, NaN, NaN, 0.0347922, "- N/A -   "
0.69, 29.6048, 0.00128286, NaN, NaN, NaN, 0.0335714, "- N/A -   "
0.7, 29.84071, 0.00129952, NaN, NaN, NaN, 0.0347922, "- N/A -   "
0.71, 29.9587, 0.0013134, NaN, NaN, NaN, 0.0347922, "- N/A -   "
0.72, 30.1946, 0.00132729, NaN, NaN, NaN, 0.03601294, "- N/A -   "
0.73, 30.4304, 0.00134117, NaN, NaN, NaN, 0.0372337, "- N/A -   "
0.74, 30.6663, 0.00135505, NaN, NaN, NaN, 0.0384545, "- N/A -   "
0.75, 30.6663, 0.00137172, NaN, NaN, NaN, 0.0396753, "- N/A -   "
0.76, 30.9022, 0.0013856, NaN, NaN, NaN, 0.04089605, "- N/A -   "
0.77, 31.0202, 0.001399483, NaN, NaN, NaN, 0.04089605, "- N/A -   "
0.78, 31.2561, 0.00141337, NaN, NaN, NaN, 0.04211683, "- N/A -   "
0.79, 31.492, 0.00143003, NaN, NaN, NaN, 0.0433376, "- N/A -   "
0.8, 31.6099, 0.001443911, NaN, NaN, NaN, 0.0433376, "- N/A -   "
0.81, 31.8458, 0.00146057, NaN, NaN, NaN, 0.0433376, "- N/A -   "
0.82, 32.1997, 0.001477232, NaN, NaN, NaN, 0.0433376, "- N/A -   "
0.83, 32.4356, 0.00149389, NaN, NaN, NaN, 0.0433376, "- N/A -   "
0.84, 32.5535, 0.001510553, NaN, NaN, NaN, 0.0433376, "- N/A -   "
0.85, 32.7894, 0.00152721, NaN, NaN, NaN, 0.0433376, "- N/A -   "
0.86, 32.9073, 0.001543874, NaN, NaN, NaN, 0.0433376, "- N/A -   "
0.87, 33.1432, 0.00156053, NaN, NaN, NaN, 0.0433376, "- N/A -   "
0.88, 33.49708, 0.001577195, NaN, NaN, NaN, 0.0433376, "- N/A -   "
0.89, 33.61503, 0.00159663, NaN, NaN, NaN, 0.0433376, "- N/A -   "
0.9, 33.8509, 0.00161052, NaN, NaN, NaN, 0.0433376, "- N/A -   "
0.91, 33.9689, 0.00162718, NaN, NaN, NaN, 0.0445584, "- N/A -   "
0.92, 34.08682, 0.00164106, NaN, NaN, NaN, 0.0445584, "- N/A -   "
0.93, 34.3227, 0.00165772, NaN, NaN, NaN, 0.04577916, "- N/A -   "
0.94, 34.6766, 0.0016716, NaN, NaN, NaN, 0.04577916, "- N/A -   "
0.95, 34.7945, 0.00169104, NaN, NaN, NaN, 0.04577916, "- N/A -   "
0.96, 35.1483, 0.0017077, NaN, NaN, NaN, 0.04577916, "- N/A -   "
0.97, 35.2663, 0.00172436, NaN, NaN, NaN, 0.04577916, "- N/A -   "
0.98, 35.50219, 0.00174102, NaN, NaN, NaN, 0.0445584, "- N/A -   "
0.99, 35.85603, 0.00176324, NaN, NaN, NaN, 0.0433376, "- N/A -   "
1, 35.97398, 0.001779898, NaN, NaN, NaN, 0.04211683, "- N/A -   "
1.01, 36.32782, 0.00179934, NaN, NaN, NaN, 0.04211683, "- N/A -   "
1.02, 36.44577, 0.001816, NaN, NaN, NaN, 0.04089605, "- N/A -   "
1.03, 36.79961, 0.001835433, NaN, NaN, NaN, 0.0396753, "- N/A -   "
1.04, 36.9176, 0.001857647, NaN, NaN, NaN, 0.0384545, "- N/A -   "
1.05, 37.2714, 0.001879861, NaN, NaN, NaN, 0.03601294, "- N/A -   "
1.06, 37.5073, 0.0018993, NaN, NaN, NaN, 0.0335714, "- N/A -   "
1.07, 37.74319, 0.00191874, NaN, NaN, NaN, 0.0323506, "- N/A -   "
1.08, 37.9791, 0.00194095, NaN, NaN, NaN, 0.03112983, "- N/A -   "
1.09, 38.3329, 0.00196039, NaN, NaN, NaN, 0.0286883, "- N/A -   "
1.1, 38.4509, 0.00197982, NaN, NaN, NaN, 0.0286883, "- N/A -   "
1.11, 38.68677, 0.00199648, NaN, NaN, NaN, 0.0274675, "- N/A -   "
1.12, 38.8047, 0.002013145, NaN, NaN, NaN, 0.0274675, "- N/A -   "
1.13, 38.9227, 0.00203258, NaN, NaN, NaN, 0.0274675, "- N/A -   "
1.14, 39.2765, 0.002046466, NaN, NaN, NaN, 0.0274675, "- N/A -   "
1.15, 39.3945, 0.0020659, NaN, NaN, NaN, 0.0274675, "- N/A -   "
1.16, 39.5124, 0.00207979, NaN, NaN, NaN, 0.0274675, "- N/A -   "
1.17, 39.7483, 0.00209922, NaN, NaN, NaN, 0.0274675, "- N/A -   "
1.18, 39.98419, 0.00211588, NaN, NaN, NaN, 0.0274675, "- N/A -   "
1.19, 40.22009, 0.00212977, NaN, NaN, NaN, 0.0274675, "- N/A -   "
1.2, 40.22009, 0.00214643, NaN, NaN, NaN, 0.0274675, "- N/A -   "
1.21, 40.456, 0.00216309, NaN, NaN, NaN, 0.0274675, "- N/A -   "
1.22, 40.69188, 0.002182527, NaN, NaN, NaN, 0.0274675, "- N/A -   "
1.23, 40.9278, 0.00219641, NaN, NaN, NaN, 0.0274675, "- N/A -   "
1.24, 41.04572, 0.002213071, NaN, NaN, NaN, 0.0274675, "- N/A -   "
1.25, 41.16367, 0.002226955, NaN, NaN, NaN, 0.0286883, "- N/A -   "
1.26, 41.39956, 0.00224362, NaN, NaN, NaN, 0.0286883, "- N/A -   "
1.27, 41.6355, 0.0022575, NaN, NaN, NaN, 0.0299091, "- N/A -   "
1.28, 41.7534, 0.002271383, NaN, NaN, NaN, 0.03112983, "- N/A -   "
1.29, 41.9893, 0.00228804, NaN, NaN, NaN, 0.03112983, "- N/A -   "
1.3, 42.2252, 0.002304704, NaN, NaN, NaN, 0.03112983, "- N/A -   "
1.31, 42.3431, 0.00232136, NaN, NaN, NaN, 0.0323506, "- N/A -   "
1.32, 42.579, 0.00233525, NaN, NaN, NaN, 0.0323506, "- N/A -   "
1.33, 42.697, 0.00235191, NaN, NaN, NaN, 0.0335714, "- N/A -   "
1.34, 42.8149, 0.00236579, NaN, NaN, NaN, 0.0335714, "- N/A -   "
1.35, 43.1688, 0.00237968, NaN, NaN, NaN, 0.0347922, "- N/A -   "
1.36, 43.2867, 0.00239911, NaN, NaN, NaN, 0.0347922, "- N/A -   "
1.37, 43.5226, 0.002413, NaN, NaN, NaN, 0.0347922, "- N/A -   "
1.38, 43.6406, 0.00242966, NaN, NaN, NaN, 0.0347922, "- N/A -   "
1.39, 43.9944, 0.00244632, NaN, NaN, NaN, 0.0347922, "- N/A -   "
1.4, 44.1124, 0.00246298, NaN, NaN, NaN, 0.0347922, "- N/A -   "
1.41, 44.34825, 0.00247686, NaN, NaN, NaN, 0.03601294, "- N/A -   "
1.42, 44.4662, 0.0024963, NaN, NaN, NaN, 0.03601294, "- N/A -   "
1.43, 44.70209, 0.00251296, NaN, NaN, NaN, 0.03601294, "- N/A -   "
1.44, 44.93799, 0.00252684, NaN, NaN, NaN, 0.03601294, "- N/A -   "
1.45, 45.17388, 0.0025435, NaN, NaN, NaN, 0.03601294, "- N/A -   "
1.46, 45.40978, 0.00256017, NaN, NaN, NaN, 0.0372337, "- N/A -   "
1.47, 45.5277, 0.00257405, NaN, NaN, NaN, 0.0372337, "- N/A -   "
1.48, 45.76362, 0.00258793, NaN, NaN, NaN, 0.0384545, "- N/A -   "
1.49, 45.8816, 0.00260182, NaN, NaN, NaN, 0.0396753, "- N/A -   "
1.5, 46.11746, 0.00261848, NaN, NaN, NaN, 0.04089605, "- N/A -   "
1.51, 46.3534, 0.00263236, NaN, NaN, NaN, 0.04089605, "- N/A -   "
1.52, 46.4713, 0.00264624, NaN, NaN, NaN, 0.04211683, "- N/A -   "
1.53, 46.5893, 0.00266013, NaN, NaN, NaN, 0.0433376, "- N/A -   "
1.54, 46.8251, 0.00267401, NaN, NaN, NaN, 0.0445584, "- N/A -   "
1.55, 47.061, 0.00269345, NaN, NaN, NaN, 0.0445584, "- N/A -   "
1.56, 47.2969, 0.002707333, NaN, NaN, NaN, 0.0445584, "- N/A -   "
1.57, 47.4149, 0.00272122, NaN, NaN, NaN, 0.04577916, "- N/A -   "
1.58, 47.7687, 0.00273788, NaN, NaN, NaN, 0.04577916, "- N/A -   "
1.59, 47.8867, 0.002751761, NaN, NaN, NaN, 0.04699994, "- N/A -   "
1.6, 48.12257, 0.00276842, NaN, NaN, NaN, 0.0482207, "- N/A -   "
1.61, 48.2405, 0.00278231, NaN, NaN, NaN, 0.0482207, "- N/A -   "
1.62, 48.47641, 0.002798966, NaN, NaN, NaN, 0.0482207, "- N/A -   "
1.63, 48.7123, 0.00281563, NaN, NaN, NaN, 0.0482207, "- N/A -   "
1.64, 49.0661, 0.00283784, NaN, NaN, NaN, 0.04699994, "- N/A -   "
1.65, 49.30204, 0.002854501, NaN, NaN, NaN, 0.04577916, "- N/A -   "
1.66, 49.5379, 0.00287671, NaN, NaN, NaN, 0.0445584, "- N/A -   "
1.67, 49.7738, 0.00289338, NaN, NaN, NaN, 0.0433376, "- N/A -   "
1.68, 50.2456, 0.00291559, NaN, NaN, NaN, 0.04211683, "- N/A -   "
1.69, 50.5995, 0.00293503, NaN, NaN, NaN, 0.0396753, "- N/A -   "
1.7, 50.83536, 0.002954464, NaN, NaN, NaN, 0.0384545, "- N/A -   "
1.71, 51.0713, 0.0029739, NaN, NaN, NaN, 0.0372337, "- N/A -   "
1.72, 51.30715, 0.00299334, NaN, NaN, NaN, 0.03601294, "- N/A -   "
1.73, 51.66099, 0.003012776, NaN, NaN, NaN, 0.03601294, "- N/A -   "
1.74, 51.89689, 0.00302944, NaN, NaN, NaN, 0.0347922, "- N/A -   "
1.75, 52.01483, 0.00304887, NaN, NaN, NaN, 0.0335714, "- N/A -   "
1.76, 52.36868, 0.003068311, NaN, NaN, NaN, 0.0335714, "- N/A -   "
1.77, 52.6046, 0.00308497, NaN, NaN, NaN, 0.0335714, "- N/A -   "
1.78, 52.72252, 0.003101632, NaN, NaN, NaN, 0.0323506, "- N/A -   "
1.79, 52.9584, 0.00311829, NaN, NaN, NaN, 0.0323506, "- N/A -   "
1.8, 53.19431, 0.00313495, NaN, NaN, NaN, 0.0323506, "- N/A -   "
1.81, 53.4302, 0.00314884, NaN, NaN, NaN, 0.0335714, "- N/A -   "
1.82, 53.54815, 0.003165497, NaN, NaN, NaN, 0.0335714, "- N/A -   "
1.83, 53.784, 0.00318216, NaN, NaN, NaN, 0.0347922, "- N/A -   "
1.84, 54.0199, 0.00319604, NaN, NaN, NaN, 0.0347922, "- N/A -   "
1.85, 54.13789, 0.003212702, NaN, NaN, NaN, 0.0347922, "- N/A -   "
1.86, 54.4917, 0.00322659, NaN, NaN, NaN, 0.03601294, "- N/A -   "
1.87, 54.7276, 0.003243246, NaN, NaN, NaN, 0.03601294, "- N/A -   "
1.88, 54.9635, 0.00325991, NaN, NaN, NaN, 0.03601294, "- N/A -   "
1.89, 55.1994, 0.00327657, NaN, NaN, NaN, 0.03601294, "- N/A -   "
1.9, 55.43531, 0.00329323, NaN, NaN, NaN, 0.03601294, "- N/A -   "
1.91, 55.6712, 0.003309888, NaN, NaN, NaN, 0.03601294, "- N/A -   "
1.92, 55.9071, 0.00332655, NaN, NaN, NaN, 0.03601294, "- N/A -   "
1.93, 56.143, 0.00334321, NaN, NaN, NaN, 0.03601294, "- N/A -   "
1.94, 56.37889, 0.00335987, NaN, NaN, NaN, 0.03601294, "- N/A -   "
1.95, 56.6148, 0.00337653, NaN, NaN, NaN, 0.03601294, "- N/A -   "
1.96, 56.9686, 0.00339597, NaN, NaN, NaN, 0.0347922, "- N/A -   "
1.97, 57.20452, 0.003412628, NaN, NaN, NaN, 0.0347922, "- N/A -   "
1.98, 57.44042, 0.00343207, NaN, NaN, NaN, 0.0347922, "- N/A -   "
1.99, 57.79426, 0.00344873, NaN, NaN, NaN, 0.0347922, "- N/A -   "
2, 58.0302, 0.00346539, NaN, NaN, NaN, 0.0335714, "- N/A -   "
2.01, 58.26605, 0.00348205, NaN, NaN, NaN, 0.0335714, "- N/A -   "
2.02, 58.6199, 0.00350148, NaN, NaN, NaN, 0.0335714, "- N/A -   "
2.03, 58.8558, 0.00351537, NaN, NaN, NaN, 0.0335714, "- N/A -   "
2.04, 59.0917, 0.00353481, NaN, NaN, NaN, 0.0335714, "- N/A -   "
2.05, 59.3276, 0.00355147, NaN, NaN, NaN, 0.0335714, "- N/A -   "
2.06, 59.68142, 0.00356813, NaN, NaN, NaN, 0.0323506, "- N/A -   "
2.07, 59.9173, 0.00358479, NaN, NaN, NaN, 0.0323506, "- N/A -   "
2.08, 60.15321, 0.00360145, NaN, NaN, NaN, 0.0323506, "- N/A -   "
2.09, 60.3891, 0.00361811, NaN, NaN, NaN, 0.0335714, "- N/A -   "
2.1, 60.5071, 0.00363199, NaN, NaN, NaN, 0.0335714, "- N/A -   "
2.11, 60.7429, 0.00364865, NaN, NaN, NaN, 0.0335714, "- N/A -   "
2.12, 60.97884, 0.00366254, NaN, NaN, NaN, 0.0347922, "- N/A -   "
2.13, 61.2147, 0.0036792, NaN, NaN, NaN, 0.03601294, "- N/A -   "
2.14, 61.45063, 0.00369308, NaN, NaN, NaN, 0.03601294, "- N/A -   "
2.15, 61.6865, 0.00370696, NaN, NaN, NaN, 0.0372337, "- N/A -   "
2.16, 61.8045, 0.00372362, NaN, NaN, NaN, 0.0384545, "- N/A -   "
2.17, 62.1583, 0.00373751, NaN, NaN, NaN, 0.0384545, "- N/A -   "
2.18, 62.5122, 0.00375417, NaN, NaN, NaN, 0.0384545, "- N/A -   "
2.19, 62.7481, 0.003770829, NaN, NaN, NaN, 0.0396753, "- N/A -   "
2.2, 63.1019, 0.00378749, NaN, NaN, NaN, 0.0396753, "- N/A -   "
2.21, 63.2198, 0.00380415, NaN, NaN, NaN, 0.0384545, "- N/A -   "
2.22, 63.45574, 0.00382359, NaN, NaN, NaN, 0.0384545, "- N/A -   "
2.23, 63.80958, 0.00384302, NaN, NaN, NaN, 0.0372337, "- N/A -   "
2.24, 64.16342, 0.003859685, NaN, NaN, NaN, 0.03601294, "- N/A -   "
2.25, 64.3993, 0.00387635, NaN, NaN, NaN, 0.03601294, "- N/A -   "
2.26, 64.6352, 0.00389023, NaN, NaN, NaN, 0.0372337, "- N/A -   "
2.27, 64.75317, 0.00390689, NaN, NaN, NaN, 0.0372337, "- N/A -   "
2.28, 65.107, 0.00392355, NaN, NaN, NaN, 0.0384545, "- N/A -   "
2.29, 65.3429, 0.003937434, NaN, NaN, NaN, 0.0384545, "- N/A -   "
2.3, 65.5788, 0.00395409, NaN, NaN, NaN, 0.0384545, "- N/A -   "
2.31, 65.69674, 0.00396798, NaN, NaN, NaN, 0.0396753, "- N/A -   "
2.32, 66.05058, 0.003984639, NaN, NaN, NaN, 0.0396753, "- N/A -   "
2.33, 66.40443, 0.0040013, NaN, NaN, NaN, 0.0396753, "- N/A -   "
2.34, 66.75827, 0.00402074, NaN, NaN, NaN, 0.0384545, "- N/A -   "
2.35, 66.87622, 0.004040174, NaN, NaN, NaN, 0.0384545, "- N/A -   "
2.36, 67.34801, 0.00405683, NaN, NaN, NaN, 0.0372337, "- N/A -   "
2.37, 67.46596, 0.004076272, NaN, NaN, NaN, 0.0372337, "- N/A -   "
2.38, 67.81979, 0.004092932, NaN, NaN, NaN, 0.03601294, "- N/A -   "
2.39, 68.05569, 0.00410959, NaN, NaN, NaN, 0.03601294, "- N/A -   "
2.4, 68.40953, 0.004126253, NaN, NaN, NaN, 0.03601294, "- N/A -   "
2.41, 68.7634, 0.00414291, NaN, NaN, NaN, 0.03601294, "- N/A -   "
2.42, 68.9993, 0.00415957, NaN, NaN, NaN, 0.03601294, "- N/A -   "
2.43, 69.23517, 0.004176235, NaN, NaN, NaN, 0.03601294, "- N/A -   "
2.44, 69.47106, 0.004195672, NaN, NaN, NaN, 0.03601294, "- N/A -   "
2.45, 69.707, 0.00421233, NaN, NaN, NaN, 0.03601294, "- N/A -   "
2.46, 70.0608, 0.004226216, NaN, NaN, NaN, 0.03601294, "- N/A -   "
2.47, 70.29669, 0.00424288, NaN, NaN, NaN, 0.03601294, "- N/A -   "
2.48, 70.6505, 0.00425954, NaN, NaN, NaN, 0.03601294, "- N/A -   "
2.49, 70.88643, 0.004276198, NaN, NaN, NaN, 0.03601294, "- N/A -   "
2.5, 71.12233, 0.004295635, NaN, NaN, NaN, 0.03601294, "- N/A -   "
2.51, 71.4762, 0.00430952, NaN, NaN, NaN, 0.03601294, "- N/A -   "
2.52, 71.71206, 0.00432896, NaN, NaN, NaN, 0.0347922, "- N/A -   "
2.53, 71.94796, 0.004345617, NaN, NaN, NaN, 0.0347922, "- N/A -   "
2.54, 72.3018, 0.004365054, NaN, NaN, NaN, 0.0347922, "- N/A -   "
2.55, 72.65564, 0.004384491, NaN, NaN, NaN, 0.0335714, "- N/A -   "
2.56, 72.89154, 0.00440115, NaN, NaN, NaN, 0.0323506, "- N/A -   "
2.57, 73.2454, 0.00441781, NaN, NaN, NaN, 0.0323506, "- N/A -   "
2.58, 73.48127, 0.00443725, NaN, NaN, NaN, 0.03112983, "- N/A -   "
2.59, 73.71717, 0.00445391, NaN, NaN, NaN, 0.03112983, "- N/A -   "
2.6, 74.071, 0.00447057, NaN, NaN, NaN, 0.03112983, "- N/A -   "
2.61, 74.3069, 0.004487231, NaN, NaN, NaN, 0.03112983, "- N/A -   "
2.62, 74.66075, 0.00450389, NaN, NaN, NaN, 0.03112983, "- N/A -   "
2.63, 74.7787, 0.00451778, NaN, NaN, NaN, 0.0323506, "- N/A -   "
2.64, 75.0146, 0.004534436, NaN, NaN, NaN, 0.0335714, "- N/A -   "
2.65, 75.36844, 0.00454832, NaN, NaN, NaN, 0.0335714, "- N/A -   "
2.66, 75.6043, 0.00456498, NaN, NaN, NaN, 0.0335714, "- N/A -   "
2.67, 75.95817, 0.00458164, NaN, NaN, NaN, 0.0335714, "- N/A -   "
2.68, 76.19407, 0.004598301, NaN, NaN, NaN, 0.0335714, "- N/A -   "
2.69, 76.5479, 0.00461496, NaN, NaN, NaN, 0.0335714, "- N/A -   "
2.7, 76.90175, 0.004631622, NaN, NaN, NaN, 0.0335714, "- N/A -   "
2.71, 77.25559, 0.00464828, NaN, NaN, NaN, 0.0335714, "- N/A -   "
2.72, 77.6094, 0.00466772, NaN, NaN, NaN, 0.0323506, "- N/A -   "
2.73, 77.84533, 0.00468438, NaN, NaN, NaN, 0.0323506, "- N/A -   "
2.74, 78.08122, 0.004701041, NaN, NaN, NaN, 0.0323506, "- N/A -   "
2.75, 78.31712, 0.0047177, NaN, NaN, NaN, 0.0323506, "- N/A -   "
2.76, 78.55301, 0.004734362, NaN, NaN, NaN, 0.0323506, "- N/A -   "
2.77, 78.90686, 0.00475102, NaN, NaN, NaN, 0.0323506, "- N/A -   "
2.78, 79.14275, 0.004767683, NaN, NaN, NaN, 0.0323506, "- N/A -   "
2.79, 79.61454, 0.00478434, NaN, NaN, NaN, 0.0323506, "- N/A -   "
2.8, 79.73249, 0.00480378, NaN, NaN, NaN, 0.03112983, "- N/A -   "
2.81, 80.20428, 0.00481766, NaN, NaN, NaN, 0.0323506, "- N/A -   "
2.82, 80.44018, 0.004834325, NaN, NaN, NaN, 0.0323506, "- N/A -   "
2.83, 80.67606, 0.00484821, NaN, NaN, NaN, 0.0335714, "- N/A -   "
2.84, 80.794, 0.004864869, NaN, NaN, NaN, 0.0335714, "- N/A -   "
2.85, 81.14786, 0.004878753, NaN, NaN, NaN, 0.0347922, "- N/A -   "
2.86, 81.38376, 0.004892637, NaN, NaN, NaN, 0.03601294, "- N/A -   "
2.87, 81.61965, 0.00490652, NaN, NaN, NaN, 0.0372337, "- N/A -   "
2.88, 81.8555, 0.004920405, NaN, NaN, NaN, 0.0384545, "- N/A -   "
2.89, 82.09144, 0.004937065, NaN, NaN, NaN, 0.0384545, "- N/A -   "
2.9, 82.32734, 0.00495373, NaN, NaN, NaN, 0.0384545, "- N/A -   "
2.91, 82.68118, 0.004967609, NaN, NaN, NaN, 0.0396753, "- N/A -   "
2.92, 82.91707, 0.00498427, NaN, NaN, NaN, 0.04089605, "- N/A -   "
2.93, 83.27091, 0.00500093, NaN, NaN, NaN, 0.04089605, "- N/A -   "
2.94, 83.50681, 0.005017591, NaN, NaN, NaN, 0.04089605, "- N/A -   "
2.95, 83.74271, 0.005031475, NaN, NaN, NaN, 0.04211683, "- N/A -   "
2.96, 83.9786, 0.00504814, NaN, NaN, NaN, 0.04211683, "- N/A -   "
2.97, 84.33244, 0.005062019, NaN, NaN, NaN, 0.04211683, "- N/A -   "
2.98, 84.68629, 0.00507868, NaN, NaN, NaN, 0.0433376, "- N/A -   "
2.99, 84.80424, 0.005092563, NaN, NaN, NaN, 0.0433376, "- N/A -   "
3, 85.15807, 0.005106447, NaN, NaN, NaN, 0.0445584, "- N/A -   "
3.01, 85.51192, 0.005123107, NaN, NaN, NaN, 0.04577916, "- N/A -   "
3.02, 85.74781, 0.00513977, NaN, NaN, NaN, 0.04577916, "- N/A -   "
3.03, 86.1017, 0.00515643, NaN, NaN, NaN, 0.0445584, "- N/A -   "
3.04, 86.4555, 0.005173089, NaN, NaN, NaN, 0.0445584, "- N/A -   "
3.05, 86.80934, 0.00518975, NaN, NaN, NaN, 0.0445584, "- N/A -   "
3.06, 87.04523, 0.00520641, NaN, NaN, NaN, 0.0445584, "- N/A -   "
3.07, 87.39908, 0.005225847, NaN, NaN, NaN, 0.0433376, "- N/A -   "
3.08, 87.75292, 0.00524251, NaN, NaN, NaN, 0.0433376, "- N/A -   "
3.09, 88.10676, 0.005261945, NaN, NaN, NaN, 0.04211683, "- N/A -   "
3.1, 88.34265, 0.005281382, NaN, NaN, NaN, 0.04089605, "- N/A -   "
3.11, 88.8144, 0.00530082, NaN, NaN, NaN, 0.0396753, "- N/A -   "
3.12, 89.16828, 0.005320257, NaN, NaN, NaN, 0.0384545, "- N/A -   "
3.13, 89.52213, 0.00533969, NaN, NaN, NaN, 0.0372337, "- N/A -   "
3.14, 89.99392, 0.00535913, NaN, NaN, NaN, 0.03601294, "- N/A -   "
3.15, 90.34776, 0.00537857, NaN, NaN, NaN, 0.03601294, "- N/A -   "
3.16, 90.70161, 0.005395229, NaN, NaN, NaN, 0.0347922, "- N/A -   "
3.17, 91.05545, 0.00541189, NaN, NaN, NaN, 0.0347922, "- N/A -   "
3.18, 91.2913, 0.00542855, NaN, NaN, NaN, 0.0347922, "- N/A -   "
3.19, 91.52724, 0.00544521, NaN, NaN, NaN, 0.0347922, "- N/A -   "
3.2, 91.76313, 0.005461871, NaN, NaN, NaN, 0.0347922, "- N/A -   "
3.21, 92.117, 0.00547853, NaN, NaN, NaN, 0.03601294, "- N/A -   "
3.22, 92.47082, 0.00549242, NaN, NaN, NaN, 0.03601294, "- N/A -   "
3.23, 92.82466, 0.005511852, NaN, NaN, NaN, 0.03601294, "- N/A -   "
3.24, 93.1785, 0.00552851, NaN, NaN, NaN, 0.0347922, "- N/A -   "
3.25, 93.41439, 0.00554517, NaN, NaN, NaN, 0.0347922, "- N/A -   "
3.26, 93.65029, 0.00556183, NaN, NaN, NaN, 0.0347922, "- N/A -   "
3.27, 93.8862, 0.005578494, NaN, NaN, NaN, 0.0347922, "- N/A -   "
3.28, 94.35797, 0.00559516, NaN, NaN, NaN, 0.0347922, "- N/A -   "
3.29, 94.59387, 0.00561182, NaN, NaN, NaN, 0.0347922, "- N/A -   "
3.3, 94.9477, 0.005628476, NaN, NaN, NaN, 0.0347922, "- N/A -   "
3.31, 95.41951, 0.005645136, NaN, NaN, NaN, 0.0347922, "- N/A -   "
3.32, 95.6554, 0.00566457, NaN, NaN, NaN, 0.0347922, "- N/A -   "
3.33, 96.00924, 0.005681234, NaN, NaN, NaN, 0.0335714, "- N/A -   "
3.34, 96.481, 0.00570067, NaN, NaN, NaN, 0.0335714, "- N/A -   "
3.35, 96.83487, 0.005720109, NaN, NaN, NaN, 0.0323506, "- N/A -   "
3.36, 97.18872, 0.00573677, NaN, NaN, NaN, 0.03112983, "- N/A -   "
3.37, 97.4246, 0.00575898, NaN, NaN, NaN, 0.0299091, "- N/A -   "
3.38, 97.8964, 0.005775644, NaN, NaN, NaN, 0.0286883, "- N/A -   "
3.39, 98.2502, 0.005792304, NaN, NaN, NaN, 0.0286883, "- N/A -   "
3.4, 98.4861, 0.00580897, NaN, NaN, NaN, 0.0286883, "- N/A -   "
3.41, 98.83998, 0.00582563, NaN, NaN, NaN, 0.0286883, "- N/A -   "
3.42, 99.0759, 0.00584229, NaN, NaN, NaN, 0.0299091, "- N/A -   "
3.43, 99.42972, 0.00585617, NaN, NaN, NaN, 0.0299091, "- N/A -   "
3.44, 99.66561, 0.00587005, NaN, NaN, NaN, 0.03112983, "- N/A -   "
3.45, 100.019, 0.005886714, NaN, NaN, NaN, 0.03112983, "- N/A -   "
3.46, 100.3733, 0.0059006, NaN, NaN, NaN, 0.0323506, "- N/A -   "
3.47, 100.491, 0.005917258, NaN, NaN, NaN, 0.0335714, "- N/A -   "
3.48, 100.845, 0.005933918, NaN, NaN, NaN, 0.0323506, "- N/A -   "
3.49, 101.081, 0.00595058, NaN, NaN, NaN, 0.0335714, "- N/A -   "
3.5, 101.435, 0.00596446, NaN, NaN, NaN, 0.0335714, "- N/A -   "
3.51, 101.789, 0.00597835, NaN, NaN, NaN, 0.0347922, "- N/A -   "
3.52, 102.025, 0.00599223, NaN, NaN, NaN, 0.03601294, "- N/A -   "
3.53, 102.26, 0.006006114, NaN, NaN, NaN, 0.0372337, "- N/A -   "
3.54, 102.496, 0.006019998, NaN, NaN, NaN, 0.0384545, "- N/A -   "
3.55, 102.85, 0.006033882, NaN, NaN, NaN, 0.0396753, "- N/A -   "
3.56, 102.968, 0.00604777, NaN, NaN, NaN, 0.04089605, "- N/A -   "
3.57, 103.322, 0.00606165, NaN, NaN, NaN, 0.04211683, "- N/A -   "
3.58, 103.676, 0.00607553, NaN, NaN, NaN, 0.0433376, "- N/A -   "
3.59, 103.912, 0.00609219, NaN, NaN, NaN, 0.0445584, "- N/A -   "
3.6, 104.266, 0.00610608, NaN, NaN, NaN, 0.0445584, "- N/A -   "
3.61, 104.619, 0.00612274, NaN, NaN, NaN, 0.0445584, "- N/A -   "
3.62, 104.855, 0.006139398, NaN, NaN, NaN, 0.04577916, "- N/A -   "
3.63, 105.209, 0.00615884, NaN, NaN, NaN, 0.04577916, "- N/A -   "
3.64, 105.681, 0.006175496, NaN, NaN, NaN, 0.0445584, "- N/A -   "
3.65, 106.035, 0.006192156, NaN, NaN, NaN, 0.0445584, "- N/A -   "
3.66, 106.271, 0.00620604, NaN, NaN, NaN, 0.04577916, "- N/A -   "
3.67, 106.625, 0.0062227, NaN, NaN, NaN, 0.04699994, "- N/A -   "
3.68, 106.978, 0.00623936, NaN, NaN, NaN, 0.04699994, "- N/A -   "
3.69, 107.3322, 0.006256022, NaN, NaN, NaN, 0.04577916, "- N/A -   "
3.7, 107.804, 0.00627546, NaN, NaN, NaN, 0.0445584, "- N/A -   "
3.71, 108.158, 0.0062949, NaN, NaN, NaN, 0.0433376, "- N/A -   "
3.72, 108.63, 0.006314334, NaN, NaN, NaN, 0.04211683, "- N/A -   "
3.73, 108.866, 0.00633377, NaN, NaN, NaN, 0.04089605, "- N/A -   "
3.74, 109.3373, 0.00635043, NaN, NaN, NaN, 0.04089605, "- N/A -   "
3.75, 109.691, 0.00636987, NaN, NaN, NaN, 0.0396753, "- N/A -   "
3.76, 110.045, 0.00638653, NaN, NaN, NaN, 0.0396753, "- N/A -   "
3.77, 110.399, 0.00640319, NaN, NaN, NaN, 0.0396753, "- N/A -   "
3.78, 110.753, 0.00642263, NaN, NaN, NaN, 0.0384545, "- N/A -   "
3.79, 111.224, 0.00644484, NaN, NaN, NaN, 0.0372337, "- N/A -   "
3.8, 111.578, 0.006461502, NaN, NaN, NaN, 0.03601294, "- N/A -   "
3.81, 112.0501, 0.00648094, NaN, NaN, NaN, 0.0347922, "- N/A -   "
3.82, 112.404, 0.0064976, NaN, NaN, NaN, 0.0347922, "- N/A -   "
3.83, 112.758, 0.00651704, NaN, NaN, NaN, 0.0335714, "- N/A -   "
3.84, 113.112, 0.006533697, NaN, NaN, NaN, 0.0335714, "- N/A -   "
3.85, 113.348, 0.006550358, NaN, NaN, NaN, 0.0335714, "- N/A -   "
3.86, 113.819, 0.006567018, NaN, NaN, NaN, 0.0335714, "- N/A -   "
3.87, 114.173, 0.00658368, NaN, NaN, NaN, 0.0335714, "- N/A -   "
3.88, 114.409, 0.00660034, NaN, NaN, NaN, 0.0335714, "- N/A -   "
3.89, 114.763, 0.006619776, NaN, NaN, NaN, 0.0335714, "- N/A -   "
3.9, 115.235, 0.00663644, NaN, NaN, NaN, 0.0335714, "- N/A -   "
3.91, 115.471, 0.006653098, NaN, NaN, NaN, 0.0323506, "- N/A -   "
3.92, 115.942, 0.00667253, NaN, NaN, NaN, 0.0323506, "- N/A -   "
3.93, 116.178, 0.006689196, NaN, NaN, NaN, 0.0323506, "- N/A -   "
3.94, 116.65, 0.006705856, NaN, NaN, NaN, 0.03112983, "- N/A -   "
3.95, 117.004, 0.00672529, NaN, NaN, NaN, 0.0299091, "- N/A -   "
3.96, 117.358, 0.00674473, NaN, NaN, NaN, 0.0299091, "- N/A -   "
3.97, 117.712, 0.00676139, NaN, NaN, NaN, 0.0299091, "- N/A -   "
3.98, 118.065, 0.006778052, NaN, NaN, NaN, 0.0286883, "- N/A -   "
3.99, 118.419, 0.006794712, NaN, NaN, NaN, 0.0299091, "- N/A -   "
4, 118.7731, 0.006808596, NaN, NaN, NaN, 0.0299091, "- N/A -   "
4.01, 119.127, 0.00682803, NaN, NaN, NaN, 0.0299091, "- N/A -   "
4.02, 119.481, 0.00684192, NaN, NaN, NaN, 0.0299091, "- N/A -   "
4.03, 119.717, 0.00685858, NaN, NaN, NaN, 0.0299091, "- N/A -   "
4.04, 120.071, 0.006875238, NaN, NaN, NaN, 0.0299091, "- N/A -   "
4.05, 120.424, 0.0068919, NaN, NaN, NaN, 0.0299091, "- N/A -   "
4.06, 120.778, 0.00690856, NaN, NaN, NaN, 0.0299091, "- N/A -   "
4.07, 121.132, 0.00692522, NaN, NaN, NaN, 0.0299091, "- N/A -   "
4.08, 121.486, 0.00694188, NaN, NaN, NaN, 0.03112983, "- N/A -   "
4.09, 121.84, 0.006955764, NaN, NaN, NaN, 0.03112983, "- N/A -   "
4.1, 122.194, 0.006972424, NaN, NaN, NaN, 0.03112983, "- N/A -   "
4.11, 122.429, 0.006986308, NaN, NaN, NaN, 0.0323506, "- N/A -   "
4.12, 122.783, 0.00700297, NaN, NaN, NaN, 0.0323506, "- N/A -   "
4.13, 123.019, 0.007016852, NaN, NaN, NaN, 0.0335714, "- N/A -   "
4.14, 123.373, 0.007030736, NaN, NaN, NaN, 0.0347922, "- N/A -   "
4.15, 123.491, 0.00704184, NaN, NaN, NaN, 0.0372337, "- N/A -   "
4.16, 123.963, 0.0070585, NaN, NaN, NaN, 0.0372337, "- N/A -   "
4.17, 124.199, 0.007072387, NaN, NaN, NaN, 0.0384545, "- N/A -   "
4.18, 124.553, 0.00708627, NaN, NaN, NaN, 0.0396753, "- N/A -   "
4.19, 124.788, 0.007102931, NaN, NaN, NaN, 0.04089605, "- N/A -   "
4.2, 125.142, 0.00711681, NaN, NaN, NaN, 0.04089605, "- N/A -   "
4.21, 125.496, 0.007133476, NaN, NaN, NaN, 0.04211683, "- N/A -   "
4.22, 125.732, 0.00714736, NaN, NaN, NaN, 0.04211683, "- N/A -   "
4.23, 126.086, 0.00716402, NaN, NaN, NaN, 0.0433376, "- N/A -   "
4.24, 126.44, 0.0071779, NaN, NaN, NaN, 0.0433376, "- N/A -   "
4.25, 126.794, 0.00719734, NaN, NaN, NaN, 0.0433376, "- N/A -   "
4.26, 127.265, 0.00721122, NaN, NaN, NaN, 0.0433376, "- N/A -   "
4.27, 127.619, 0.00722511, NaN, NaN, NaN, 0.0445584, "- N/A -   "
4.28, 127.737, 0.00724177, NaN, NaN, NaN, 0.0445584, "- N/A -   "
4.29, 128.209, 0.00725843, NaN, NaN, NaN, 0.0445584, "- N/A -   "
4.3, 128.4448, 0.007272313, NaN, NaN, NaN, 0.04577916, "- N/A -   "
4.31, 128.917, 0.00729175, NaN, NaN, NaN, 0.04577916, "- N/A -   "
4.32, 129.152, 0.00730563, NaN, NaN, NaN, 0.04577916, "- N/A -   "
4.33, 129.506, 0.00732229, NaN, NaN, NaN, 0.04577916, "- N/A -   "
4.34, 129.86, 0.007338955, NaN, NaN, NaN, 0.04577916, "- N/A -   "
4.35, 130.214, 0.00735562, NaN, NaN, NaN, 0.04577916, "- N/A -   "
4.36, 130.6858, 0.00737228, NaN, NaN, NaN, 0.04577916, "- N/A -   "
4.37, 131.04, 0.007388937, NaN, NaN, NaN, 0.04577916, "- N/A -   "
4.38, 131.393, 0.00740837, NaN, NaN, NaN, 0.0445584, "- N/A -   "
4.39, 131.629, 0.00742503, NaN, NaN, NaN, 0.04577916, "- N/A -   "
4.4, 132.101, 0.007441695, NaN, NaN, NaN, 0.0445584, "- N/A -   "
4.41, 132.573, 0.00745836, NaN, NaN, NaN, 0.0445584, "- N/A -   "
4.42, 132.809, 0.007477793, NaN, NaN, NaN, 0.0445584, "- N/A -   "
4.43, 133.281, 0.00749723, NaN, NaN, NaN, 0.0433376, "- N/A -   "
4.44, 133.87, 0.007516667, NaN, NaN, NaN, 0.04211683, "- N/A -   "
4.45, 134.106, 0.007536105, NaN, NaN, NaN, 0.0396753, "- N/A -   "
4.46, 134.578, 0.00755554, NaN, NaN, NaN, 0.0384545, "- N/A -   "
4.47, 135.05, 0.00757498, NaN, NaN, NaN, 0.0372337, "- N/A -   "
4.48, 135.522, 0.007594417, NaN, NaN, NaN, 0.03601294, "- N/A -   "
4.49, 135.875, 0.007613853, NaN, NaN, NaN, 0.0347922, "- N/A -   "
4.5, 136.347, 0.00763329, NaN, NaN, NaN, 0.0335714, "- N/A -   "
4.51, 136.819, 0.00765273, NaN, NaN, NaN, 0.0323506, "- N/A -   "
4.52, 137.055, 0.007672165, NaN, NaN, NaN, 0.03112983, "- N/A -   "
4.53, 137.6447, 0.00768883, NaN, NaN, NaN, 0.03112983, "- N/A -   "
4.54, 137.999, 0.007705487, NaN, NaN, NaN, 0.03112983, "- N/A -   "
4.55, 138.352, 0.007724923, NaN, NaN, NaN, 0.0299091, "- N/A -   "
4.56, 138.706, 0.00774158, NaN, NaN, NaN, 0.0299091, "- N/A -   "
4.57, 139.06, 0.007758245, NaN, NaN, NaN, 0.03112983, "- N/A -   "
4.58, 139.296, 0.00777213, NaN, NaN, NaN, 0.03112983, "- N/A -   "
4.59, 139.532, 0.00778601, NaN, NaN, NaN, 0.0323506, "- N/A -   "
4.6, 140.004, 0.00780545, NaN, NaN, NaN, 0.0323506, "- N/A -   "
4.61, 140.24, 0.007819333, NaN, NaN, NaN, 0.0323506, "- N/A -   "
4.62, 140.711, 0.007838771, NaN, NaN, NaN, 0.0323506, "- N/A -   "
4.63, 141.065, 0.007852655, NaN, NaN, NaN, 0.0323506, "- N/A -   "
4.64, 141.301, 0.007869315, NaN, NaN, NaN, 0.0323506, "- N/A -   "
4.65, 141.773, 0.007885975, NaN, NaN, NaN, 0.0323506, "- N/A -   "
4.66, 142.009, 0.007902635, NaN, NaN, NaN, 0.0323506, "- N/A -   "
4.67, 142.3626, 0.007916519, NaN, NaN, NaN, 0.0335714, "- N/A -   "
4.68, 142.716, 0.007933181, NaN, NaN, NaN, 0.0335714, "- N/A -   "
4.69, 143.07, 0.007947063, NaN, NaN, NaN, 0.0347922, "- N/A -   "
4.7, 143.424, 0.007963724, NaN, NaN, NaN, 0.0347922, "- N/A -   "
4.71, 143.778, 0.007977609, NaN, NaN, NaN, 0.03601294, "- N/A -   "
4.72, 144.132, 0.007994269, NaN, NaN, NaN, 0.03601294, "- N/A -   "
4.73, 144.368, 0.008010929, NaN, NaN, NaN, 0.0372337, "- N/A -   "
4.74, 144.722, 0.008027589, NaN, NaN, NaN, 0.0372337, "- N/A -   "
4.75, 145.193, 0.008041473, NaN, NaN, NaN, 0.0372337, "- N/A -   "
4.76, 145.547, 0.008058134, NaN, NaN, NaN, 0.0372337, "- N/A -   "
4.77, 145.901, 0.008074795, NaN, NaN, NaN, 0.0372337, "- N/A -   "
4.78, 146.255, 0.008088679, NaN, NaN, NaN, 0.0384545, "- N/A -   "
4.79, 146.6087, 0.008108115, NaN, NaN, NaN, 0.0384545, "- N/A -   "
4.8, 146.963, 0.008124775, NaN, NaN, NaN, 0.0372337, "- N/A -   "
4.81, 147.434, 0.008141437, NaN, NaN, NaN, 0.0372337, "- N/A -   "
4.82, 147.906, 0.00816365, NaN, NaN, NaN, 0.03601294, "- N/A -   "
4.83, 148.142, 0.008177535, NaN, NaN, NaN, 0.03601294, "- N/A -   "
4.84, 148.6138, 0.008194195, NaN, NaN, NaN, 0.03601294, "- N/A -   "
4.85, 148.968, 0.008210856, NaN, NaN, NaN, 0.03601294, "- N/A -   "
4.86, 149.3215, 0.008227515, NaN, NaN, NaN, 0.0372337, "- N/A -   "
4.87, 149.557, 0.008241399, NaN, NaN, NaN, 0.0372337, "- N/A -   "
4.88, 149.911, 0.008255283, NaN, NaN, NaN, 0.0384545, "- N/A -   "
4.89, 150.147, 0.008271944, NaN, NaN, NaN, 0.0396753, "- N/A -   "
4.9, 150.501, 0.008285827, NaN, NaN, NaN, 0.0396753, "- N/A -   "
4.91, 150.855, 0.008299711, NaN, NaN, NaN, 0.04211683, "- N/A -   "
4.92, 151.091, 0.008313595, NaN, NaN, NaN, 0.04211683, "- N/A -   "
4.93, 151.445, 0.00832748, NaN, NaN, NaN, 0.0433376, "- N/A -   "
4.94, 151.798, 0.008344139, NaN, NaN, NaN, 0.0433376, "- N/A -   "
4.95, 152.034, 0.008360799, NaN, NaN, NaN, 0.0445584, "- N/A -   "
4.96, 152.388, 0.008377461, NaN, NaN, NaN, 0.0445584, "- N/A -   "
4.97, 152.86, 0.008391344, NaN, NaN, NaN, 0.0445584, "- N/A -   "
4.98, 153.096, 0.008408005, NaN, NaN, NaN, 0.0445584, "- N/A -   "
4.99, 153.568, 0.008421889, NaN, NaN, NaN, 0.04577916, "- N/A -   "
5, 153.921, 0.008438549, NaN, NaN, NaN, 0.04577916, "- N/A -   "
5.01, 154.2753, 0.008455209, NaN, NaN, NaN, 0.04577916, "- N/A -   "
5.02, 154.629, 0.00847187, NaN, NaN, NaN, 0.04577916, "- N/A -   "
5.03, 155.219, 0.00849131, NaN, NaN, NaN, 0.0445584, "- N/A -   "
5.04, 155.455, 0.008507968, NaN, NaN, NaN, 0.0445584, "- N/A -   "
5.05, 155.927, 0.008530182, NaN, NaN, NaN, 0.0433376, "- N/A -   "
5.06, 156.398, 0.00854962, NaN, NaN, NaN, 0.04211683, "- N/A -   "
5.07, 156.87, 0.008569056, NaN, NaN, NaN, 0.04089605, "- N/A -   "
5.08, 157.224, 0.00858572, NaN, NaN, NaN, 0.0396753, "- N/A -   "
5.09, 157.696, 0.008607931, NaN, NaN, NaN, 0.0372337, "- N/A -   "
5.1, 158.168, 0.008627368, NaN, NaN, NaN, 0.0372337, "- N/A -   "
5.11, 158.521, 0.00864403, NaN, NaN, NaN, 0.03601294, "- N/A -   "
5.12, 158.875, 0.008663465, NaN, NaN, NaN, 0.03601294, "- N/A -   "
5.13, 159.465, 0.008682903, NaN, NaN, NaN, 0.0347922, "- N/A -   "
5.14, 159.937, 0.00870234, NaN, NaN, NaN, 0.0335714, "- N/A -   "
5.15, 160.173, 0.008721777, NaN, NaN, NaN, 0.03112983, "- N/A -   "
5.16, 160.7624, 0.008738438, NaN, NaN, NaN, 0.03112983, "- N/A -   "
5.17, 161.116, 0.008757875, NaN, NaN, NaN, 0.0299091, "- N/A -   "
5.18, 161.4701, 0.008777313, NaN, NaN, NaN, 0.0286883, "- N/A -   "
5.19, 161.942, 0.00879675, NaN, NaN, NaN, 0.0274675, "- N/A -   "
5.2, 162.296, 0.00881341, NaN, NaN, NaN, 0.0274675, "- N/A -   "
5.21, 162.65, 0.008830071, NaN, NaN, NaN, 0.0274675, "- N/A -   "
5.22, 163.0034, 0.008846732, NaN, NaN, NaN, 0.0286883, "- N/A -   "
5.23, 163.357, 0.008860615, NaN, NaN, NaN, 0.0286883, "- N/A -   "
5.24, 163.711, 0.00887728, NaN, NaN, NaN, 0.0286883, "- N/A -   "
5.25, 163.947, 0.00889116, NaN, NaN, NaN, 0.0299091, "- N/A -   "
5.26, 164.301, 0.00890782, NaN, NaN, NaN, 0.03112983, "- N/A -   "
5.27, 164.655, 0.008921703, NaN, NaN, NaN, 0.0323506, "- N/A -   "
5.28, 165.009, 0.00893559, NaN, NaN, NaN, 0.0323506, "- N/A -   "
5.29, 165.2444, 0.008949472, NaN, NaN, NaN, 0.0335714, "- N/A -   "
5.3, 165.4803, 0.008963356, NaN, NaN, NaN, 0.0347922, "- N/A -   "
5.31, 165.834, 0.008977239, NaN, NaN, NaN, 0.03601294, "- N/A -   "
5.32, 166.188, 0.008993899, NaN, NaN, NaN, 0.03601294, "- N/A -   "
5.33, 166.542, 0.00901056, NaN, NaN, NaN, 0.03601294, "- N/A -   "
5.34, 166.896, 0.00902722, NaN, NaN, NaN, 0.0372337, "- N/A -   "
5.35, 167.25, 0.009041104, NaN, NaN, NaN, 0.0372337, "- N/A -   "
5.36, 167.7213, 0.009057764, NaN, NaN, NaN, 0.0372337, "- N/A -   "
5.37, 168.075, 0.009077202, NaN, NaN, NaN, 0.03601294, "- N/A -   "
5.38, 168.547, 0.009096639, NaN, NaN, NaN, 0.0347922, "- N/A -   "
5.39, 168.901, 0.0091133, NaN, NaN, NaN, 0.0347922, "- N/A -   "
5.4, 169.255, 0.009132737, NaN, NaN, NaN, 0.0347922, "- N/A -   "
5.41, 169.726, 0.009149398, NaN, NaN, NaN, 0.0335714, "- N/A -   "
5.42, 170.08, 0.009166058, NaN, NaN, NaN, 0.0335714, "- N/A -   "
5.43, 170.552, 0.009185496, NaN, NaN, NaN, 0.0335714, "- N/A -   "
5.44, 170.906, 0.009202156, NaN, NaN, NaN, 0.0323506, "- N/A -   "
5.45, 171.378, 0.009218816, NaN, NaN, NaN, 0.0323506, "- N/A -   "
5.46, 171.732, 0.009235476, NaN, NaN, NaN, 0.0323506, "- N/A -   "
5.47, 171.9674, 0.00925214, NaN, NaN, NaN, 0.0335714, "- N/A -   "
5.48, 172.321, 0.009266022, NaN, NaN, NaN, 0.0347922, "- N/A -   "
5.49, 172.6751, 0.009279904, NaN, NaN, NaN, 0.0347922, "- N/A -   "
5.5, 173.029, 0.009296565, NaN, NaN, NaN, 0.0347922, "- N/A -   "
5.51, 173.265, 0.00931045, NaN, NaN, NaN, 0.03601294, "- N/A -   "
5.52, 173.737, 0.00932711, NaN, NaN, NaN, 0.03601294, "- N/A -   "
5.53, 174.09, 0.009340994, NaN, NaN, NaN, 0.0372337, "- N/A -   "
5.54, 174.326, 0.009357654, NaN, NaN, NaN, 0.0372337, "- N/A -   "
5.55, 174.562, 0.009371538, NaN, NaN, NaN, 0.0384545, "- N/A -   "
5.56, 174.798, 0.009385422, NaN, NaN, NaN, 0.0396753, "- N/A -   "
5.57, 175.388, 0.009402082, NaN, NaN, NaN, 0.0396753, "- N/A -   "
5.58, 175.624, 0.00941597, NaN, NaN, NaN, 0.04089605, "- N/A -   "
5.59, 175.86, 0.00942985, NaN, NaN, NaN, 0.04211683, "- N/A -   "
5.6, 176.214, 0.00944651, NaN, NaN, NaN, 0.04211683, "- N/A -   "
5.61, 176.567, 0.009463171, NaN, NaN, NaN, 0.04211683, "- N/A -   "
5.62, 176.9212, 0.00947983, NaN, NaN, NaN, 0.04211683, "- N/A -   "
5.63, 177.393, 0.009499268, NaN, NaN, NaN, 0.04211683, "- N/A -   "
5.64, 177.865, 0.009515928, NaN, NaN, NaN, 0.04089605, "- N/A -   "
5.65, 178.219, 0.009535366, NaN, NaN, NaN, 0.04089605, "- N/A -   "
5.66, 178.69, 0.009552026, NaN, NaN, NaN, 0.0396753, "- N/A -   "
5.67, 179.044, 0.009568687, NaN, NaN, NaN, 0.0396753, "- N/A -   "
5.68, 179.3981, 0.009582571, NaN, NaN, NaN, 0.04089605, "- N/A -   "
5.69, 179.752, 0.009602008, NaN, NaN, NaN, 0.04089605, "- N/A -   "
5.7, 180.106, 0.009618668, NaN, NaN, NaN, 0.04089605, "- N/A -   "
5.71, 180.46, 0.009632552, NaN, NaN, NaN, 0.04089605, "- N/A -   "
5.72, 180.931, 0.00964921, NaN, NaN, NaN, 0.04089605, "- N/A -   "
5.73, 181.285, 0.009665874, NaN, NaN, NaN, 0.04089605, "- N/A -   "
5.74, 181.757, 0.009685311, NaN, NaN, NaN, 0.04089605, "- N/A -   "
5.75, 181.993, 0.009701971, NaN, NaN, NaN, 0.0396753, "- N/A -   "
5.76, 182.465, 0.00971863, NaN, NaN, NaN, 0.0396753, "- N/A -   "
5.77, 182.937, 0.009738068, NaN, NaN, NaN, 0.0396753, "- N/A -   "
5.78, 183.29, 0.00975473, NaN, NaN, NaN, 0.0384545, "- N/A -   "
5.79, 183.762, 0.009774166, NaN, NaN, NaN, 0.0372337, "- N/A -   "
5.8, 184.116, 0.009790827, NaN, NaN, NaN, 0.0372337, "- N/A -   "
5.81, 184.47, 0.009807487, NaN, NaN, NaN, 0.0372337, "- N/A -   "
5.82, 184.824, 0.009824148, NaN, NaN, NaN, 0.0372337, "- N/A -   "
5.83, 185.295, 0.009843585, NaN, NaN, NaN, 0.03601294, "- N/A -   "
5.84, 185.649, 0.009860246, NaN, NaN, NaN, 0.03601294, "- N/A -   "
5.85, 186.121, 0.009876906, NaN, NaN, NaN, 0.03601294, "- N/A -   "
5.86, 186.357, 0.009896343, NaN, NaN, NaN, 0.03601294, "- N/A -   "
5.87, 186.829, 0.009910227, NaN, NaN, NaN, 0.03601294, "- N/A -   "
5.88, 187.183, 0.009929664, NaN, NaN, NaN, 0.03601294, "- N/A -   "
5.89, 187.419, 0.009943549, NaN, NaN, NaN, 0.03601294, "- N/A -   "
5.9, 187.89, 0.009962985, NaN, NaN, NaN, 0.03601294, "- N/A -   "
5.91, 188.3621, 0.009979647, NaN, NaN, NaN, 0.0347922, "- N/A -   "
5.92, 188.716, 0.009996306, NaN, NaN, NaN, 0.0347922, "- N/A -   "
5.93, 189.0698, 0.0100157, NaN, NaN, NaN, 0.0335714, "- N/A -   "
5.94, 189.424, 0.0100324, NaN, NaN, NaN, 0.0347922, "- N/A -   "
5.95, 189.895, 0.0100463, NaN, NaN, NaN, 0.0347922, "- N/A -   "
5.96, 190.131, 0.0100657, NaN, NaN, NaN, 0.0347922, "- N/A -   "
[...]
35.4, 1408.08, 0.0591337, NaN, NaN, NaN, 0.0335714, "- N/A -   "
35.41, 1408.44, 0.0591476, NaN, NaN, NaN, 0.0347922, "- N/A -   "
35.42, 1408.8, 0.0591643, NaN, NaN, NaN, 0.0347922, "- N/A -   "
35.43, 1409.27, 0.05918091, NaN, NaN, NaN, 0.0347922, "- N/A -   "
35.44, 1409.75, 0.0591948, NaN, NaN, NaN, 0.03601294, "- N/A -   "
35.45, 1410.23, 0.0592115, NaN, NaN, NaN, 0.0372337, "- N/A -   "
35.46, 1410.71, 0.0592281, NaN, NaN, NaN, 0.0372337, "- N/A -   "
35.47, 1411.06, 0.0592448, NaN, NaN, NaN, 0.0372337, "- N/A -   "
35.48, 1411.42, 0.05925866, NaN, NaN, NaN, 0.0372337, "- N/A -   "
35.49, 1411.9, 0.05927532, NaN, NaN, NaN, 0.0372337, "- N/A -   "
35.5, 1412.49, 0.059292, NaN, NaN, NaN, 0.0372337, "- N/A -   "
35.51, 1412.97, 0.0593114, NaN, NaN, NaN, 0.0372337, "- N/A -   "
35.52, 1413.45, 0.0593281, NaN, NaN, NaN, 0.03601294, "- N/A -   "
35.53, 1413.93, 0.0593475, NaN, NaN, NaN, 0.0347922, "- N/A -   "
35.54, 1414.52, 0.0593642, NaN, NaN, NaN, 0.0347922, "- N/A -   "
35.55, 1415, 0.05938084, NaN, NaN, NaN, 0.0347922, "- N/A -   "
35.56, 1415.36, 0.0593975, NaN, NaN, NaN, 0.03601294, "- N/A -   "
35.57, 1415.59, 0.0594114, NaN, NaN, NaN, 0.03601294, "- N/A -   "
35.58, 1416.07, 0.0594253, NaN, NaN, NaN, 0.0372337, "- N/A -   "
35.59, 1416.55, 0.05943915, NaN, NaN, NaN, 0.0384545, "- N/A -   "
35.6, 1416.91, 0.05945581, NaN, NaN, NaN, 0.0384545, "- N/A -   "
35.61, 1417.26, 0.0594697, NaN, NaN, NaN, 0.0396753, "- N/A -   "
35.62, 1417.74, 0.0594864, NaN, NaN, NaN, 0.0396753, "- N/A -   "
35.63, 1418.22, 0.05950024, NaN, NaN, NaN, 0.04089605, "- N/A -   "
35.64, 1418.58, 0.0595169, NaN, NaN, NaN, 0.04089605, "- N/A -   "
35.65, 1419.053, 0.05953356, NaN, NaN, NaN, 0.04211683, "- N/A -   "
35.66, 1419.41, 0.0595474, NaN, NaN, NaN, 0.0433376, "- N/A -   "
35.67, 1419.77, 0.0595613, NaN, NaN, NaN, 0.0433376, "- N/A -   "
35.68, 1420.13, 0.05957521, NaN, NaN, NaN, 0.0445584, "- N/A -   "
35.69, 1420.6, 0.05959187, NaN, NaN, NaN, 0.0445584, "- N/A -   "
35.7, 1420.96, 0.0596085, NaN, NaN, NaN, 0.0445584, "- N/A -   "
35.71, 1421.438, 0.0596224, NaN, NaN, NaN, 0.04577916, "- N/A -   "
35.72, 1421.8, 0.0596391, NaN, NaN, NaN, 0.04699994, "- N/A -   "
35.73, 1422.39, 0.0596557, NaN, NaN, NaN, 0.04699994, "- N/A -   "
35.74, 1422.869, 0.0596724, NaN, NaN, NaN, 0.04577916, "- N/A -   "
35.75, 1423.35, 0.0596891, NaN, NaN, NaN, 0.04577916, "- N/A -   "
35.76, 1423.82, 0.0597085, NaN, NaN, NaN, 0.04577916, "- N/A -   "
35.77, 1424.42, 0.0597252, NaN, NaN, NaN, 0.0445584, "- N/A -   "
35.78, 1425.02, 0.0597474, NaN, NaN, NaN, 0.04211683, "- N/A -   "
35.79, 1425.61, 0.0597668, NaN, NaN, NaN, 0.04089605, "- N/A -   "
35.8, 1426.21, 0.05978902, NaN, NaN, NaN, 0.0384545, "- N/A -   "
35.81, 1426.685, 0.05980846, NaN, NaN, NaN, 0.0384545, "- N/A -   "
35.82, 1427.4, 0.0598279, NaN, NaN, NaN, 0.03601294, "- N/A -   "
35.83, 1427.88, 0.05984733, NaN, NaN, NaN, 0.03601294, "- N/A -   "
35.84, 1428.35, 0.0598668, NaN, NaN, NaN, 0.0347922, "- N/A -   "
35.85, 1428.83, 0.0598834, NaN, NaN, NaN, 0.0335714, "- N/A -   "
35.86, 1429.31, 0.05990009, NaN, NaN, NaN, 0.0335714, "- N/A -   "
35.87, 1429.79, 0.0599195, NaN, NaN, NaN, 0.0335714, "- N/A -   "
35.88, 1430.382, 0.0599362, NaN, NaN, NaN, 0.0323506, "- N/A -   "
35.89, 1430.86, 0.0599528, NaN, NaN, NaN, 0.0323506, "- N/A -   "
35.9, 1431.34, 0.0599695, NaN, NaN, NaN, 0.0323506, "- N/A -   "
35.91, 1431.69, 0.05998617, NaN, NaN, NaN, 0.0335714, "- N/A -   "
35.92, 1432.05, 0.0600001, NaN, NaN, NaN, 0.0335714, "- N/A -   "
35.93, 1432.53, 0.0600167, NaN, NaN, NaN, 0.0347922, "- N/A -   "
35.94, 1432.767, 0.06002782, NaN, NaN, NaN, 0.03601294, "- N/A -   "
35.95, 1433.12, 0.0600417, NaN, NaN, NaN, 0.0372337, "- N/A -   "
35.96, 1433.48, 0.06005559, NaN, NaN, NaN, 0.0384545, "- N/A -   "
35.97, 1433.721, 0.06006947, NaN, NaN, NaN, 0.0396753, "- N/A -   "
35.98, 1434.198, 0.06008613, NaN, NaN, NaN, 0.0396753, "- N/A -   "
35.99, 1434.675, 0.0601, NaN, NaN, NaN, 0.04089605, "- N/A -   "
36, 1435.15, 0.0601195, NaN, NaN, NaN, 0.0396753, "- N/A -   "
36.01, 1435.63, 0.0601361, NaN, NaN, NaN, 0.0396753, "- N/A -   "
36.02, 1435.99, 0.0601528, NaN, NaN, NaN, 0.0396753, "- N/A -   "
36.03, 1436.46, 0.0601694, NaN, NaN, NaN, 0.04089605, "- N/A -   "
36.04, 1436.94, 0.0601833, NaN, NaN, NaN, 0.04089605, "- N/A -   "
36.05, 1437.42, 0.0602, NaN, NaN, NaN, 0.04089605, "- N/A -   "
36.06, 1437.89, 0.0602166, NaN, NaN, NaN, 0.04089605, "- N/A -   "
36.07, 1438.37, 0.0602361, NaN, NaN, NaN, 0.04089605, "- N/A -   "
36.08, 1438.85, 0.0602555, NaN, NaN, NaN, 0.0396753, "- N/A -   "
36.09, 1439.33, 0.0602722, NaN, NaN, NaN, 0.0384545, "- N/A -   "
36.1, 1439.922, 0.06029161, NaN, NaN, NaN, 0.0372337, "- N/A -   "
36.11, 1440.52, 0.0603138, NaN, NaN, NaN, 0.03601294, "- N/A -   "
36.12, 1441.11, 0.0603333, NaN, NaN, NaN, 0.0347922, "- N/A -   "
36.13, 1441.71, 0.0603499, NaN, NaN, NaN, 0.0335714, "- N/A -   "
36.14, 1442.07, 0.06036936, NaN, NaN, NaN, 0.0335714, "- N/A -   "
36.15, 1442.66, 0.06038602, NaN, NaN, NaN, 0.0323506, "- N/A -   "
36.16, 1443.02, 0.06040268, NaN, NaN, NaN, 0.0323506, "- N/A -   "
36.17, 1443.38, 0.0604193, NaN, NaN, NaN, 0.0335714, "- N/A -   "
36.18, 1443.86, 0.0604332, NaN, NaN, NaN, 0.0335714, "- N/A -   "
36.19, 1444.33, 0.0604499, NaN, NaN, NaN, 0.0335714, "- N/A -   "
36.2, 1444.69, 0.06046377, NaN, NaN, NaN, 0.0347922, "- N/A -   "
36.21, 1445.05, 0.0604777, NaN, NaN, NaN, 0.03601294, "- N/A -   "
36.22, 1445.41, 0.06049154, NaN, NaN, NaN, 0.0372337, "- N/A -   "
36.23, 1446, 0.0605082, NaN, NaN, NaN, 0.0384545, "- N/A -   "
36.24, 1446.36, 0.06052208, NaN, NaN, NaN, 0.0384545, "- N/A -   "
36.25, 1446.6, 0.0605387, NaN, NaN, NaN, 0.0396753, "- N/A -   "
36.26, 1447.08, 0.0605526, NaN, NaN, NaN, 0.0396753, "- N/A -   "
36.27, 1447.43, 0.06056651, NaN, NaN, NaN, 0.04089605, "- N/A -   "
36.28, 1447.79, 0.06058317, NaN, NaN, NaN, 0.04211683, "- N/A -   "
36.29, 1448.39, 0.0605971, NaN, NaN, NaN, 0.04211683, "- N/A -   "
36.3, 1448.75, 0.0606109, NaN, NaN, NaN, 0.0433376, "- N/A -   "
36.31, 1449.1, 0.0606276, NaN, NaN, NaN, 0.0433376, "- N/A -   "
36.32, 1449.7, 0.0606443, NaN, NaN, NaN, 0.0433376, "- N/A -   "
36.33, 1450.06, 0.0606637, NaN, NaN, NaN, 0.0433376, "- N/A -   "
36.34, 1450.65, 0.0606804, NaN, NaN, NaN, 0.04211683, "- N/A -   "
36.35, 1451.13, 0.06070257, NaN, NaN, NaN, 0.04089605, "- N/A -   "
36.36, 1451.728, 0.06072201, NaN, NaN, NaN, 0.0396753, "- N/A -   "
36.37, 1452.32, 0.0607387, NaN, NaN, NaN, 0.0384545, "- N/A -   "
36.38, 1452.8, 0.0607581, NaN, NaN, NaN, 0.0372337, "- N/A -   "
36.39, 1453.28, 0.0607748, NaN, NaN, NaN, 0.0372337, "- N/A -   "
36.4, 1453.76, 0.0607914, NaN, NaN, NaN, 0.0372337, "- N/A -   "
36.41, 1454.23, 0.0608081, NaN, NaN, NaN, 0.0384545, "- N/A -   "
36.42, 1454.59, 0.06082197, NaN, NaN, NaN, 0.0384545, "- N/A -   "
36.43, 1454.95, 0.0608386, NaN, NaN, NaN, 0.0384545, "- N/A -   "
36.44, 1455.42, 0.0608553, NaN, NaN, NaN, 0.0384545, "- N/A -   "
36.45, 1456.021, 0.060872, NaN, NaN, NaN, 0.0384545, "- N/A -   "
36.46, 1456.38, 0.0608886, NaN, NaN, NaN, 0.0384545, "- N/A -   "
36.47, 1456.86, 0.0609081, NaN, NaN, NaN, 0.0384545, "- N/A -   "
36.48, 1457.452, 0.0609247, NaN, NaN, NaN, 0.0372337, "- N/A -   "
36.49, 1457.93, 0.0609414, NaN, NaN, NaN, 0.0372337, "- N/A -   "
36.5, 1458.41, 0.06096081, NaN, NaN, NaN, 0.03601294, "- N/A -   "
36.51, 1458.883, 0.06098025, NaN, NaN, NaN, 0.03601294, "- N/A -   "
36.52, 1459.48, 0.06099691, NaN, NaN, NaN, 0.0347922, "- N/A -   "
36.53, 1459.96, 0.06101357, NaN, NaN, NaN, 0.0347922, "- N/A -   "
36.54, 1460.31, 0.0610302, NaN, NaN, NaN, 0.03601294, "- N/A -   "
36.55, 1460.79, 0.06104411, NaN, NaN, NaN, 0.03601294, "- N/A -   "
36.56, 1461.27, 0.06106077, NaN, NaN, NaN, 0.03601294, "- N/A -   "
36.57, 1461.75, 0.06108021, NaN, NaN, NaN, 0.0347922, "- N/A -   "
36.58, 1462.1, 0.06109687, NaN, NaN, NaN, 0.0347922, "- N/A -   "
36.59, 1462.58, 0.06111353, NaN, NaN, NaN, 0.0347922, "- N/A -   "
36.6, 1462.94, 0.0611302, NaN, NaN, NaN, 0.0347922, "- N/A -   "
36.61, 1463.41, 0.06114685, NaN, NaN, NaN, 0.0347922, "- N/A -   "
36.62, 1463.89, 0.06116351, NaN, NaN, NaN, 0.03601294, "- N/A -   "
36.63, 1464.37, 0.06118017, NaN, NaN, NaN, 0.0347922, "- N/A -   "
36.64, 1464.85, 0.06119961, NaN, NaN, NaN, 0.0347922, "- N/A -   "
36.65, 1465.44, 0.06121627, NaN, NaN, NaN, 0.0335714, "- N/A -   "
36.66, 1465.8, 0.06123293, NaN, NaN, NaN, 0.0335714, "- N/A -   "
36.67, 1466.16, 0.0612524, NaN, NaN, NaN, 0.0323506, "- N/A -   "
36.68, 1466.75, 0.0612718, NaN, NaN, NaN, 0.0323506, "- N/A -   "
36.69, 1467.35, 0.0612885, NaN, NaN, NaN, 0.03112983, "- N/A -   "
36.7, 1467.827, 0.0613079, NaN, NaN, NaN, 0.03112983, "- N/A -   "
36.71, 1468.42, 0.0613246, NaN, NaN, NaN, 0.0299091, "- N/A -   "
36.72, 1468.9, 0.0613412, NaN, NaN, NaN, 0.0299091, "- N/A -   "
36.73, 1469.258, 0.0613579, NaN, NaN, NaN, 0.0299091, "- N/A -   "
36.74, 1469.735, 0.06137177, NaN, NaN, NaN, 0.03112983, "- N/A -   "
36.75, 1470.212, 0.0613912, NaN, NaN, NaN, 0.03112983, "- N/A -   "
36.76, 1470.57, 0.0614051, NaN, NaN, NaN, 0.03112983, "- N/A -   "
36.77, 1471.05, 0.061419, NaN, NaN, NaN, 0.0323506, "- N/A -   "
36.78, 1471.4, 0.0614356, NaN, NaN, NaN, 0.0323506, "- N/A -   "
36.79, 1471.88, 0.0614523, NaN, NaN, NaN, 0.0335714, "- N/A -   "
36.8, 1472.36, 0.0614662, NaN, NaN, NaN, 0.0335714, "- N/A -   "
36.81, 1472.72, 0.0614828, NaN, NaN, NaN, 0.0335714, "- N/A -   "
36.82, 1473.19, 0.0614967, NaN, NaN, NaN, 0.0347922, "- N/A -   "
36.83, 1473.55, 0.0615134, NaN, NaN, NaN, 0.03601294, "- N/A -   "
36.84, 1473.91, 0.06153, NaN, NaN, NaN, 0.0347922, "- N/A -   "
36.85, 1474.39, 0.06154948, NaN, NaN, NaN, 0.0347922, "- N/A -   "
36.86, 1475.1, 0.0615661, NaN, NaN, NaN, 0.0335714, "- N/A -   "
36.87, 1475.34, 0.06158558, NaN, NaN, NaN, 0.0335714, "- N/A -   "
36.88, 1475.82, 0.0615995, NaN, NaN, NaN, 0.0335714, "- N/A -   "
36.89, 1476.41, 0.0616161, NaN, NaN, NaN, 0.0335714, "- N/A -   "
36.9, 1476.77, 0.0616328, NaN, NaN, NaN, 0.0335714, "- N/A -   "
36.91, 1477.37, 0.0616494, NaN, NaN, NaN, 0.0335714, "- N/A -   "
36.92, 1477.72, 0.0616661, NaN, NaN, NaN, 0.0335714, "- N/A -   "
36.93, 1478.08, 0.0616828, NaN, NaN, NaN, 0.0347922, "- N/A -   "
36.94, 1478.56, 0.06169665, NaN, NaN, NaN, 0.0347922, "- N/A -   "
36.95, 1479.04, 0.0617133, NaN, NaN, NaN, 0.03601294, "- N/A -   "
36.96, 1479.39, 0.0617272, NaN, NaN, NaN, 0.03601294, "- N/A -   "
36.97, 1479.75, 0.0617411, NaN, NaN, NaN, 0.0372337, "- N/A -   "
36.98, 1480.35, 0.0617577, NaN, NaN, NaN, 0.0372337, "- N/A -   "
36.99, 1480.71, 0.06177162, NaN, NaN, NaN, 0.0384545, "- N/A -   "
37, 1480.94, 0.06178828, NaN, NaN, NaN, 0.0396753, "- N/A -   "
37.01, 1481.42, 0.0618022, NaN, NaN, NaN, 0.0396753, "- N/A -   "
37.02, 1481.9, 0.0618188, NaN, NaN, NaN, 0.0396753, "- N/A -   "
37.03, 1482.38, 0.06183271, NaN, NaN, NaN, 0.04089605, "- N/A -   "
37.04, 1482.73, 0.06184937, NaN, NaN, NaN, 0.04089605, "- N/A -   "
37.05, 1483.09, 0.06186603, NaN, NaN, NaN, 0.04089605, "- N/A -   "
37.06, 1483.57, 0.0618827, NaN, NaN, NaN, 0.04211683, "- N/A -   "
37.07, 1483.926, 0.0618938, NaN, NaN, NaN, 0.0433376, "- N/A -   "
37.08, 1484.4, 0.0619105, NaN, NaN, NaN, 0.0433376, "- N/A -   "
37.09, 1484.76, 0.0619271, NaN, NaN, NaN, 0.0433376, "- N/A -   "
37.1, 1485.24, 0.061941, NaN, NaN, NaN, 0.0445584, "- N/A -   "
37.11, 1485.6, 0.0619577, NaN, NaN, NaN, 0.0445584, "- N/A -   "
37.12, 1486.07, 0.06197155, NaN, NaN, NaN, 0.04577916, "- N/A -   "
37.13, 1486.43, 0.06198821, NaN, NaN, NaN, 0.04699994, "- N/A -   "
37.14, 1486.91, 0.0620049, NaN, NaN, NaN, 0.04699994, "- N/A -   "
37.15, 1487.38, 0.0620215, NaN, NaN, NaN, 0.04577916, "- N/A -   "
37.16, 1487.98, 0.0620382, NaN, NaN, NaN, 0.04577916, "- N/A -   "
37.17, 1488.46, 0.0620576, NaN, NaN, NaN, 0.04577916, "- N/A -   "
37.18, 1488.93, 0.0620771, NaN, NaN, NaN, 0.0445584, "- N/A -   "
37.19, 1489.53, 0.0620965, NaN, NaN, NaN, 0.0433376, "- N/A -   "
37.2, 1490.13, 0.06211594, NaN, NaN, NaN, 0.04211683, "- N/A -   "
37.21, 1490.72, 0.0621326, NaN, NaN, NaN, 0.04089605, "- N/A -   "
37.22, 1491.08, 0.062152, NaN, NaN, NaN, 0.0396753, "- N/A -   "
37.23, 1491.8, 0.0621715, NaN, NaN, NaN, 0.0384545, "- N/A -   "
37.24, 1492.27, 0.06219091, NaN, NaN, NaN, 0.0372337, "- N/A -   "
37.25, 1492.75, 0.0622103, NaN, NaN, NaN, 0.03601294, "- N/A -   "
37.26, 1493.23, 0.062227, NaN, NaN, NaN, 0.03601294, "- N/A -   "
37.27, 1493.7, 0.0622464, NaN, NaN, NaN, 0.03601294, "- N/A -   "
37.28, 1494.3, 0.06226033, NaN, NaN, NaN, 0.03601294, "- N/A -   "
37.29, 1494.54, 0.062277, NaN, NaN, NaN, 0.03601294, "- N/A -   "
37.3, 1495.02, 0.0622937, NaN, NaN, NaN, 0.03601294, "- N/A -   "
37.31, 1495.49, 0.0623103, NaN, NaN, NaN, 0.03601294, "- N/A -   "
37.32, 1495.97, 0.06232697, NaN, NaN, NaN, 0.03601294, "- N/A -   "
37.33, 1496.45, 0.06234363, NaN, NaN, NaN, 0.03601294, "- N/A -   "
37.34, 1496.81, 0.0623603, NaN, NaN, NaN, 0.0372337, "- N/A -   "
37.35, 1497.28, 0.062377, NaN, NaN, NaN, 0.03601294, "- N/A -   "
37.36, 1497.76, 0.0623936, NaN, NaN, NaN, 0.03601294, "- N/A -   "
37.37, 1498.24, 0.06241305, NaN, NaN, NaN, 0.03601294, "- N/A -   "
37.38, 1498.71, 0.06242971, NaN, NaN, NaN, 0.0347922, "- N/A -   "
37.39, 1499.19, 0.06244637, NaN, NaN, NaN, 0.0347922, "- N/A -   "
37.4, 1499.67, 0.06246581, NaN, NaN, NaN, 0.0347922, "- N/A -   "
37.41, 1500.26, 0.06248247, NaN, NaN, NaN, 0.0335714, "- N/A -   "
37.42, 1500.74, 0.06250191, NaN, NaN, NaN, 0.0335714, "- N/A -   "
37.43, 1501.22, 0.06251579, NaN, NaN, NaN, 0.0335714, "- N/A -   "
37.44, 1501.81, 0.062538, NaN, NaN, NaN, 0.03112983, "- N/A -   "
37.45, 1502.29, 0.0625574, NaN, NaN, NaN, 0.03112983, "- N/A -   "
37.46, 1502.89, 0.06257688, NaN, NaN, NaN, 0.0299091, "- N/A -   "
37.47, 1503.36, 0.06259354, NaN, NaN, NaN, 0.0286883, "- N/A -   "
37.48, 1503.96, 0.06261298, NaN, NaN, NaN, 0.0274675, "- N/A -   "
37.49, 1504.32, 0.06262964, NaN, NaN, NaN, 0.0274675, "- N/A -   "
37.5, 1504.8, 0.0626463, NaN, NaN, NaN, 0.0274675, "- N/A -   "
37.51, 1505.27, 0.06266296, NaN, NaN, NaN, 0.0274675, "- N/A -   "
37.52, 1505.63, 0.06267684, NaN, NaN, NaN, 0.0286883, "- N/A -   "
37.53, 1506.23, 0.06269628, NaN, NaN, NaN, 0.0286883, "- N/A -   "
37.54, 1506.58, 0.06271016, NaN, NaN, NaN, 0.0286883, "- N/A -   "
37.55, 1507.06, 0.0627268, NaN, NaN, NaN, 0.0286883, "- N/A -   "
37.56, 1507.42, 0.0627407, NaN, NaN, NaN, 0.03112983, "- N/A -   "
37.57, 1507.66, 0.0627546, NaN, NaN, NaN, 0.03112983, "- N/A -   "
37.58, 1508.13, 0.0627685, NaN, NaN, NaN, 0.0323506, "- N/A -   "
37.59, 1508.492, 0.0627824, NaN, NaN, NaN, 0.0335714, "- N/A -   "
37.6, 1508.85, 0.062799, NaN, NaN, NaN, 0.0335714, "- N/A -   "
37.61, 1509.21, 0.0628129, NaN, NaN, NaN, 0.0347922, "- N/A -   "
37.62, 1509.57, 0.06282679, NaN, NaN, NaN, 0.03601294, "- N/A -   "
37.63, 1509.923, 0.06284067, NaN, NaN, NaN, 0.0372337, "- N/A -   "
37.64, 1510.4, 0.06285455, NaN, NaN, NaN, 0.0384545, "- N/A -   "
37.65, 1510.76, 0.06287121, NaN, NaN, NaN, 0.0396753, "- N/A -   "
37.66, 1511.12, 0.0628851, NaN, NaN, NaN, 0.04089605, "- N/A -   "
37.67, 1511.47, 0.062899, NaN, NaN, NaN, 0.04211683, "- N/A -   "
37.68, 1511.831, 0.06291287, NaN, NaN, NaN, 0.0433376, "- N/A -   "
37.69, 1512.19, 0.062924, NaN, NaN, NaN, 0.0445584, "- N/A -   "
37.7, 1512.55, 0.0629379, NaN, NaN, NaN, 0.04577916, "- N/A -   "
37.71, 1513.02, 0.0629545, NaN, NaN, NaN, 0.04577916, "- N/A -   "
37.72, 1513.38, 0.06297118, NaN, NaN, NaN, 0.04699994, "- N/A -   "
37.73, 1513.86, 0.06298506, NaN, NaN, NaN, 0.04699994, "- N/A -   "
37.74, 1514.216, 0.06300172, NaN, NaN, NaN, 0.04699994, "- N/A -   "
37.75, 1514.81, 0.06301838, NaN, NaN, NaN, 0.04699994, "- N/A -   "
37.76, 1515.17, 0.06303504, NaN, NaN, NaN, 0.0482207, "- N/A -   "
37.77, 1515.53, 0.06304893, NaN, NaN, NaN, 0.0482207, "- N/A -   "
37.78, 1516.124, 0.06306836, NaN, NaN, NaN, 0.0482207, "- N/A -   "
37.79, 1516.48, 0.06308503, NaN, NaN, NaN, 0.04699994, "- N/A -   "
37.8, 1517.078, 0.06310446, NaN, NaN, NaN, 0.04577916, "- N/A -   "
37.81, 1517.555, 0.0631239, NaN, NaN, NaN, 0.04577916, "- N/A -   "
37.82, 1518.15, 0.0631406, NaN, NaN, NaN, 0.0445584, "- N/A -   "
37.83, 1518.75, 0.06316, NaN, NaN, NaN, 0.0433376, "- N/A -   "
37.84, 1519.22, 0.06317943, NaN, NaN, NaN, 0.04211683, "- N/A -   "
37.85, 1519.7, 0.06319887, NaN, NaN, NaN, 0.04211683, "- N/A -   "
37.86, 1520.18, 0.06321831, NaN, NaN, NaN, 0.04089605, "- N/A -   "
37.87, 1520.89, 0.06323497, NaN, NaN, NaN, 0.0396753, "- N/A -   "
37.88, 1521.37, 0.06325441, NaN, NaN, NaN, 0.0396753, "- N/A -   "
37.89, 1521.729, 0.06327107, NaN, NaN, NaN, 0.0384545, "- N/A -   "
37.9, 1522.33, 0.06329051, NaN, NaN, NaN, 0.0372337, "- N/A -   "
37.91, 1522.8, 0.06330994, NaN, NaN, NaN, 0.0372337, "- N/A -   "
37.92, 1523.4, 0.06332938, NaN, NaN, NaN, 0.03601294, "- N/A -   "
37.93, 1523.99, 0.063346, NaN, NaN, NaN, 0.0347922, "- N/A -   "
37.94, 1524.47, 0.0633655, NaN, NaN, NaN, 0.0347922, "- N/A -   "
37.95, 1524.83, 0.0633821, NaN, NaN, NaN, 0.0335714, "- N/A -   "
37.96, 1525.31, 0.06340157, NaN, NaN, NaN, 0.0335714, "- N/A -   "
37.97, 1525.9, 0.06341823, NaN, NaN, NaN, 0.0335714, "- N/A -   "
37.98, 1526.38, 0.06343489, NaN, NaN, NaN, 0.0323506, "- N/A -   "
37.99, 1526.74, 0.06345156, NaN, NaN, NaN, 0.0323506, "- N/A -   "
38, 1527.33, 0.06346822, NaN, NaN, NaN, 0.0323506, "- N/A -   "
38.01, 1527.81, 0.06348488, NaN, NaN, NaN, 0.0323506, "- N/A -   "
38.02, 1528.29, 0.0635043, NaN, NaN, NaN, 0.03112983, "- N/A -   "
38.03, 1528.76, 0.063521, NaN, NaN, NaN, 0.03112983, "- N/A -   "
38.04, 1529.24, 0.0635404, NaN, NaN, NaN, 0.03112983, "- N/A -   "
38.05, 1529.838, 0.06355707, NaN, NaN, NaN, 0.0299091, "- N/A -   "
38.06, 1530.2, 0.0635765, NaN, NaN, NaN, 0.0299091, "- N/A -   "
38.07, 1530.67, 0.06359317, NaN, NaN, NaN, 0.0286883, "- N/A -   "
38.08, 1531.15, 0.06360983, NaN, NaN, NaN, 0.0286883, "- N/A -   "
38.09, 1531.75, 0.06362927, NaN, NaN, NaN, 0.0274675, "- N/A -   "
38.1, 1532.22, 0.06364593, NaN, NaN, NaN, 0.0274675, "- N/A -   "
38.11, 1532.7, 0.06366259, NaN, NaN, NaN, 0.0274675, "- N/A -   "
38.12, 1533.18, 0.06368203, NaN, NaN, NaN, 0.0274675, "- N/A -   "
38.13, 1533.65, 0.06369591, NaN, NaN, NaN, 0.0274675, "- N/A -   "
38.14, 1534.131, 0.0637126, NaN, NaN, NaN, 0.0274675, "- N/A -   "
38.15, 1534.49, 0.0637292, NaN, NaN, NaN, 0.0274675, "- N/A -   "
38.16, 1534.97, 0.06374589, NaN, NaN, NaN, 0.0274675, "- N/A -   "
38.17, 1535.32, 0.06376255, NaN, NaN, NaN, 0.0274675, "- N/A -   "
38.18, 1535.8, 0.06377921, NaN, NaN, NaN, 0.0274675, "- N/A -   "
38.19, 1536.16, 0.06379309, NaN, NaN, NaN, 0.0286883, "- N/A -   "
38.2, 1536.52, 0.06380698, NaN, NaN, NaN, 0.0299091, "- N/A -   "
38.21, 1536.99, 0.06382364, NaN, NaN, NaN, 0.03112983, "- N/A -   "
38.22, 1537.59, 0.06383753, NaN, NaN, NaN, 0.03112983, "- N/A -   "
38.23, 1537.83, 0.06385141, NaN, NaN, NaN, 0.0323506, "- N/A -   "
38.24, 1538.19, 0.06386529, NaN, NaN, NaN, 0.0335714, "- N/A -   "
38.25, 1538.42, 0.06387918, NaN, NaN, NaN, 0.0347922, "- N/A -   "
38.26, 1539.02, 0.06389584, NaN, NaN, NaN, 0.03601294, "- N/A -   "
38.27, 1539.38, 0.0639097, NaN, NaN, NaN, 0.03601294, "- N/A -   "
38.28, 1539.736, 0.0639236, NaN, NaN, NaN, 0.0384545, "- N/A -   "
38.29, 1539.97, 0.0639375, NaN, NaN, NaN, 0.0384545, "- N/A -   "
38.3, 1540.45, 0.0639514, NaN, NaN, NaN, 0.0396753, "- N/A -   "
38.31, 1540.81, 0.06396525, NaN, NaN, NaN, 0.04089605, "- N/A -   "
38.32, 1541.167, 0.06397914, NaN, NaN, NaN, 0.04211683, "- N/A -   "
38.33, 1541.52, 0.0639958, NaN, NaN, NaN, 0.0433376, "- N/A -   "
38.34, 1542.12, 0.06401246, NaN, NaN, NaN, 0.04211683, "- N/A -   "
38.35, 1542.48, 0.06402912, NaN, NaN, NaN, 0.04211683, "- N/A -   "
38.36, 1543.075, 0.06404856, NaN, NaN, NaN, 0.04211683, "- N/A -   "
38.37, 1543.552, 0.06406244, NaN, NaN, NaN, 0.04211683, "- N/A -   "
38.38, 1543.91, 0.0640791, NaN, NaN, NaN, 0.0433376, "- N/A -   "
38.383, 1544.03, 0.06408188, NaN, NaN, NaN, 0.0433376, "- N/A -   "