File: 2_Tensile_Data/Hamel_ForceTest_Bolt8_Test9.csv
Time, Load (lb), Position (in), AxialStrain (in), TransverseStrain (in), Auxiliary (), Control Out (V), Stress (psi)
0.0, 12.2665, 0.0, NaN, NaN, NaN, -0.007935055, "- N/A -   "
0.01, 12.2665, 2.776752E-6, NaN, NaN, NaN, -6.103888E-4, "- N/A -   "
0.02, 12.2665, 2.776752E-6, NaN, NaN, NaN, 0.0115974, "- N/A -   "
0.03, 12.2665, 5.553504E-6, NaN, NaN, NaN, 0.0299091, "- N/A -   "
0.04, 12.2665, 1.1107e-05, NaN, NaN, NaN, 0.04699994, "- N/A -   "
0.05, 12.5024, 2.2214e-05, NaN, NaN, NaN, 0.06164927, "- N/A -   "
0.06, 12.6204, 4.16513e-05, NaN, NaN, NaN, 0.07263627, "- N/A -   "
0.07, 12.9742, 6.386529E-5, NaN, NaN, NaN, 0.08362327, "- N/A -   "
0.08, 13.3281, 8.885606E-5, NaN, NaN, NaN, 0.09094793, "- N/A -   "
0.09, 13.7999, 0.0001194, NaN, NaN, NaN, 0.0982726, "- N/A -   "
0.1, 14.0357, 1.499446E-4, NaN, NaN, NaN, 0.09705182, "- N/A -   "
0.11, 14.5075, 0.000183266, NaN, NaN, NaN, 0.09094793, "- N/A -   "
0.12, 14.7434, 0.000211033, NaN, NaN, NaN, 0.084844, "- N/A -   "
0.13, 15.2152, 0.000238801, NaN, NaN, NaN, 0.08118171, "- N/A -   "
0.14, 15.5691, 0.000266568, NaN, NaN, NaN, 0.0762986, "- N/A -   "
0.15, 15.805, 0.000291559, NaN, NaN, NaN, 0.07141549, "- N/A -   "
0.16, 16.1588, 0.000313773, NaN, NaN, NaN, 0.0689739, "- N/A -   "
0.17, 16.27675, 0.000335987, NaN, NaN, NaN, 0.06775316, "- N/A -   "
0.18, 16.6306, 0.000355424, NaN, NaN, NaN, 0.06653238, "- N/A -   "
0.19, 16.74854, 3.748615E-4, NaN, NaN, NaN, 0.0653116, "- N/A -   "
0.2, 16.9844, 0.000394299, NaN, NaN, NaN, 0.0640908, "- N/A -   "
0.21, 17.3383, 4.13736E-4, NaN, NaN, NaN, 0.06287005, "- N/A -   "
0.22, 17.4562, 4.331733E-4, NaN, NaN, NaN, 0.06164927, "- N/A -   "
0.23, 17.6921, 0.000447057, NaN, NaN, NaN, 0.06164927, "- N/A -   "
0.24, 17.8101, 4.664943E-4, NaN, NaN, NaN, 0.0604285, "- N/A -   "
0.25, 18.046, 4.831548E-4, NaN, NaN, NaN, 0.06164927, "- N/A -   "
0.26, 18.2819, 0.000499815, NaN, NaN, NaN, 0.0604285, "- N/A -   "
0.27, 18.3998, 5.192526E-4, NaN, NaN, NaN, 0.0592077, "- N/A -   "
0.28, 18.6357, 0.00053869, NaN, NaN, NaN, 0.0592077, "- N/A -   "
0.29, 18.8716, 5.581271E-4, NaN, NaN, NaN, 0.05676616, "- N/A -   "
0.3, 18.9895, 0.000577564, NaN, NaN, NaN, 0.0555454, "- N/A -   "
0.31, 19.2254, 0.000597002, NaN, NaN, NaN, 0.0543246, "- N/A -   "
0.32, 19.3434, 6.164389E-4, NaN, NaN, NaN, 0.0531038, "- N/A -   "
0.33, 19.57928, 0.000638653, NaN, NaN, NaN, 0.05066227, "- N/A -   "
0.34, 19.8152, 0.00065809, NaN, NaN, NaN, 0.0494415, "- N/A -   "
0.35, 20.169, 6.803042E-4, NaN, NaN, NaN, 0.04699994, "- N/A -   "
0.36, 20.4049, 6.997415E-4, NaN, NaN, NaN, 0.04577916, "- N/A -   "
0.37, 20.52286, 7.191787E-4, NaN, NaN, NaN, 0.0445584, "- N/A -   "
0.38, 20.8767, 0.000735839, NaN, NaN, NaN, 0.0445584, "- N/A -   "
0.39, 20.99465, 7.552765E-4, NaN, NaN, NaN, 0.0445584, "- N/A -   "
0.4, 21.2305, 7.71937E-4, NaN, NaN, NaN, 0.0433376, "- N/A -   "
0.41, 21.3485, 0.000791374, NaN, NaN, NaN, 0.04211683, "- N/A -   "
0.42, 21.5844, 8.108115E-4, NaN, NaN, NaN, 0.04211683, "- N/A -   "
0.43, 21.8203, 8.27472E-4, NaN, NaN, NaN, 0.04211683, "- N/A -   "
0.44, 21.93823, 0.000844133, NaN, NaN, NaN, 0.04089605, "- N/A -   "
0.45, 22.0562, 0.000860793, NaN, NaN, NaN, 0.04089605, "- N/A -   "
0.46, 22.29207, 8.774536E-4, NaN, NaN, NaN, 0.04089605, "- N/A -   "
0.47, 22.41, 8.968908E-4, NaN, NaN, NaN, 0.0396753, "- N/A -   "
0.48, 22.7639, 0.000913551, NaN, NaN, NaN, 0.0396753, "- N/A -   "
0.49, 22.88181, 9.329886E-4, NaN, NaN, NaN, 0.0396753, "- N/A -   "
0.5, 22.9998, 9.524259E-4, NaN, NaN, NaN, 0.0384545, "- N/A -   "
0.51, 23.2357, 0.000969086, NaN, NaN, NaN, 0.0372337, "- N/A -   "
0.52, 23.4715, 9.857469E-4, NaN, NaN, NaN, 0.0372337, "- N/A -   "
0.53, 23.7074, 0.00100518, NaN, NaN, NaN, 0.03601294, "- N/A -   "
0.54, 23.82539, 0.00102462, NaN, NaN, NaN, 0.03601294, "- N/A -   "
0.55, 24.1792, 0.00104406, NaN, NaN, NaN, 0.0347922, "- N/A -   "
0.56, 24.29718, 0.001063496, NaN, NaN, NaN, 0.0335714, "- N/A -   "
0.57, 24.4151, 0.00108016, NaN, NaN, NaN, 0.0323506, "- N/A -   "
0.58, 24.65102, 0.001096817, NaN, NaN, NaN, 0.0323506, "- N/A -   "
0.59, 24.769, 0.00111348, NaN, NaN, NaN, 0.0323506, "- N/A -   "
0.6, 25.0049, 0.00113291, NaN, NaN, NaN, 0.0323506, "- N/A -   "
0.61, 25.1228, 0.00114958, NaN, NaN, NaN, 0.03112983, "- N/A -   "
0.62, 25.2408, 0.00116901, NaN, NaN, NaN, 0.03112983, "- N/A -   "
0.63, 25.5946, 0.001185673, NaN, NaN, NaN, 0.0299091, "- N/A -   "
0.64, 25.5946, 0.00120511, NaN, NaN, NaN, 0.0299091, "- N/A -   "
0.65, 25.8305, 0.001218994, NaN, NaN, NaN, 0.0299091, "- N/A -   "
0.66, 26.0664, 0.00123565, NaN, NaN, NaN, 0.0299091, "- N/A -   "
0.67, 26.18434, 0.00125232, NaN, NaN, NaN, 0.0299091, "- N/A -   "
0.68, 26.3023, 0.0012662, NaN, NaN, NaN, 0.03112983, "- N/A -   "
0.69, 26.4202, 0.00128008, NaN, NaN, NaN, 0.0323506, "- N/A -   "
0.7, 26.6561, 0.00129397, NaN, NaN, NaN, 0.0335714, "- N/A -   "
0.71, 26.6561, 0.00130785, NaN, NaN, NaN, 0.0347922, "- N/A -   "
0.72, 26.892, 0.00132173, NaN, NaN, NaN, 0.03601294, "- N/A -   "
0.73, 27.01, 0.00133562, NaN, NaN, NaN, 0.0372337, "- N/A -   "
0.74, 27.1279, 0.0013495, NaN, NaN, NaN, 0.0384545, "- N/A -   "
0.75, 27.2459, 0.00136339, NaN, NaN, NaN, 0.0396753, "- N/A -   "
0.76, 27.4818, 0.00137727, NaN, NaN, NaN, 0.04089605, "- N/A -   "
0.77, 27.5997, 0.00139393, NaN, NaN, NaN, 0.04089605, "- N/A -   "
0.78, 27.8356, 0.00140781, NaN, NaN, NaN, 0.04211683, "- N/A -   "
0.79, 27.95355, 0.001421697, NaN, NaN, NaN, 0.0445584, "- N/A -   "
0.8, 28.0715, 0.00143558, NaN, NaN, NaN, 0.0445584, "- N/A -   "
0.81, 28.1894, 0.00145224, NaN, NaN, NaN, 0.04577916, "- N/A -   "
0.82, 28.42534, 0.00146612, NaN, NaN, NaN, 0.04577916, "- N/A -   "
0.83, 28.6612, 0.00148279, NaN, NaN, NaN, 0.04577916, "- N/A -   "
0.84, 28.7792, 0.00150222, NaN, NaN, NaN, 0.04577916, "- N/A -   "
0.85, 28.89713, 0.00151888, NaN, NaN, NaN, 0.0445584, "- N/A -   "
0.86, 29.133, 0.00153832, NaN, NaN, NaN, 0.0445584, "- N/A -   "
0.87, 29.3689, 0.001554981, NaN, NaN, NaN, 0.0433376, "- N/A -   "
0.88, 29.4869, 0.00157164, NaN, NaN, NaN, 0.0433376, "- N/A -   "
0.89, 29.7228, 0.00159108, NaN, NaN, NaN, 0.0433376, "- N/A -   "
0.9, 29.84071, 0.00160774, NaN, NaN, NaN, 0.0433376, "- N/A -   "
0.91, 30.0766, 0.0016244, NaN, NaN, NaN, 0.0433376, "- N/A -   "
0.92, 30.1946, 0.00164106, NaN, NaN, NaN, 0.0433376, "- N/A -   "
0.93, 30.4304, 0.00165772, NaN, NaN, NaN, 0.04211683, "- N/A -   "
0.94, 30.6663, 0.00167438, NaN, NaN, NaN, 0.04211683, "- N/A -   "
0.95, 30.78429, 0.00169104, NaN, NaN, NaN, 0.04211683, "- N/A -   "
0.96, 30.9022, 0.00171048, NaN, NaN, NaN, 0.04211683, "- N/A -   "
0.97, 31.1381, 0.00172714, NaN, NaN, NaN, 0.04211683, "- N/A -   "
0.98, 31.374, 0.0017438, NaN, NaN, NaN, 0.04089605, "- N/A -   "
0.99, 31.6099, 0.00176601, NaN, NaN, NaN, 0.0396753, "- N/A -   "
1, 31.72787, 0.00178267, NaN, NaN, NaN, 0.0384545, "- N/A -   "
1.01, 31.9638, 0.00179934, NaN, NaN, NaN, 0.0384545, "- N/A -   "
1.02, 32.1997, 0.001816, NaN, NaN, NaN, 0.0384545, "- N/A -   "
1.03, 32.3176, 0.001835433, NaN, NaN, NaN, 0.0372337, "- N/A -   "
1.04, 32.5535, 0.00185487, NaN, NaN, NaN, 0.03601294, "- N/A -   "
1.05, 32.67145, 0.00187431, NaN, NaN, NaN, 0.0347922, "- N/A -   "
1.06, 33.02529, 0.001890968, NaN, NaN, NaN, 0.0347922, "- N/A -   "
1.07, 33.1432, 0.001913182, NaN, NaN, NaN, 0.0335714, "- N/A -   "
1.08, 33.2612, 0.00192984, NaN, NaN, NaN, 0.0323506, "- N/A -   "
1.09, 33.49708, 0.0019465, NaN, NaN, NaN, 0.0323506, "- N/A -   "
1.1, 33.61503, 0.00196594, NaN, NaN, NaN, 0.03112983, "- N/A -   "
1.11, 33.8509, 0.00198538, NaN, NaN, NaN, 0.0299091, "- N/A -   "
1.12, 34.08682, 0.002002038, NaN, NaN, NaN, 0.0299091, "- N/A -   "
1.13, 34.3227, 0.0020187, NaN, NaN, NaN, 0.0299091, "- N/A -   "
1.14, 34.4407, 0.002038136, NaN, NaN, NaN, 0.0286883, "- N/A -   "
1.15, 34.6766, 0.002057573, NaN, NaN, NaN, 0.0286883, "- N/A -   "
1.16, 34.9125, 0.00207423, NaN, NaN, NaN, 0.0274675, "- N/A -   "
1.17, 35.0304, 0.00209089, NaN, NaN, NaN, 0.0286883, "- N/A -   "
1.18, 35.2663, 0.00210755, NaN, NaN, NaN, 0.0274675, "- N/A -   "
1.19, 35.3842, 0.00212422, NaN, NaN, NaN, 0.0274675, "- N/A -   "
1.2, 35.50219, 0.00214365, NaN, NaN, NaN, 0.0274675, "- N/A -   "
1.21, 35.7381, 0.00216031, NaN, NaN, NaN, 0.0262467, "- N/A -   "
1.22, 35.97398, 0.00217697, NaN, NaN, NaN, 0.0274675, "- N/A -   "
1.23, 36.0919, 0.002193634, NaN, NaN, NaN, 0.0262467, "- N/A -   "
1.24, 36.32782, 0.00221029, NaN, NaN, NaN, 0.0274675, "- N/A -   "
1.25, 36.44577, 0.00222418, NaN, NaN, NaN, 0.0274675, "- N/A -   "
1.26, 36.5637, 0.002238062, NaN, NaN, NaN, 0.0286883, "- N/A -   "
1.27, 36.6817, 0.00225195, NaN, NaN, NaN, 0.0299091, "- N/A -   "
1.28, 36.79961, 0.00226861, NaN, NaN, NaN, 0.03112983, "- N/A -   "
1.29, 36.9176, 0.00228249, NaN, NaN, NaN, 0.03112983, "- N/A -   "
1.3, 37.15345, 0.00229637, NaN, NaN, NaN, 0.0323506, "- N/A -   "
1.31, 37.3893, 0.00231026, NaN, NaN, NaN, 0.0335714, "- N/A -   "
1.32, 37.3893, 0.002326918, NaN, NaN, NaN, 0.0347922, "- N/A -   "
1.33, 37.6252, 0.0023408, NaN, NaN, NaN, 0.0347922, "- N/A -   "
1.34, 37.8611, 0.00235746, NaN, NaN, NaN, 0.0347922, "- N/A -   "
1.35, 37.9791, 0.00237412, NaN, NaN, NaN, 0.0347922, "- N/A -   "
1.36, 38.097, 0.00238801, NaN, NaN, NaN, 0.03601294, "- N/A -   "
1.37, 38.215, 0.002404667, NaN, NaN, NaN, 0.03601294, "- N/A -   "
1.38, 38.4509, 0.00242133, NaN, NaN, NaN, 0.03601294, "- N/A -   "
1.39, 38.5688, 0.002437988, NaN, NaN, NaN, 0.03601294, "- N/A -   "
1.4, 38.8047, 0.00245465, NaN, NaN, NaN, 0.03601294, "- N/A -   "
1.41, 38.9227, 0.00247131, NaN, NaN, NaN, 0.03601294, "- N/A -   "
1.42, 39.15856, 0.00248797, NaN, NaN, NaN, 0.03601294, "- N/A -   "
1.43, 39.3945, 0.00250741, NaN, NaN, NaN, 0.03601294, "- N/A -   "
1.44, 39.5124, 0.00252129, NaN, NaN, NaN, 0.03601294, "- N/A -   "
1.45, 39.7483, 0.00253795, NaN, NaN, NaN, 0.03601294, "- N/A -   "
1.46, 39.8662, 0.00255461, NaN, NaN, NaN, 0.03601294, "- N/A -   "
1.47, 39.98419, 0.0025685, NaN, NaN, NaN, 0.0372337, "- N/A -   "
1.48, 40.10214, 0.002585156, NaN, NaN, NaN, 0.0372337, "- N/A -   "
1.49, 40.33803, 0.00259904, NaN, NaN, NaN, 0.0384545, "- N/A -   "
1.5, 40.456, 0.00261292, NaN, NaN, NaN, 0.0396753, "- N/A -   "
1.51, 40.57393, 0.00262681, NaN, NaN, NaN, 0.04089605, "- N/A -   "
1.52, 40.8098, 0.002640691, NaN, NaN, NaN, 0.04211683, "- N/A -   "
1.53, 40.9278, 0.00265735, NaN, NaN, NaN, 0.04211683, "- N/A -   "
1.54, 41.16367, 0.00267124, NaN, NaN, NaN, 0.0433376, "- N/A -   "
1.55, 41.2816, 0.0026879, NaN, NaN, NaN, 0.0445584, "- N/A -   "
1.56, 41.39956, 0.00270178, NaN, NaN, NaN, 0.0445584, "- N/A -   "
1.57, 41.6355, 0.00271566, NaN, NaN, NaN, 0.04577916, "- N/A -   "
1.58, 41.7534, 0.00273232, NaN, NaN, NaN, 0.04577916, "- N/A -   "
1.59, 41.9893, 0.00274898, NaN, NaN, NaN, 0.04577916, "- N/A -   "
1.6, 42.1072, 0.00276564, NaN, NaN, NaN, 0.04577916, "- N/A -   "
1.61, 42.3431, 0.00278231, NaN, NaN, NaN, 0.04699994, "- N/A -   "
1.62, 42.4611, 0.002796189, NaN, NaN, NaN, 0.04699994, "- N/A -   "
1.63, 42.697, 0.00281285, NaN, NaN, NaN, 0.04699994, "- N/A -   "
1.64, 42.8149, 0.00282951, NaN, NaN, NaN, 0.04699994, "- N/A -   "
1.65, 43.1688, 0.00284895, NaN, NaN, NaN, 0.04577916, "- N/A -   "
1.66, 43.2867, 0.00286838, NaN, NaN, NaN, 0.0445584, "- N/A -   "
1.67, 43.5226, 0.0028906, NaN, NaN, NaN, 0.0433376, "- N/A -   "
1.68, 43.87646, 0.002910036, NaN, NaN, NaN, 0.04089605, "- N/A -   "
1.69, 43.9944, 0.002929473, NaN, NaN, NaN, 0.0396753, "- N/A -   "
1.7, 44.2303, 0.002951687, NaN, NaN, NaN, 0.0384545, "- N/A -   "
1.71, 44.34825, 0.00296835, NaN, NaN, NaN, 0.0384545, "- N/A -   "
1.72, 44.58414, 0.002987785, NaN, NaN, NaN, 0.03601294, "- N/A -   "
1.73, 44.93799, 0.003007222, NaN, NaN, NaN, 0.0347922, "- N/A -   "
1.74, 45.05593, 0.00302666, NaN, NaN, NaN, 0.0335714, "- N/A -   "
1.75, 45.29183, 0.00304332, NaN, NaN, NaN, 0.0335714, "- N/A -   "
1.76, 45.5277, 0.00306276, NaN, NaN, NaN, 0.0335714, "- N/A -   "
1.77, 45.6457, 0.00307942, NaN, NaN, NaN, 0.0323506, "- N/A -   "
1.78, 45.8816, 0.003096078, NaN, NaN, NaN, 0.0323506, "- N/A -   "
1.79, 45.9995, 0.003115516, NaN, NaN, NaN, 0.0323506, "- N/A -   "
1.8, 46.23541, 0.00313218, NaN, NaN, NaN, 0.0323506, "- N/A -   "
1.81, 46.3534, 0.00314606, NaN, NaN, NaN, 0.0323506, "- N/A -   "
1.82, 46.5893, 0.00316272, NaN, NaN, NaN, 0.0323506, "- N/A -   "
1.83, 46.8251, 0.003179381, NaN, NaN, NaN, 0.0323506, "- N/A -   "
1.84, 46.9431, 0.003196041, NaN, NaN, NaN, 0.0335714, "- N/A -   "
1.85, 47.179, 0.003212702, NaN, NaN, NaN, 0.0323506, "- N/A -   "
1.86, 47.2969, 0.003226586, NaN, NaN, NaN, 0.0335714, "- N/A -   "
1.87, 47.5328, 0.00324047, NaN, NaN, NaN, 0.0347922, "- N/A -   "
1.88, 47.65078, 0.00325713, NaN, NaN, NaN, 0.0347922, "- N/A -   "
1.89, 47.8867, 0.003271014, NaN, NaN, NaN, 0.03601294, "- N/A -   "
1.9, 48.12257, 0.00328767, NaN, NaN, NaN, 0.03601294, "- N/A -   "
1.91, 48.2405, 0.003304335, NaN, NaN, NaN, 0.03601294, "- N/A -   "
1.92, 48.3585, 0.003321, NaN, NaN, NaN, 0.03601294, "- N/A -   "
1.93, 48.59436, 0.003337656, NaN, NaN, NaN, 0.03601294, "- N/A -   "
1.94, 48.7123, 0.003354316, NaN, NaN, NaN, 0.03601294, "- N/A -   "
1.95, 48.9482, 0.00337375, NaN, NaN, NaN, 0.0347922, "- N/A -   "
1.96, 49.1841, 0.00339041, NaN, NaN, NaN, 0.0347922, "- N/A -   "
1.97, 49.41999, 0.00340707, NaN, NaN, NaN, 0.0347922, "- N/A -   "
1.98, 49.5379, 0.003423735, NaN, NaN, NaN, 0.0347922, "- N/A -   "
1.99, 49.7738, 0.00344317, NaN, NaN, NaN, 0.0335714, "- N/A -   "
2, 50.1277, 0.00346261, NaN, NaN, NaN, 0.0323506, "- N/A -   "
2.01, 50.2456, 0.003482047, NaN, NaN, NaN, 0.0323506, "- N/A -   "
2.02, 50.4815, 0.00349871, NaN, NaN, NaN, 0.03112983, "- N/A -   "
2.03, 50.7174, 0.003515368, NaN, NaN, NaN, 0.03112983, "- N/A -   "
2.04, 50.83536, 0.00353203, NaN, NaN, NaN, 0.03112983, "- N/A -   "
2.05, 51.0713, 0.00354869, NaN, NaN, NaN, 0.0323506, "- N/A -   "
2.06, 51.1892, 0.00356535, NaN, NaN, NaN, 0.0323506, "- N/A -   "
2.07, 51.4251, 0.00358201, NaN, NaN, NaN, 0.0323506, "- N/A -   "
2.08, 51.543, 0.00359589, NaN, NaN, NaN, 0.0323506, "- N/A -   "
2.09, 51.7789, 0.00361255, NaN, NaN, NaN, 0.0335714, "- N/A -   "
2.1, 52.01483, 0.003626438, NaN, NaN, NaN, 0.0335714, "- N/A -   "
2.11, 52.1328, 0.00364032, NaN, NaN, NaN, 0.0347922, "- N/A -   "
2.12, 52.25073, 0.00365421, NaN, NaN, NaN, 0.03601294, "- N/A -   "
2.13, 52.36868, 0.00366809, NaN, NaN, NaN, 0.0372337, "- N/A -   "
2.14, 52.6046, 0.003681973, NaN, NaN, NaN, 0.0384545, "- N/A -   "
2.15, 52.84047, 0.00369863, NaN, NaN, NaN, 0.0396753, "- N/A -   "
2.16, 52.9584, 0.00370974, NaN, NaN, NaN, 0.04089605, "- N/A -   "
2.17, 53.0764, 0.00372362, NaN, NaN, NaN, 0.04211683, "- N/A -   "
2.18, 53.3123, 0.00374028, NaN, NaN, NaN, 0.0433376, "- N/A -   "
2.19, 53.4302, 0.00375417, NaN, NaN, NaN, 0.0433376, "- N/A -   "
2.2, 53.6661, 0.00377083, NaN, NaN, NaN, 0.0445584, "- N/A -   "
2.21, 53.902, 0.00378471, NaN, NaN, NaN, 0.0445584, "- N/A -   "
2.22, 54.13789, 0.00380415, NaN, NaN, NaN, 0.0433376, "- N/A -   "
2.23, 54.3738, 0.00382359, NaN, NaN, NaN, 0.0433376, "- N/A -   "
2.24, 54.6097, 0.00384025, NaN, NaN, NaN, 0.04211683, "- N/A -   "
2.25, 54.8456, 0.00385969, NaN, NaN, NaN, 0.04089605, "- N/A -   "
2.26, 55.0815, 0.00387912, NaN, NaN, NaN, 0.04089605, "- N/A -   "
2.27, 55.3174, 0.00389578, NaN, NaN, NaN, 0.0396753, "- N/A -   "
2.28, 55.43531, 0.00391244, NaN, NaN, NaN, 0.04089605, "- N/A -   "
2.29, 55.6712, 0.0039291, NaN, NaN, NaN, 0.04089605, "- N/A -   "
2.3, 55.7892, 0.00394576, NaN, NaN, NaN, 0.04089605, "- N/A -   "
2.31, 56.02505, 0.00395965, NaN, NaN, NaN, 0.04089605, "- N/A -   "
2.32, 56.2609, 0.00397909, NaN, NaN, NaN, 0.0396753, "- N/A -   "
2.33, 56.37889, 0.003995746, NaN, NaN, NaN, 0.0396753, "- N/A -   "
2.34, 56.73273, 0.00401518, NaN, NaN, NaN, 0.0384545, "- N/A -   "
2.35, 56.9686, 0.00403462, NaN, NaN, NaN, 0.0372337, "- N/A -   "
2.36, 57.32247, 0.00405406, NaN, NaN, NaN, 0.03601294, "- N/A -   "
2.37, 57.44042, 0.00407349, NaN, NaN, NaN, 0.03601294, "- N/A -   "
2.38, 57.79426, 0.00409293, NaN, NaN, NaN, 0.0347922, "- N/A -   "
2.39, 58.0302, 0.00410959, NaN, NaN, NaN, 0.0335714, "- N/A -   "
2.4, 58.1481, 0.00412625, NaN, NaN, NaN, 0.0335714, "- N/A -   "
2.41, 58.384, 0.00414291, NaN, NaN, NaN, 0.0335714, "- N/A -   "
2.42, 58.6199, 0.00415957, NaN, NaN, NaN, 0.0347922, "- N/A -   "
2.43, 58.8558, 0.004176235, NaN, NaN, NaN, 0.0347922, "- N/A -   "
2.44, 58.9737, 0.00419012, NaN, NaN, NaN, 0.0347922, "- N/A -   "
2.45, 59.2096, 0.004206779, NaN, NaN, NaN, 0.0347922, "- N/A -   "
2.46, 59.4455, 0.00422622, NaN, NaN, NaN, 0.0347922, "- N/A -   "
2.47, 59.5635, 0.00424288, NaN, NaN, NaN, 0.0347922, "- N/A -   "
2.48, 59.79937, 0.00425676, NaN, NaN, NaN, 0.0347922, "- N/A -   "
2.49, 60.0353, 0.00427342, NaN, NaN, NaN, 0.0347922, "- N/A -   "
2.5, 60.3891, 0.00429008, NaN, NaN, NaN, 0.0347922, "- N/A -   "
2.51, 60.5071, 0.004306742, NaN, NaN, NaN, 0.0347922, "- N/A -   "
2.52, 60.7429, 0.004323403, NaN, NaN, NaN, 0.0347922, "- N/A -   "
2.53, 60.97884, 0.00434284, NaN, NaN, NaN, 0.0347922, "- N/A -   "
2.54, 61.3327, 0.0043595, NaN, NaN, NaN, 0.0335714, "- N/A -   "
2.55, 61.56858, 0.00437894, NaN, NaN, NaN, 0.0335714, "- N/A -   "
2.56, 61.8045, 0.004395598, NaN, NaN, NaN, 0.0323506, "- N/A -   "
2.57, 62.0404, 0.00441504, NaN, NaN, NaN, 0.03112983, "- N/A -   "
2.58, 62.3942, 0.0044317, NaN, NaN, NaN, 0.03112983, "- N/A -   "
2.59, 62.5122, 0.004451133, NaN, NaN, NaN, 0.0299091, "- N/A -   "
2.6, 62.7481, 0.00446779, NaN, NaN, NaN, 0.0299091, "- N/A -   "
2.61, 63.1019, 0.004484454, NaN, NaN, NaN, 0.0299091, "- N/A -   "
2.62, 63.33779, 0.00450111, NaN, NaN, NaN, 0.0299091, "- N/A -   "
2.63, 63.45574, 0.004517775, NaN, NaN, NaN, 0.0299091, "- N/A -   "
2.64, 63.6916, 0.004531659, NaN, NaN, NaN, 0.03112983, "- N/A -   "
2.65, 63.92753, 0.00454832, NaN, NaN, NaN, 0.03112983, "- N/A -   "
2.66, 64.16342, 0.0045622, NaN, NaN, NaN, 0.0323506, "- N/A -   "
2.67, 64.3993, 0.00457886, NaN, NaN, NaN, 0.0323506, "- N/A -   "
2.68, 64.6352, 0.004595524, NaN, NaN, NaN, 0.0323506, "- N/A -   "
2.69, 64.87111, 0.004612185, NaN, NaN, NaN, 0.0335714, "- N/A -   "
2.7, 65.22495, 0.004628845, NaN, NaN, NaN, 0.0323506, "- N/A -   "
2.71, 65.4608, 0.004645506, NaN, NaN, NaN, 0.0323506, "- N/A -   "
2.72, 65.69674, 0.00466217, NaN, NaN, NaN, 0.0323506, "- N/A -   "
2.73, 65.93263, 0.004678827, NaN, NaN, NaN, 0.0323506, "- N/A -   "
2.74, 66.16853, 0.004695487, NaN, NaN, NaN, 0.0323506, "- N/A -   "
2.75, 66.40443, 0.004712148, NaN, NaN, NaN, 0.0323506, "- N/A -   "
2.76, 66.75827, 0.00473159, NaN, NaN, NaN, 0.0323506, "- N/A -   "
2.77, 66.99416, 0.00474825, NaN, NaN, NaN, 0.0323506, "- N/A -   "
2.78, 67.1121, 0.00476213, NaN, NaN, NaN, 0.0323506, "- N/A -   "
2.79, 67.46596, 0.00477879, NaN, NaN, NaN, 0.0323506, "- N/A -   "
2.8, 67.81979, 0.00479545, NaN, NaN, NaN, 0.0323506, "- N/A -   "
2.81, 68.05569, 0.004814888, NaN, NaN, NaN, 0.0323506, "- N/A -   "
2.82, 68.29159, 0.004828771, NaN, NaN, NaN, 0.0323506, "- N/A -   "
2.83, 68.52748, 0.004845432, NaN, NaN, NaN, 0.0323506, "- N/A -   "
2.84, 68.7634, 0.00486209, NaN, NaN, NaN, 0.0323506, "- N/A -   "
2.85, 68.9993, 0.004875976, NaN, NaN, NaN, 0.0335714, "- N/A -   "
2.86, 69.11722, 0.00488986, NaN, NaN, NaN, 0.0347922, "- N/A -   "
2.87, 69.35311, 0.00490374, NaN, NaN, NaN, 0.03601294, "- N/A -   "
2.88, 69.707, 0.004917627, NaN, NaN, NaN, 0.0372337, "- N/A -   "
2.89, 69.94285, 0.004934288, NaN, NaN, NaN, 0.0372337, "- N/A -   "
2.9, 70.17874, 0.00494817, NaN, NaN, NaN, 0.0384545, "- N/A -   "
2.91, 70.41464, 0.00496206, NaN, NaN, NaN, 0.0396753, "- N/A -   "
2.92, 70.6505, 0.004978716, NaN, NaN, NaN, 0.0396753, "- N/A -   "
2.93, 70.88643, 0.00499538, NaN, NaN, NaN, 0.04089605, "- N/A -   "
2.94, 71.12233, 0.00500926, NaN, NaN, NaN, 0.04089605, "- N/A -   "
2.95, 71.4762, 0.005023144, NaN, NaN, NaN, 0.04211683, "- N/A -   "
2.96, 71.59412, 0.00503703, NaN, NaN, NaN, 0.0433376, "- N/A -   "
2.97, 71.83001, 0.00505369, NaN, NaN, NaN, 0.0445584, "- N/A -   "
2.98, 72.1838, 0.005067572, NaN, NaN, NaN, 0.0445584, "- N/A -   "
2.99, 72.3018, 0.00508423, NaN, NaN, NaN, 0.0445584, "- N/A -   "
3, 72.65564, 0.005098116, NaN, NaN, NaN, 0.04577916, "- N/A -   "
3.01, 72.89154, 0.00511478, NaN, NaN, NaN, 0.04699994, "- N/A -   "
3.02, 73.12743, 0.00512866, NaN, NaN, NaN, 0.04699994, "- N/A -   "
3.03, 73.48127, 0.0051481, NaN, NaN, NaN, 0.04699994, "- N/A -   "
3.04, 73.71717, 0.00516198, NaN, NaN, NaN, 0.04699994, "- N/A -   "
3.05, 74.071, 0.00518142, NaN, NaN, NaN, 0.04699994, "- N/A -   "
3.06, 74.42485, 0.005198079, NaN, NaN, NaN, 0.04577916, "- N/A -   "
3.07, 74.66075, 0.00521752, NaN, NaN, NaN, 0.04577916, "- N/A -   "
3.08, 75.0146, 0.005234177, NaN, NaN, NaN, 0.0445584, "- N/A -   "
3.09, 75.36844, 0.005256391, NaN, NaN, NaN, 0.0433376, "- N/A -   "
3.1, 75.6043, 0.00527305, NaN, NaN, NaN, 0.04211683, "- N/A -   "
3.11, 75.95817, 0.00529527, NaN, NaN, NaN, 0.04089605, "- N/A -   "
3.12, 76.43, 0.0053147, NaN, NaN, NaN, 0.0384545, "- N/A -   "
3.13, 76.7838, 0.00533414, NaN, NaN, NaN, 0.0372337, "- N/A -   "
3.14, 77.0197, 0.00535358, NaN, NaN, NaN, 0.03601294, "- N/A -   "
3.15, 77.49149, 0.00537301, NaN, NaN, NaN, 0.03601294, "- N/A -   "
3.16, 77.72738, 0.00538968, NaN, NaN, NaN, 0.0347922, "- N/A -   "
3.17, 78.08122, 0.00540634, NaN, NaN, NaN, 0.0347922, "- N/A -   "
3.18, 78.31712, 0.005423, NaN, NaN, NaN, 0.0347922, "- N/A -   "
3.19, 78.55301, 0.005439657, NaN, NaN, NaN, 0.0347922, "- N/A -   "
3.2, 78.90686, 0.00545632, NaN, NaN, NaN, 0.0347922, "- N/A -   "
3.21, 79.2607, 0.00547298, NaN, NaN, NaN, 0.0347922, "- N/A -   "
3.22, 79.4966, 0.00548964, NaN, NaN, NaN, 0.0347922, "- N/A -   "
3.23, 79.73249, 0.0055063, NaN, NaN, NaN, 0.0347922, "- N/A -   "
3.24, 79.96838, 0.00552296, NaN, NaN, NaN, 0.0347922, "- N/A -   "
3.25, 80.32223, 0.0055424, NaN, NaN, NaN, 0.0347922, "- N/A -   "
3.26, 80.67606, 0.00555628, NaN, NaN, NaN, 0.0347922, "- N/A -   "
3.27, 80.912, 0.00557294, NaN, NaN, NaN, 0.0347922, "- N/A -   "
3.28, 81.14786, 0.0055896, NaN, NaN, NaN, 0.0347922, "- N/A -   "
3.29, 81.5017, 0.00560626, NaN, NaN, NaN, 0.03601294, "- N/A -   "
3.3, 81.7376, 0.00562292, NaN, NaN, NaN, 0.0347922, "- N/A -   "
3.31, 82.09144, 0.005639583, NaN, NaN, NaN, 0.0347922, "- N/A -   "
3.32, 82.32734, 0.005656244, NaN, NaN, NaN, 0.0347922, "- N/A -   "
3.33, 82.79912, 0.00567568, NaN, NaN, NaN, 0.0335714, "- N/A -   "
3.34, 83.03502, 0.00569512, NaN, NaN, NaN, 0.0335714, "- N/A -   "
3.35, 83.38886, 0.00571178, NaN, NaN, NaN, 0.0323506, "- N/A -   "
3.36, 83.74271, 0.00573122, NaN, NaN, NaN, 0.03112983, "- N/A -   "
3.37, 83.9786, 0.005750653, NaN, NaN, NaN, 0.03112983, "- N/A -   "
3.38, 84.33244, 0.00576731, NaN, NaN, NaN, 0.0299091, "- N/A -   "
3.39, 84.68629, 0.005786751, NaN, NaN, NaN, 0.0286883, "- N/A -   "
3.4, 85.04012, 0.005803411, NaN, NaN, NaN, 0.0299091, "- N/A -   "
3.41, 85.15807, 0.005817295, NaN, NaN, NaN, 0.0299091, "- N/A -   "
3.42, 85.51192, 0.00583396, NaN, NaN, NaN, 0.0299091, "- N/A -   "
3.43, 85.74781, 0.005850616, NaN, NaN, NaN, 0.0299091, "- N/A -   "
3.44, 86.1017, 0.005867277, NaN, NaN, NaN, 0.03112983, "- N/A -   "
3.45, 86.33755, 0.005883937, NaN, NaN, NaN, 0.03112983, "- N/A -   "
3.46, 86.57345, 0.005897821, NaN, NaN, NaN, 0.03112983, "- N/A -   "
3.47, 86.92729, 0.005914481, NaN, NaN, NaN, 0.03112983, "- N/A -   "
3.48, 87.16318, 0.005928365, NaN, NaN, NaN, 0.0323506, "- N/A -   "
3.49, 87.39908, 0.00594225, NaN, NaN, NaN, 0.0335714, "- N/A -   "
3.5, 87.51702, 0.005956133, NaN, NaN, NaN, 0.03601294, "- N/A -   "
3.51, 87.8709, 0.005970016, NaN, NaN, NaN, 0.03601294, "- N/A -   "
3.52, 87.8709, 0.005981123, NaN, NaN, NaN, 0.0384545, "- N/A -   "
3.53, 88.22471, 0.005995007, NaN, NaN, NaN, 0.0396753, "- N/A -   "
3.54, 88.4606, 0.006006114, NaN, NaN, NaN, 0.04211683, "- N/A -   "
3.55, 88.6965, 0.00602277, NaN, NaN, NaN, 0.04211683, "- N/A -   "
3.56, 88.9324, 0.00603666, NaN, NaN, NaN, 0.0433376, "- N/A -   "
3.57, 89.28623, 0.006050542, NaN, NaN, NaN, 0.0445584, "- N/A -   "
3.58, 89.52213, 0.006067203, NaN, NaN, NaN, 0.04577916, "- N/A -   "
3.59, 89.758, 0.006081086, NaN, NaN, NaN, 0.04577916, "- N/A -   "
3.6, 90.11186, 0.006097747, NaN, NaN, NaN, 0.04577916, "- N/A -   "
3.61, 90.34776, 0.006114407, NaN, NaN, NaN, 0.04577916, "- N/A -   "
3.62, 90.70161, 0.006131068, NaN, NaN, NaN, 0.0482207, "- N/A -   "
3.63, 91.05545, 0.00614773, NaN, NaN, NaN, 0.04699994, "- N/A -   "
3.64, 91.40929, 0.006164389, NaN, NaN, NaN, 0.0482207, "- N/A -   "
3.65, 91.52724, 0.006181049, NaN, NaN, NaN, 0.0482207, "- N/A -   "
3.66, 91.88108, 0.00619771, NaN, NaN, NaN, 0.04699994, "- N/A -   "
3.67, 92.23492, 0.00621437, NaN, NaN, NaN, 0.04699994, "- N/A -   "
3.68, 92.58876, 0.006231031, NaN, NaN, NaN, 0.04699994, "- N/A -   "
3.69, 92.82466, 0.006250468, NaN, NaN, NaN, 0.04577916, "- N/A -   "
3.7, 93.1785, 0.006267129, NaN, NaN, NaN, 0.04577916, "- N/A -   "
3.71, 93.53234, 0.006289343, NaN, NaN, NaN, 0.0433376, "- N/A -   "
3.72, 94.0041, 0.00630878, NaN, NaN, NaN, 0.04211683, "- N/A -   "
3.73, 94.35797, 0.006328217, NaN, NaN, NaN, 0.04089605, "- N/A -   "
3.74, 94.7118, 0.00634765, NaN, NaN, NaN, 0.0396753, "- N/A -   "
3.75, 95.06567, 0.006367092, NaN, NaN, NaN, 0.0384545, "- N/A -   "
3.76, 95.30156, 0.006386529, NaN, NaN, NaN, 0.0372337, "- N/A -   "
3.77, 95.7733, 0.00640597, NaN, NaN, NaN, 0.03601294, "- N/A -   "
3.78, 96.12719, 0.00642263, NaN, NaN, NaN, 0.03601294, "- N/A -   "
3.79, 96.36309, 0.006439287, NaN, NaN, NaN, 0.03601294, "- N/A -   "
3.8, 96.71693, 0.00645872, NaN, NaN, NaN, 0.0347922, "- N/A -   "
3.81, 96.95282, 0.00647539, NaN, NaN, NaN, 0.0347922, "- N/A -   "
3.82, 97.30666, 0.00649205, NaN, NaN, NaN, 0.0347922, "- N/A -   "
3.83, 97.6605, 0.006508706, NaN, NaN, NaN, 0.0347922, "- N/A -   "
3.84, 97.8964, 0.00652537, NaN, NaN, NaN, 0.0347922, "- N/A -   "
3.85, 98.2502, 0.00654203, NaN, NaN, NaN, 0.0347922, "- N/A -   "
3.86, 98.4861, 0.00655869, NaN, NaN, NaN, 0.0347922, "- N/A -   "
3.87, 98.72203, 0.00657535, NaN, NaN, NaN, 0.03601294, "- N/A -   "
3.88, 99.0759, 0.00659201, NaN, NaN, NaN, 0.03601294, "- N/A -   "
3.89, 99.42972, 0.006608669, NaN, NaN, NaN, 0.0347922, "- N/A -   "
3.9, 99.66561, 0.00662811, NaN, NaN, NaN, 0.0335714, "- N/A -   "
3.91, 100.019, 0.00664754, NaN, NaN, NaN, 0.0335714, "- N/A -   "
3.92, 100.491, 0.006666981, NaN, NaN, NaN, 0.03112983, "- N/A -   "
3.93, 100.727, 0.00668642, NaN, NaN, NaN, 0.0299091, "- N/A -   "
3.94, 101.199, 0.00670586, NaN, NaN, NaN, 0.0286883, "- N/A -   "
3.95, 101.435, 0.00672252, NaN, NaN, NaN, 0.0286883, "- N/A -   "
3.96, 101.907, 0.00674195, NaN, NaN, NaN, 0.0286883, "- N/A -   "
3.97, 102.143, 0.006758614, NaN, NaN, NaN, 0.0274675, "- N/A -   "
3.98, 102.496, 0.00677527, NaN, NaN, NaN, 0.0274675, "- N/A -   "
3.99, 102.732, 0.00679194, NaN, NaN, NaN, 0.0274675, "- N/A -   "
4, 103.086, 0.0068086, NaN, NaN, NaN, 0.0274675, "- N/A -   "
4.01, 103.204, 0.006825256, NaN, NaN, NaN, 0.0286883, "- N/A -   "
4.02, 103.558, 0.00683914, NaN, NaN, NaN, 0.0286883, "- N/A -   "
4.03, 103.912, 0.0068558, NaN, NaN, NaN, 0.0286883, "- N/A -   "
4.04, 104.148, 0.00687246, NaN, NaN, NaN, 0.0286883, "- N/A -   "
4.05, 104.384, 0.00688634, NaN, NaN, NaN, 0.0299091, "- N/A -   "
4.06, 104.737, 0.00690301, NaN, NaN, NaN, 0.0299091, "- N/A -   "
4.07, 104.973, 0.00691689, NaN, NaN, NaN, 0.03112983, "- N/A -   "
4.08, 105.209, 0.00693355, NaN, NaN, NaN, 0.03112983, "- N/A -   "
4.09, 105.563, 0.006947433, NaN, NaN, NaN, 0.0323506, "- N/A -   "
4.1, 105.681, 0.00696409, NaN, NaN, NaN, 0.0335714, "- N/A -   "
4.11, 106.035, 0.006977977, NaN, NaN, NaN, 0.0335714, "- N/A -   "
4.12, 106.389, 0.00699464, NaN, NaN, NaN, 0.0347922, "- N/A -   "
4.13, 106.625, 0.00700852, NaN, NaN, NaN, 0.03601294, "- N/A -   "
4.14, 106.742, 0.00702241, NaN, NaN, NaN, 0.03601294, "- N/A -   "
4.15, 107.0963, 0.007036289, NaN, NaN, NaN, 0.0372337, "- N/A -   "
4.16, 107.45, 0.00705295, NaN, NaN, NaN, 0.0384545, "- N/A -   "
4.17, 107.686, 0.00706683, NaN, NaN, NaN, 0.0384545, "- N/A -   "
4.18, 107.922, 0.00708072, NaN, NaN, NaN, 0.0396753, "- N/A -   "
4.19, 108.158, 0.00709738, NaN, NaN, NaN, 0.0396753, "- N/A -   "
4.2, 108.394, 0.00711404, NaN, NaN, NaN, 0.04089605, "- N/A -   "
4.21, 108.748, 0.00712792, NaN, NaN, NaN, 0.04089605, "- N/A -   "
4.22, 109.101, 0.00714458, NaN, NaN, NaN, 0.04089605, "- N/A -   "
4.23, 109.3373, 0.00715847, NaN, NaN, NaN, 0.04211683, "- N/A -   "
4.24, 109.5732, 0.00717235, NaN, NaN, NaN, 0.0433376, "- N/A -   "
4.25, 109.8091, 0.00718901, NaN, NaN, NaN, 0.0433376, "- N/A -   "
4.26, 110.163, 0.00720567, NaN, NaN, NaN, 0.0445584, "- N/A -   "
4.27, 110.517, 0.007219555, NaN, NaN, NaN, 0.0445584, "- N/A -   "
4.28, 110.871, 0.00723622, NaN, NaN, NaN, 0.0445584, "- N/A -   "
4.29, 111.107, 0.00725565, NaN, NaN, NaN, 0.0445584, "- N/A -   "
4.3, 111.46, 0.007272313, NaN, NaN, NaN, 0.0433376, "- N/A -   "
4.31, 111.8142, 0.007288974, NaN, NaN, NaN, 0.0445584, "- N/A -   "
4.32, 112.0501, 0.00730286, NaN, NaN, NaN, 0.0445584, "- N/A -   "
4.33, 112.404, 0.007319518, NaN, NaN, NaN, 0.04577916, "- N/A -   "
4.34, 112.64, 0.007336179, NaN, NaN, NaN, 0.04577916, "- N/A -   "
4.35, 112.994, 0.00735284, NaN, NaN, NaN, 0.04577916, "- N/A -   "
4.36, 113.23, 0.0073695, NaN, NaN, NaN, 0.04577916, "- N/A -   "
4.37, 113.583, 0.007383383, NaN, NaN, NaN, 0.04577916, "- N/A -   "
4.38, 113.819, 0.007400044, NaN, NaN, NaN, 0.04577916, "- N/A -   "
4.39, 114.173, 0.007419481, NaN, NaN, NaN, 0.04577916, "- N/A -   "
4.4, 114.409, 0.007436142, NaN, NaN, NaN, 0.04577916, "- N/A -   "
4.41, 114.763, 0.007452802, NaN, NaN, NaN, 0.04577916, "- N/A -   "
4.42, 115.117, 0.00746946, NaN, NaN, NaN, 0.0445584, "- N/A -   "
4.43, 115.471, 0.00748612, NaN, NaN, NaN, 0.0445584, "- N/A -   "
4.44, 115.824, 0.00750278, NaN, NaN, NaN, 0.0445584, "- N/A -   "
4.45, 116.178, 0.007519444, NaN, NaN, NaN, 0.0445584, "- N/A -   "
4.46, 116.5321, 0.007538881, NaN, NaN, NaN, 0.0433376, "- N/A -   "
4.47, 116.768, 0.007555542, NaN, NaN, NaN, 0.0433376, "- N/A -   "
4.48, 117.122, 0.007577756, NaN, NaN, NaN, 0.04211683, "- N/A -   "
4.49, 117.594, 0.007597193, NaN, NaN, NaN, 0.0396753, "- N/A -   "
4.5, 117.947, 0.007619407, NaN, NaN, NaN, 0.0384545, "- N/A -   "
4.51, 118.419, 0.007638844, NaN, NaN, NaN, 0.03601294, "- N/A -   "
4.52, 118.891, 0.007661058, NaN, NaN, NaN, 0.0347922, "- N/A -   "
4.53, 119.127, 0.0076805, NaN, NaN, NaN, 0.0323506, "- N/A -   "
4.54, 119.481, 0.007699933, NaN, NaN, NaN, 0.03112983, "- N/A -   "
4.55, 119.835, 0.00771659, NaN, NaN, NaN, 0.03112983, "- N/A -   "
4.56, 120.188, 0.00773325, NaN, NaN, NaN, 0.03112983, "- N/A -   "
4.57, 120.424, 0.007749914, NaN, NaN, NaN, 0.03112983, "- N/A -   "
4.58, 120.66, 0.007766575, NaN, NaN, NaN, 0.0323506, "- N/A -   "
4.59, 121.014, 0.007780459, NaN, NaN, NaN, 0.0323506, "- N/A -   "
4.6, 121.368, 0.007799896, NaN, NaN, NaN, 0.0323506, "- N/A -   "
4.61, 121.722, 0.007816556, NaN, NaN, NaN, 0.03112983, "- N/A -   "
4.62, 122.076, 0.007835994, NaN, NaN, NaN, 0.0299091, "- N/A -   "
4.63, 122.429, 0.007852654, NaN, NaN, NaN, 0.0299091, "- N/A -   "
4.64, 122.783, 0.007872092, NaN, NaN, NaN, 0.0299091, "- N/A -   "
4.65, 123.019, 0.007885975, NaN, NaN, NaN, 0.0299091, "- N/A -   "
4.66, 123.373, 0.007902636, NaN, NaN, NaN, 0.03112983, "- N/A -   "
4.67, 123.609, 0.007916519, NaN, NaN, NaN, 0.03112983, "- N/A -   "
4.68, 123.845, 0.00793318, NaN, NaN, NaN, 0.0323506, "- N/A -   "
4.69, 124.199, 0.007947064, NaN, NaN, NaN, 0.0335714, "- N/A -   "
4.7, 124.317, 0.007960947, NaN, NaN, NaN, 0.0335714, "- N/A -   "
4.71, 124.906, 0.007977608, NaN, NaN, NaN, 0.0335714, "- N/A -   "
4.72, 125.142, 0.007994268, NaN, NaN, NaN, 0.0335714, "- N/A -   "
4.73, 125.378, 0.008008152, NaN, NaN, NaN, 0.0347922, "- N/A -   "
4.74, 125.732, 0.008024813, NaN, NaN, NaN, 0.0347922, "- N/A -   "
4.75, 125.9679, 0.008038696, NaN, NaN, NaN, 0.03601294, "- N/A -   "
4.76, 126.322, 0.008055357, NaN, NaN, NaN, 0.03601294, "- N/A -   "
4.77, 126.558, 0.008072018, NaN, NaN, NaN, 0.03601294, "- N/A -   "
4.78, 126.911, 0.008085901, NaN, NaN, NaN, 0.0372337, "- N/A -   "
4.79, 127.147, 0.008102562, NaN, NaN, NaN, 0.0372337, "- N/A -   "
4.8, 127.501, 0.008119223, NaN, NaN, NaN, 0.0372337, "- N/A -   "
4.81, 127.855, 0.008135883, NaN, NaN, NaN, 0.0372337, "- N/A -   "
4.82, 128.091, 0.008152544, NaN, NaN, NaN, 0.0372337, "- N/A -   "
4.83, 128.4448, 0.008169204, NaN, NaN, NaN, 0.0372337, "- N/A -   "
4.84, 128.799, 0.008183087, NaN, NaN, NaN, 0.0384545, "- N/A -   "
4.85, 129.152, 0.008199749, NaN, NaN, NaN, 0.0384545, "- N/A -   "
4.86, 129.506, 0.008219185, NaN, NaN, NaN, 0.0372337, "- N/A -   "
4.87, 129.86, 0.008235846, NaN, NaN, NaN, 0.0372337, "- N/A -   "
4.88, 130.096, 0.00824973, NaN, NaN, NaN, 0.0396753, "- N/A -   "
4.89, 130.4499, 0.008263613, NaN, NaN, NaN, 0.04089605, "- N/A -   "
4.9, 130.6858, 0.008277497, NaN, NaN, NaN, 0.04089605, "- N/A -   "
4.91, 130.922, 0.008294158, NaN, NaN, NaN, 0.04089605, "- N/A -   "
4.92, 131.1576, 0.008308042, NaN, NaN, NaN, 0.04211683, "- N/A -   "
4.93, 131.511, 0.008324702, NaN, NaN, NaN, 0.04211683, "- N/A -   "
4.94, 131.865, 0.00833859, NaN, NaN, NaN, 0.0433376, "- N/A -   "
4.95, 132.101, 0.008355246, NaN, NaN, NaN, 0.0445584, "- N/A -   "
4.96, 132.455, 0.00836913, NaN, NaN, NaN, 0.0445584, "- N/A -   "
4.97, 132.6909, 0.00838579, NaN, NaN, NaN, 0.04577916, "- N/A -   "
4.98, 133.045, 0.008402451, NaN, NaN, NaN, 0.04577916, "- N/A -   "
4.99, 133.399, 0.008416334, NaN, NaN, NaN, 0.04577916, "- N/A -   "
5, 133.752, 0.008435773, NaN, NaN, NaN, 0.0445584, "- N/A -   "
5.01, 134.106, 0.008452432, NaN, NaN, NaN, 0.0445584, "- N/A -   "
5.02, 134.578, 0.00847187, NaN, NaN, NaN, 0.0445584, "- N/A -   "
5.03, 134.696, 0.00848853, NaN, NaN, NaN, 0.0433376, "- N/A -   "
5.04, 135.1678, 0.008505191, NaN, NaN, NaN, 0.0433376, "- N/A -   "
5.05, 135.522, 0.008524628, NaN, NaN, NaN, 0.04211683, "- N/A -   "
5.06, 135.875, 0.008544065, NaN, NaN, NaN, 0.04089605, "- N/A -   "
5.07, 136.229, 0.008563503, NaN, NaN, NaN, 0.04089605, "- N/A -   "
5.08, 136.701, 0.008580163, NaN, NaN, NaN, 0.0396753, "- N/A -   "
5.09, 137.055, 0.008602377, NaN, NaN, NaN, 0.0384545, "- N/A -   "
5.1, 137.527, 0.008621815, NaN, NaN, NaN, 0.0372337, "- N/A -   "
5.11, 137.8806, 0.008641251, NaN, NaN, NaN, 0.03601294, "- N/A -   "
5.12, 138.234, 0.008657913, NaN, NaN, NaN, 0.0347922, "- N/A -   "
5.13, 138.588, 0.008677349, NaN, NaN, NaN, 0.0335714, "- N/A -   "
5.14, 138.942, 0.00869401, NaN, NaN, NaN, 0.0335714, "- N/A -   "
5.15, 139.296, 0.00871345, NaN, NaN, NaN, 0.0323506, "- N/A -   "
5.16, 139.65, 0.008732884, NaN, NaN, NaN, 0.03112983, "- N/A -   "
5.17, 140.004, 0.008752322, NaN, NaN, NaN, 0.03112983, "- N/A -   "
5.18, 140.357, 0.008768982, NaN, NaN, NaN, 0.0299091, "- N/A -   "
5.19, 140.711, 0.00878842, NaN, NaN, NaN, 0.0299091, "- N/A -   "
5.2, 141.065, 0.008805079, NaN, NaN, NaN, 0.0286883, "- N/A -   "
5.21, 141.419, 0.008818964, NaN, NaN, NaN, 0.0299091, "- N/A -   "
5.22, 141.6549, 0.008835625, NaN, NaN, NaN, 0.0299091, "- N/A -   "
5.23, 142.009, 0.008849508, NaN, NaN, NaN, 0.03112983, "- N/A -   "
5.24, 142.245, 0.008866169, NaN, NaN, NaN, 0.0323506, "- N/A -   "
5.25, 142.5985, 0.008880053, NaN, NaN, NaN, 0.0323506, "- N/A -   "
5.26, 142.8344, 0.008893936, NaN, NaN, NaN, 0.0335714, "- N/A -   "
5.27, 143.07, 0.00890782, NaN, NaN, NaN, 0.0347922, "- N/A -   "
5.28, 143.424, 0.008921703, NaN, NaN, NaN, 0.03601294, "- N/A -   "
5.29, 143.66, 0.008938364, NaN, NaN, NaN, 0.03601294, "- N/A -   "
5.3, 144.014, 0.008955025, NaN, NaN, NaN, 0.03601294, "- N/A -   "
5.31, 144.486, 0.008974462, NaN, NaN, NaN, 0.03601294, "- N/A -   "
5.32, 144.722, 0.008991122, NaN, NaN, NaN, 0.03601294, "- N/A -   "
5.33, 145.193, 0.009007783, NaN, NaN, NaN, 0.0347922, "- N/A -   "
5.34, 145.547, 0.009024444, NaN, NaN, NaN, 0.0347922, "- N/A -   "
5.35, 145.783, 0.009043881, NaN, NaN, NaN, 0.0347922, "- N/A -   "
5.36, 146.137, 0.009063318, NaN, NaN, NaN, 0.0335714, "- N/A -   "
5.37, 146.6087, 0.009079979, NaN, NaN, NaN, 0.0323506, "- N/A -   "
5.38, 146.963, 0.009096639, NaN, NaN, NaN, 0.0323506, "- N/A -   "
5.39, 147.316, 0.009116076, NaN, NaN, NaN, 0.03112983, "- N/A -   "
5.4, 147.67, 0.009132737, NaN, NaN, NaN, 0.03112983, "- N/A -   "
5.41, 148.142, 0.009152174, NaN, NaN, NaN, 0.0299091, "- N/A -   "
5.42, 148.496, 0.009168834, NaN, NaN, NaN, 0.0299091, "- N/A -   "
5.43, 148.732, 0.009185495, NaN, NaN, NaN, 0.0299091, "- N/A -   "
5.44, 149.0856, 0.009202156, NaN, NaN, NaN, 0.0299091, "- N/A -   "
5.45, 149.3215, 0.009218816, NaN, NaN, NaN, 0.03112983, "- N/A -   "
5.46, 149.675, 0.0092327, NaN, NaN, NaN, 0.03112983, "- N/A -   "
5.47, 150.029, 0.009246584, NaN, NaN, NaN, 0.0335714, "- N/A -   "
5.48, 150.147, 0.009260467, NaN, NaN, NaN, 0.0335714, "- N/A -   "
5.49, 150.383, 0.009277128, NaN, NaN, NaN, 0.0347922, "- N/A -   "
5.5, 150.855, 0.009291012, NaN, NaN, NaN, 0.0347922, "- N/A -   "
5.51, 151.091, 0.009304895, NaN, NaN, NaN, 0.03601294, "- N/A -   "
5.52, 151.327, 0.009321556, NaN, NaN, NaN, 0.0372337, "- N/A -   "
5.53, 151.68, 0.00933544, NaN, NaN, NaN, 0.0372337, "- N/A -   "
5.54, 152.034, 0.0093521, NaN, NaN, NaN, 0.0384545, "- N/A -   "
5.55, 152.27, 0.009365984, NaN, NaN, NaN, 0.0384545, "- N/A -   "
5.56, 152.506, 0.009382645, NaN, NaN, NaN, 0.0384545, "- N/A -   "
5.57, 152.86, 0.009396528, NaN, NaN, NaN, 0.0396753, "- N/A -   "
5.58, 153.214, 0.009410412, NaN, NaN, NaN, 0.04089605, "- N/A -   "
5.59, 153.45, 0.009424296, NaN, NaN, NaN, 0.04211683, "- N/A -   "
5.6, 153.568, 0.009438179, NaN, NaN, NaN, 0.0433376, "- N/A -   "
5.61, 154.0394, 0.00945484, NaN, NaN, NaN, 0.0433376, "- N/A -   "
5.62, 154.2753, 0.0094715, NaN, NaN, NaN, 0.0433376, "- N/A -   "
5.63, 154.629, 0.009488161, NaN, NaN, NaN, 0.0433376, "- N/A -   "
5.64, 155.101, 0.009510376, NaN, NaN, NaN, 0.04211683, "- N/A -   "
5.65, 155.455, 0.009527035, NaN, NaN, NaN, 0.04211683, "- N/A -   "
5.66, 155.691, 0.009543696, NaN, NaN, NaN, 0.04089605, "- N/A -   "
5.67, 156.0445, 0.009560356, NaN, NaN, NaN, 0.04089605, "- N/A -   "
5.68, 156.5163, 0.009577017, NaN, NaN, NaN, 0.04089605, "- N/A -   "
5.69, 156.752, 0.009590901, NaN, NaN, NaN, 0.04211683, "- N/A -   "
5.7, 157.106, 0.009607561, NaN, NaN, NaN, 0.04211683, "- N/A -   "
5.71, 157.342, 0.009624222, NaN, NaN, NaN, 0.04211683, "- N/A -   "
5.72, 157.578, 0.009640883, NaN, NaN, NaN, 0.04211683, "- N/A -   "
5.73, 157.932, 0.009654766, NaN, NaN, NaN, 0.0433376, "- N/A -   "
5.74, 158.2855, 0.009674204, NaN, NaN, NaN, 0.0433376, "- N/A -   "
5.75, 158.639, 0.009690864, NaN, NaN, NaN, 0.04211683, "- N/A -   "
5.76, 159.111, 0.009710302, NaN, NaN, NaN, 0.04211683, "- N/A -   "
5.77, 159.229, 0.009726962, NaN, NaN, NaN, 0.04089605, "- N/A -   "
5.78, 159.701, 0.0097464, NaN, NaN, NaN, 0.04089605, "- N/A -   "
5.79, 160.055, 0.00976306, NaN, NaN, NaN, 0.0396753, "- N/A -   "
5.8, 160.5265, 0.009782498, NaN, NaN, NaN, 0.0384545, "- N/A -   "
5.81, 160.7624, 0.009799158, NaN, NaN, NaN, 0.0384545, "- N/A -   "
5.82, 161.116, 0.009815818, NaN, NaN, NaN, 0.0384545, "- N/A -   "
5.83, 161.4701, 0.009832478, NaN, NaN, NaN, 0.0384545, "- N/A -   "
5.84, 161.824, 0.009851916, NaN, NaN, NaN, 0.0384545, "- N/A -   "
5.85, 162.178, 0.009868576, NaN, NaN, NaN, 0.0384545, "- N/A -   "
5.86, 162.532, 0.009885238, NaN, NaN, NaN, 0.0372337, "- N/A -   "
5.87, 162.885, 0.009901898, NaN, NaN, NaN, 0.0372337, "- N/A -   "
5.88, 163.2393, 0.009918558, NaN, NaN, NaN, 0.0372337, "- N/A -   "
5.89, 163.475, 0.009935218, NaN, NaN, NaN, 0.0372337, "- N/A -   "
5.9, 163.711, 0.009951879, NaN, NaN, NaN, 0.0384545, "- N/A -   "
5.91, 164.183, 0.00996854, NaN, NaN, NaN, 0.0372337, "- N/A -   "
5.92, 164.419, 0.009987976, NaN, NaN, NaN, 0.0372337, "- N/A -   "
5.93, 164.891, 0.0100046, NaN, NaN, NaN, 0.0372337, "- N/A -   "
5.94, 165.126, 0.0100213, NaN, NaN, NaN, 0.03601294, "- N/A -   "
5.95, 165.4803, 0.010038, NaN, NaN, NaN, 0.03601294, "- N/A -   "
[...]
39.01, 1519.94, 0.06513149, NaN, NaN, NaN, 0.0384545, "- N/A -   "
39.02, 1520.18, 0.06514537, NaN, NaN, NaN, 0.0396753, "- N/A -   "
39.03, 1520.77, 0.06516203, NaN, NaN, NaN, 0.04089605, "- N/A -   "
39.04, 1521.01, 0.06517314, NaN, NaN, NaN, 0.04211683, "- N/A -   "
39.05, 1521.49, 0.0651898, NaN, NaN, NaN, 0.04211683, "- N/A -   "
39.06, 1521.97, 0.06520646, NaN, NaN, NaN, 0.0433376, "- N/A -   "
39.07, 1522.44, 0.06522313, NaN, NaN, NaN, 0.0433376, "- N/A -   "
39.08, 1522.8, 0.06523701, NaN, NaN, NaN, 0.0433376, "- N/A -   "
39.09, 1523.28, 0.06525367, NaN, NaN, NaN, 0.0445584, "- N/A -   "
39.1, 1523.76, 0.06527033, NaN, NaN, NaN, 0.0433376, "- N/A -   "
39.11, 1524.35, 0.06528699, NaN, NaN, NaN, 0.0433376, "- N/A -   "
39.12, 1524.71, 0.0653036, NaN, NaN, NaN, 0.0433376, "- N/A -   "
39.13, 1525.07, 0.06532031, NaN, NaN, NaN, 0.0445584, "- N/A -   "
39.14, 1525.54, 0.06533419, NaN, NaN, NaN, 0.0445584, "- N/A -   "
39.15, 1526.022, 0.06535363, NaN, NaN, NaN, 0.0433376, "- N/A -   "
39.16, 1526.5, 0.06537307, NaN, NaN, NaN, 0.04211683, "- N/A -   "
39.17, 1527.1, 0.0653925, NaN, NaN, NaN, 0.04211683, "- N/A -   "
39.18, 1527.69, 0.06541194, NaN, NaN, NaN, 0.0396753, "- N/A -   "
39.19, 1528.17, 0.06543138, NaN, NaN, NaN, 0.0384545, "- N/A -   "
39.2, 1528.884, 0.0654536, NaN, NaN, NaN, 0.0372337, "- N/A -   "
39.21, 1529.36, 0.065473, NaN, NaN, NaN, 0.0347922, "- N/A -   "
39.22, 1530.08, 0.0654925, NaN, NaN, NaN, 0.0335714, "- N/A -   "
39.23, 1530.55, 0.0655119, NaN, NaN, NaN, 0.0323506, "- N/A -   "
39.24, 1531.15, 0.06553134, NaN, NaN, NaN, 0.03112983, "- N/A -   "
39.25, 1531.63, 0.06555078, NaN, NaN, NaN, 0.0299091, "- N/A -   "
39.26, 1532.1, 0.06556744, NaN, NaN, NaN, 0.0299091, "- N/A -   "
39.27, 1532.58, 0.0655841, NaN, NaN, NaN, 0.0299091, "- N/A -   "
39.28, 1533.06, 0.06560076, NaN, NaN, NaN, 0.0299091, "- N/A -   "
39.29, 1533.53, 0.06561743, NaN, NaN, NaN, 0.0299091, "- N/A -   "
39.3, 1534.01, 0.06563409, NaN, NaN, NaN, 0.03112983, "- N/A -   "
39.31, 1534.37, 0.0656507, NaN, NaN, NaN, 0.0299091, "- N/A -   "
39.32, 1534.85, 0.06566463, NaN, NaN, NaN, 0.03112983, "- N/A -   "
39.33, 1535.32, 0.0656813, NaN, NaN, NaN, 0.03112983, "- N/A -   "
39.34, 1535.68, 0.0657007, NaN, NaN, NaN, 0.03112983, "- N/A -   "
39.35, 1536.16, 0.0657146, NaN, NaN, NaN, 0.03112983, "- N/A -   "
39.36, 1536.52, 0.06572849, NaN, NaN, NaN, 0.0323506, "- N/A -   "
39.37, 1536.87, 0.06574238, NaN, NaN, NaN, 0.0347922, "- N/A -   "
39.38, 1537.351, 0.06575626, NaN, NaN, NaN, 0.0347922, "- N/A -   "
39.39, 1537.71, 0.06577292, NaN, NaN, NaN, 0.0347922, "- N/A -   "
39.4, 1538.07, 0.06578958, NaN, NaN, NaN, 0.03601294, "- N/A -   "
39.41, 1538.54, 0.06580346, NaN, NaN, NaN, 0.03601294, "- N/A -   "
39.42, 1539.02, 0.06582012, NaN, NaN, NaN, 0.03601294, "- N/A -   "
39.43, 1539.5, 0.06583956, NaN, NaN, NaN, 0.03601294, "- N/A -   "
39.44, 1539.97, 0.06585345, NaN, NaN, NaN, 0.03601294, "- N/A -   "
39.45, 1540.45, 0.0658701, NaN, NaN, NaN, 0.03601294, "- N/A -   "
39.46, 1540.93, 0.0658895, NaN, NaN, NaN, 0.03601294, "- N/A -   "
39.47, 1541.41, 0.0659062, NaN, NaN, NaN, 0.0347922, "- N/A -   "
39.48, 1541.88, 0.0659229, NaN, NaN, NaN, 0.0347922, "- N/A -   "
39.49, 1542.48, 0.0659423, NaN, NaN, NaN, 0.0335714, "- N/A -   "
39.5, 1542.84, 0.06596174, NaN, NaN, NaN, 0.0335714, "- N/A -   "
39.51, 1543.43, 0.0659784, NaN, NaN, NaN, 0.0323506, "- N/A -   "
39.52, 1543.91, 0.06599784, NaN, NaN, NaN, 0.03112983, "- N/A -   "
39.53, 1544.506, 0.06601727, NaN, NaN, NaN, 0.03112983, "- N/A -   "
39.54, 1545.1, 0.06603394, NaN, NaN, NaN, 0.0299091, "- N/A -   "
39.55, 1545.46, 0.0660506, NaN, NaN, NaN, 0.0299091, "- N/A -   "
39.56, 1545.937, 0.0660673, NaN, NaN, NaN, 0.0299091, "- N/A -   "
39.57, 1546.29, 0.0660839, NaN, NaN, NaN, 0.03112983, "- N/A -   "
39.58, 1546.77, 0.0660978, NaN, NaN, NaN, 0.0323506, "- N/A -   "
39.59, 1547.13, 0.0661117, NaN, NaN, NaN, 0.0323506, "- N/A -   "
39.6, 1547.61, 0.06612834, NaN, NaN, NaN, 0.0335714, "- N/A -   "
39.61, 1548.08, 0.06614223, NaN, NaN, NaN, 0.0335714, "- N/A -   "
39.62, 1548.44, 0.06615889, NaN, NaN, NaN, 0.0347922, "- N/A -   "
39.63, 1548.8, 0.06617278, NaN, NaN, NaN, 0.03601294, "- N/A -   "
39.64, 1549.16, 0.06618666, NaN, NaN, NaN, 0.03601294, "- N/A -   "
39.65, 1549.51, 0.06620054, NaN, NaN, NaN, 0.0372337, "- N/A -   "
39.66, 1549.99, 0.0662172, NaN, NaN, NaN, 0.0384545, "- N/A -   "
39.67, 1550.35, 0.06623109, NaN, NaN, NaN, 0.0396753, "- N/A -   "
39.68, 1550.83, 0.06624497, NaN, NaN, NaN, 0.0396753, "- N/A -   "
39.69, 1551.065, 0.0662616, NaN, NaN, NaN, 0.04089605, "- N/A -   "
39.7, 1551.54, 0.0662755, NaN, NaN, NaN, 0.04089605, "- N/A -   "
39.71, 1552.02, 0.0662894, NaN, NaN, NaN, 0.04211683, "- N/A -   "
39.72, 1552.5, 0.0663061, NaN, NaN, NaN, 0.0433376, "- N/A -   "
39.73, 1552.85, 0.0663227, NaN, NaN, NaN, 0.0433376, "- N/A -   "
39.74, 1553.33, 0.06633938, NaN, NaN, NaN, 0.04211683, "- N/A -   "
39.75, 1553.93, 0.06635604, NaN, NaN, NaN, 0.04211683, "- N/A -   "
39.76, 1554.28, 0.0663727, NaN, NaN, NaN, 0.04211683, "- N/A -   "
39.77, 1554.76, 0.06638936, NaN, NaN, NaN, 0.04211683, "- N/A -   "
39.78, 1555.36, 0.0664088, NaN, NaN, NaN, 0.04089605, "- N/A -   "
39.79, 1555.72, 0.06642546, NaN, NaN, NaN, 0.04089605, "- N/A -   "
39.8, 1556.19, 0.06644212, NaN, NaN, NaN, 0.04089605, "- N/A -   "
39.81, 1556.55, 0.06645878, NaN, NaN, NaN, 0.04211683, "- N/A -   "
39.82, 1557.03, 0.0664727, NaN, NaN, NaN, 0.0433376, "- N/A -   "
39.83, 1557.5, 0.0664893, NaN, NaN, NaN, 0.0433376, "- N/A -   "
39.84, 1557.86, 0.06650598, NaN, NaN, NaN, 0.0433376, "- N/A -   "
39.85, 1558.34, 0.06652264, NaN, NaN, NaN, 0.0433376, "- N/A -   "
39.86, 1558.82, 0.0665393, NaN, NaN, NaN, 0.0433376, "- N/A -   "
39.87, 1559.41, 0.06655596, NaN, NaN, NaN, 0.0433376, "- N/A -   "
39.88, 1559.89, 0.0665754, NaN, NaN, NaN, 0.04211683, "- N/A -   "
39.89, 1560.37, 0.06659206, NaN, NaN, NaN, 0.04211683, "- N/A -   "
39.9, 1560.96, 0.06660872, NaN, NaN, NaN, 0.04211683, "- N/A -   "
39.91, 1561.44, 0.06662816, NaN, NaN, NaN, 0.04089605, "- N/A -   "
39.92, 1561.8, 0.0666476, NaN, NaN, NaN, 0.04089605, "- N/A -   "
39.93, 1562.39, 0.0666643, NaN, NaN, NaN, 0.0396753, "- N/A -   "
39.94, 1562.99, 0.0666837, NaN, NaN, NaN, 0.0396753, "- N/A -   "
39.95, 1563.467, 0.0667004, NaN, NaN, NaN, 0.0384545, "- N/A -   "
39.96, 1563.82, 0.06671701, NaN, NaN, NaN, 0.0384545, "- N/A -   "
39.97, 1564.421, 0.06673645, NaN, NaN, NaN, 0.0384545, "- N/A -   "
39.98, 1564.9, 0.06675034, NaN, NaN, NaN, 0.0384545, "- N/A -   "
39.99, 1565.38, 0.06676977, NaN, NaN, NaN, 0.0372337, "- N/A -   "
40, 1565.73, 0.06678644, NaN, NaN, NaN, 0.0372337, "- N/A -   "
40.01, 1566.21, 0.0668031, NaN, NaN, NaN, 0.0372337, "- N/A -   "
40.02, 1566.81, 0.06681976, NaN, NaN, NaN, 0.0372337, "- N/A -   "
40.03, 1567.164, 0.06683642, NaN, NaN, NaN, 0.0372337, "- N/A -   "
40.04, 1567.64, 0.0668531, NaN, NaN, NaN, 0.0384545, "- N/A -   "
40.05, 1568.12, 0.0668697, NaN, NaN, NaN, 0.0384545, "- N/A -   "
40.06, 1568.48, 0.06688362, NaN, NaN, NaN, 0.0384545, "- N/A -   "
40.07, 1568.95, 0.06690028, NaN, NaN, NaN, 0.0384545, "- N/A -   "
40.08, 1569.43, 0.06691972, NaN, NaN, NaN, 0.0384545, "- N/A -   "
40.09, 1570.026, 0.06693638, NaN, NaN, NaN, 0.0372337, "- N/A -   "
40.1, 1570.38, 0.06695304, NaN, NaN, NaN, 0.0372337, "- N/A -   "
40.11, 1570.98, 0.06697248, NaN, NaN, NaN, 0.03601294, "- N/A -   "
40.12, 1571.457, 0.06698914, NaN, NaN, NaN, 0.03601294, "- N/A -   "
40.13, 1571.934, 0.06700858, NaN, NaN, NaN, 0.0347922, "- N/A -   "
40.14, 1572.53, 0.06702801, NaN, NaN, NaN, 0.0347922, "- N/A -   "
40.15, 1572.888, 0.0670447, NaN, NaN, NaN, 0.0335714, "- N/A -   "
40.16, 1573.48, 0.0670613, NaN, NaN, NaN, 0.0335714, "- N/A -   "
40.17, 1573.84, 0.0670808, NaN, NaN, NaN, 0.0335714, "- N/A -   "
40.18, 1574.319, 0.0670947, NaN, NaN, NaN, 0.0335714, "- N/A -   "
40.19, 1574.796, 0.06711131, NaN, NaN, NaN, 0.0335714, "- N/A -   "
40.2, 1575.273, 0.06712798, NaN, NaN, NaN, 0.0335714, "- N/A -   "
40.21, 1575.75, 0.06714464, NaN, NaN, NaN, 0.0335714, "- N/A -   "
40.22, 1576.11, 0.0671613, NaN, NaN, NaN, 0.0347922, "- N/A -   "
40.23, 1576.58, 0.06717796, NaN, NaN, NaN, 0.0335714, "- N/A -   "
40.24, 1577.06, 0.06719462, NaN, NaN, NaN, 0.0347922, "- N/A -   "
40.25, 1577.42, 0.0672085, NaN, NaN, NaN, 0.0347922, "- N/A -   "
40.26, 1577.9, 0.06722516, NaN, NaN, NaN, 0.0347922, "- N/A -   "
40.27, 1578.37, 0.0672446, NaN, NaN, NaN, 0.0347922, "- N/A -   "
40.28, 1578.85, 0.06726126, NaN, NaN, NaN, 0.0347922, "- N/A -   "
40.29, 1579.33, 0.0672779, NaN, NaN, NaN, 0.0335714, "- N/A -   "
40.3, 1579.8, 0.0672946, NaN, NaN, NaN, 0.0335714, "- N/A -   "
40.31, 1580.28, 0.06731124, NaN, NaN, NaN, 0.0335714, "- N/A -   "
40.32, 1580.76, 0.06733067, NaN, NaN, NaN, 0.0335714, "- N/A -   "
40.33, 1581.24, 0.06734734, NaN, NaN, NaN, 0.0323506, "- N/A -   "
40.34, 1581.71, 0.067364, NaN, NaN, NaN, 0.0323506, "- N/A -   "
40.35, 1582.07, 0.06738066, NaN, NaN, NaN, 0.0335714, "- N/A -   "
40.36, 1582.67, 0.06739455, NaN, NaN, NaN, 0.0335714, "- N/A -   "
40.37, 1583.02, 0.06741121, NaN, NaN, NaN, 0.0335714, "- N/A -   "
40.38, 1583.5, 0.0674279, NaN, NaN, NaN, 0.0347922, "- N/A -   "
40.39, 1583.86, 0.06744175, NaN, NaN, NaN, 0.0347922, "- N/A -   "
40.4, 1584.22, 0.0674584, NaN, NaN, NaN, 0.0347922, "- N/A -   "
40.41, 1584.694, 0.0674723, NaN, NaN, NaN, 0.03601294, "- N/A -   "
40.42, 1585.17, 0.06748895, NaN, NaN, NaN, 0.03601294, "- N/A -   "
40.43, 1585.648, 0.06750561, NaN, NaN, NaN, 0.03601294, "- N/A -   "
40.44, 1586.01, 0.06752228, NaN, NaN, NaN, 0.0372337, "- N/A -   "
40.45, 1586.48, 0.06753616, NaN, NaN, NaN, 0.0372337, "- N/A -   "
40.46, 1586.96, 0.0675556, NaN, NaN, NaN, 0.0372337, "- N/A -   "
40.47, 1587.44, 0.06756948, NaN, NaN, NaN, 0.0372337, "- N/A -   "
40.48, 1587.79, 0.06758614, NaN, NaN, NaN, 0.0372337, "- N/A -   "
40.49, 1588.15, 0.06760002, NaN, NaN, NaN, 0.0384545, "- N/A -   "
40.5, 1588.51, 0.06761391, NaN, NaN, NaN, 0.0396753, "- N/A -   "
40.51, 1588.987, 0.06763057, NaN, NaN, NaN, 0.04089605, "- N/A -   "
40.52, 1589.34, 0.0676417, NaN, NaN, NaN, 0.04211683, "- N/A -   "
40.53, 1589.7, 0.0676583, NaN, NaN, NaN, 0.0433376, "- N/A -   "
40.54, 1590.06, 0.0676722, NaN, NaN, NaN, 0.0445584, "- N/A -   "
40.55, 1590.54, 0.0676889, NaN, NaN, NaN, 0.0445584, "- N/A -   "
40.56, 1591.01, 0.06770554, NaN, NaN, NaN, 0.0433376, "- N/A -   "
40.57, 1591.61, 0.0677222, NaN, NaN, NaN, 0.0445584, "- N/A -   "
40.58, 1591.97, 0.06773609, NaN, NaN, NaN, 0.0445584, "- N/A -   "
40.59, 1592.45, 0.06775275, NaN, NaN, NaN, 0.0445584, "- N/A -   "
40.6, 1592.803, 0.06776941, NaN, NaN, NaN, 0.0445584, "- N/A -   "
40.61, 1593.28, 0.06778885, NaN, NaN, NaN, 0.0445584, "- N/A -   "
40.62, 1593.76, 0.06780551, NaN, NaN, NaN, 0.0445584, "- N/A -   "
40.63, 1594.35, 0.0678222, NaN, NaN, NaN, 0.0445584, "- N/A -   "
40.64, 1594.83, 0.0678388, NaN, NaN, NaN, 0.0433376, "- N/A -   "
40.65, 1595.31, 0.0678583, NaN, NaN, NaN, 0.04211683, "- N/A -   "
40.66, 1595.9, 0.0678805, NaN, NaN, NaN, 0.04089605, "- N/A -   "
40.67, 1596.38, 0.06789714, NaN, NaN, NaN, 0.0396753, "- N/A -   "
40.68, 1596.98, 0.06791657, NaN, NaN, NaN, 0.0384545, "- N/A -   "
40.69, 1597.454, 0.06793601, NaN, NaN, NaN, 0.0372337, "- N/A -   "
40.7, 1598.05, 0.06795545, NaN, NaN, NaN, 0.0372337, "- N/A -   "
40.71, 1598.408, 0.06796933, NaN, NaN, NaN, 0.0372337, "- N/A -   "
40.72, 1598.885, 0.067986, NaN, NaN, NaN, 0.0372337, "- N/A -   "
40.73, 1599.24, 0.0680027, NaN, NaN, NaN, 0.0372337, "- N/A -   "
40.74, 1599.72, 0.06801654, NaN, NaN, NaN, 0.0384545, "- N/A -   "
40.75, 1600.2, 0.068036, NaN, NaN, NaN, 0.0372337, "- N/A -   "
40.76, 1600.67, 0.0680526, NaN, NaN, NaN, 0.0372337, "- N/A -   "
40.77, 1601.15, 0.0680693, NaN, NaN, NaN, 0.0372337, "- N/A -   "
40.78, 1601.51, 0.06808595, NaN, NaN, NaN, 0.0372337, "- N/A -   "
40.79, 1601.99, 0.06810261, NaN, NaN, NaN, 0.0372337, "- N/A -   "
40.8, 1602.58, 0.06812205, NaN, NaN, NaN, 0.0372337, "- N/A -   "
40.81, 1602.94, 0.06813871, NaN, NaN, NaN, 0.03601294, "- N/A -   "
40.82, 1603.54, 0.06815815, NaN, NaN, NaN, 0.03601294, "- N/A -   "
40.83, 1604.132, 0.06817481, NaN, NaN, NaN, 0.0347922, "- N/A -   "
40.84, 1604.609, 0.06819425, NaN, NaN, NaN, 0.0335714, "- N/A -   "
40.85, 1605.21, 0.06821369, NaN, NaN, NaN, 0.0323506, "- N/A -   "
40.86, 1605.68, 0.0682331, NaN, NaN, NaN, 0.03112983, "- N/A -   "
40.87, 1606.28, 0.0682553, NaN, NaN, NaN, 0.0286883, "- N/A -   "
40.88, 1606.994, 0.06827755, NaN, NaN, NaN, 0.0262467, "- N/A -   "
40.89, 1607.59, 0.06829976, NaN, NaN, NaN, 0.0250259, "- N/A -   "
40.9, 1607.95, 0.06831642, NaN, NaN, NaN, 0.0238052, "- N/A -   "
40.91, 1608.54, 0.06833309, NaN, NaN, NaN, 0.0238052, "- N/A -   "
40.92, 1609.02, 0.06834975, NaN, NaN, NaN, 0.0250259, "- N/A -   "
40.93, 1609.5, 0.06836363, NaN, NaN, NaN, 0.0250259, "- N/A -   "
40.94, 1609.86, 0.06837752, NaN, NaN, NaN, 0.0262467, "- N/A -   "
40.95, 1610.21, 0.0683914, NaN, NaN, NaN, 0.0274675, "- N/A -   "
40.96, 1610.57, 0.0684053, NaN, NaN, NaN, 0.0286883, "- N/A -   "
40.97, 1610.93, 0.0684219, NaN, NaN, NaN, 0.0286883, "- N/A -   "
40.98, 1611.29, 0.0684386, NaN, NaN, NaN, 0.0299091, "- N/A -   "
40.99, 1611.64, 0.0684525, NaN, NaN, NaN, 0.03112983, "- N/A -   "
41, 1612.24, 0.06846637, NaN, NaN, NaN, 0.03112983, "- N/A -   "
41.01, 1612.6, 0.06848303, NaN, NaN, NaN, 0.0323506, "- N/A -   "
41.02, 1612.84, 0.06849691, NaN, NaN, NaN, 0.0323506, "- N/A -   "
41.03, 1613.31, 0.0685108, NaN, NaN, NaN, 0.0347922, "- N/A -   "
41.04, 1613.55, 0.06852468, NaN, NaN, NaN, 0.03601294, "- N/A -   "
41.05, 1614.03, 0.06853856, NaN, NaN, NaN, 0.03601294, "- N/A -   "
41.06, 1614.27, 0.06854967, NaN, NaN, NaN, 0.0384545, "- N/A -   "
41.07, 1614.63, 0.06856356, NaN, NaN, NaN, 0.0396753, "- N/A -   "
41.08, 1615.1, 0.06857744, NaN, NaN, NaN, 0.04089605, "- N/A -   "
41.09, 1615.34, 0.06859132, NaN, NaN, NaN, 0.0433376, "- N/A -   "
41.1, 1615.82, 0.06860521, NaN, NaN, NaN, 0.0433376, "- N/A -   "
41.11, 1616.18, 0.06862187, NaN, NaN, NaN, 0.0433376, "- N/A -   "
41.12, 1616.65, 0.0686358, NaN, NaN, NaN, 0.0445584, "- N/A -   "
41.13, 1617.01, 0.0686524, NaN, NaN, NaN, 0.0445584, "- N/A -   "
41.14, 1617.369, 0.0686663, NaN, NaN, NaN, 0.04577916, "- N/A -   "
41.15, 1617.73, 0.0686802, NaN, NaN, NaN, 0.04699994, "- N/A -   "
41.16, 1618.323, 0.06869684, NaN, NaN, NaN, 0.0482207, "- N/A -   "
41.17, 1618.68, 0.0687135, NaN, NaN, NaN, 0.0482207, "- N/A -   "
41.18, 1619.16, 0.06872739, NaN, NaN, NaN, 0.0482207, "- N/A -   "
41.19, 1619.52, 0.06874405, NaN, NaN, NaN, 0.0494415, "- N/A -   "
41.2, 1619.99, 0.06876071, NaN, NaN, NaN, 0.0494415, "- N/A -   "
41.21, 1620.47, 0.06877737, NaN, NaN, NaN, 0.0494415, "- N/A -   "
41.22, 1621.07, 0.06879403, NaN, NaN, NaN, 0.0482207, "- N/A -   "
41.23, 1621.42, 0.0688135, NaN, NaN, NaN, 0.0482207, "- N/A -   "
41.24, 1622.02, 0.0688301, NaN, NaN, NaN, 0.04699994, "- N/A -   "
41.25, 1622.5, 0.06884956, NaN, NaN, NaN, 0.04577916, "- N/A -   "
41.26, 1623.093, 0.068869, NaN, NaN, NaN, 0.0445584, "- N/A -   "
41.27, 1623.57, 0.06888844, NaN, NaN, NaN, 0.0433376, "- N/A -   "
41.28, 1624.17, 0.06891065, NaN, NaN, NaN, 0.04211683, "- N/A -   "
41.29, 1624.76, 0.06893009, NaN, NaN, NaN, 0.0396753, "- N/A -   "
41.3, 1625.36, 0.06894952, NaN, NaN, NaN, 0.0384545, "- N/A -   "
41.31, 1625.84, 0.06896896, NaN, NaN, NaN, 0.0372337, "- N/A -   "
41.32, 1626.31, 0.0689884, NaN, NaN, NaN, 0.03601294, "- N/A -   "
41.33, 1626.79, 0.06900784, NaN, NaN, NaN, 0.0347922, "- N/A -   "
41.34, 1627.39, 0.0690245, NaN, NaN, NaN, 0.0347922, "- N/A -   "
41.35, 1627.86, 0.0690439, NaN, NaN, NaN, 0.0335714, "- N/A -   "
41.36, 1628.34, 0.06906337, NaN, NaN, NaN, 0.0335714, "- N/A -   "
41.37, 1628.94, 0.06908281, NaN, NaN, NaN, 0.0323506, "- N/A -   "
41.38, 1629.41, 0.06909947, NaN, NaN, NaN, 0.0323506, "- N/A -   "
41.39, 1629.89, 0.06911335, NaN, NaN, NaN, 0.0323506, "- N/A -   "
41.4, 1630.25, 0.06913001, NaN, NaN, NaN, 0.0323506, "- N/A -   "
41.41, 1630.61, 0.0691439, NaN, NaN, NaN, 0.0335714, "- N/A -   "
41.42, 1631.2, 0.06916333, NaN, NaN, NaN, 0.0323506, "- N/A -   "
41.43, 1631.56, 0.06918, NaN, NaN, NaN, 0.0323506, "- N/A -   "
41.44, 1632.16, 0.06919666, NaN, NaN, NaN, 0.0323506, "- N/A -   "
41.45, 1632.63, 0.0692161, NaN, NaN, NaN, 0.0323506, "- N/A -   "
41.46, 1632.991, 0.06923, NaN, NaN, NaN, 0.0323506, "- N/A -   "
41.47, 1633.468, 0.0692494, NaN, NaN, NaN, 0.0323506, "- N/A -   "
41.48, 1633.945, 0.06926607, NaN, NaN, NaN, 0.0323506, "- N/A -   "
41.49, 1634.422, 0.06928274, NaN, NaN, NaN, 0.03112983, "- N/A -   "
41.5, 1634.899, 0.0692994, NaN, NaN, NaN, 0.03112983, "- N/A -   "
41.51, 1635.376, 0.06931884, NaN, NaN, NaN, 0.03112983, "- N/A -   "
41.52, 1635.853, 0.0693355, NaN, NaN, NaN, 0.0299091, "- N/A -   "
41.53, 1636.33, 0.06935216, NaN, NaN, NaN, 0.0299091, "- N/A -   "
41.54, 1636.93, 0.06936882, NaN, NaN, NaN, 0.03112983, "- N/A -   "
41.55, 1637.284, 0.06938548, NaN, NaN, NaN, 0.03112983, "- N/A -   "
41.56, 1637.76, 0.0694021, NaN, NaN, NaN, 0.03112983, "- N/A -   "
41.57, 1638.12, 0.0694188, NaN, NaN, NaN, 0.0299091, "- N/A -   "
41.58, 1638.596, 0.0694355, NaN, NaN, NaN, 0.0299091, "- N/A -   "
41.59, 1639.07, 0.0694521, NaN, NaN, NaN, 0.0299091, "- N/A -   "
41.6, 1639.67, 0.0694688, NaN, NaN, NaN, 0.0299091, "- N/A -   "
41.61, 1640.03, 0.06948544, NaN, NaN, NaN, 0.0299091, "- N/A -   "
41.62, 1640.5, 0.0695021, NaN, NaN, NaN, 0.03112983, "- N/A -   "
41.63, 1640.74, 0.06951321, NaN, NaN, NaN, 0.0323506, "- N/A -   "
41.64, 1641.22, 0.06952987, NaN, NaN, NaN, 0.0323506, "- N/A -   "
41.65, 1641.7, 0.06954375, NaN, NaN, NaN, 0.0335714, "- N/A -   "
41.66, 1641.93, 0.06955763, NaN, NaN, NaN, 0.0347922, "- N/A -   "
41.67, 1642.29, 0.06957152, NaN, NaN, NaN, 0.03601294, "- N/A -   "
41.68, 1642.65, 0.06958818, NaN, NaN, NaN, 0.0372337, "- N/A -   "
41.69, 1643.25, 0.0696021, NaN, NaN, NaN, 0.0372337, "- N/A -   "
41.7, 1643.49, 0.0696159, NaN, NaN, NaN, 0.0384545, "- N/A -   "
41.71, 1643.96, 0.0696298, NaN, NaN, NaN, 0.0396753, "- N/A -   "
41.72, 1644.32, 0.06964649, NaN, NaN, NaN, 0.04089605, "- N/A -   "
41.73, 1644.68, 0.06966037, NaN, NaN, NaN, 0.04089605, "- N/A -   "
41.74, 1645.04, 0.06967426, NaN, NaN, NaN, 0.0433376, "- N/A -   "
41.75, 1645.27, 0.06968814, NaN, NaN, NaN, 0.0433376, "- N/A -   "
41.76, 1645.63, 0.0697048, NaN, NaN, NaN, 0.0445584, "- N/A -   "
41.77, 1646.11, 0.06971869, NaN, NaN, NaN, 0.0445584, "- N/A -   "
41.78, 1646.59, 0.06973535, NaN, NaN, NaN, 0.0445584, "- N/A -   "
41.79, 1647.06, 0.06975201, NaN, NaN, NaN, 0.0445584, "- N/A -   "
41.8, 1647.42, 0.06977145, NaN, NaN, NaN, 0.0445584, "- N/A -   "
41.81, 1648.02, 0.0697881, NaN, NaN, NaN, 0.0433376, "- N/A -   "
41.82, 1648.49, 0.0698048, NaN, NaN, NaN, 0.0433376, "- N/A -   "
41.83, 1648.97, 0.0698214, NaN, NaN, NaN, 0.0433376, "- N/A -   "
41.84, 1649.33, 0.06984086, NaN, NaN, NaN, 0.0433376, "- N/A -   "
41.85, 1649.92, 0.06985752, NaN, NaN, NaN, 0.0433376, "- N/A -   "
41.86, 1650.4, 0.06987418, NaN, NaN, NaN, 0.0433376, "- N/A -   "
41.87, 1650.76, 0.06989084, NaN, NaN, NaN, 0.04211683, "- N/A -   "
41.88, 1651.24, 0.0699075, NaN, NaN, NaN, 0.04211683, "- N/A -   "
41.89, 1651.83, 0.06992416, NaN, NaN, NaN, 0.04211683, "- N/A -   "
41.9, 1652.19, 0.06994083, NaN, NaN, NaN, 0.04211683, "- N/A -   "
41.91, 1652.79, 0.06995749, NaN, NaN, NaN, 0.04211683, "- N/A -   "
41.92, 1653.26, 0.06997415, NaN, NaN, NaN, 0.04211683, "- N/A -   "
41.93, 1653.62, 0.06999081, NaN, NaN, NaN, 0.04211683, "- N/A -   "
41.94, 1653.98, 0.0700075, NaN, NaN, NaN, 0.04211683, "- N/A -   "
41.95, 1654.58, 0.0700269, NaN, NaN, NaN, 0.04089605, "- N/A -   "
41.96, 1655.05, 0.07004634, NaN, NaN, NaN, 0.04089605, "- N/A -   "
41.97, 1655.65, 0.070063, NaN, NaN, NaN, 0.0396753, "- N/A -   "
41.98, 1656.13, 0.07008244, NaN, NaN, NaN, 0.0384545, "- N/A -   "
41.982, 1656.25, 0.07008521, NaN, NaN, NaN, 0.0396753, "- N/A -   "