File: 2_Tensile_Data/Hamel_ForceTest_Bolt9_Test1.csv
Time, Load (lb), Position (in), AxialStrain (in), TransverseStrain (in), Auxiliary (), Control Out (V), Stress (psi)
0.0,1.06153,0.0, NaN, NaN, NaN,0.09216871," ""- N/A -   """
0.00999999,1.17947,2.49908e-05, NaN, NaN, NaN,0.0897272," ""- N/A -   """
0.02,1.17947,4.720478e-05, NaN, NaN, NaN,0.0872856," ""- N/A -   """
0.03,1.29742,6.94188e-05, NaN, NaN, NaN,0.08362327," ""- N/A -   """
0.04,1.41537,9.16328e-05, NaN, NaN, NaN,0.08240249," ""- N/A -   """
0.05,1.41537,0.000113847, NaN, NaN, NaN,0.07874016," ""- N/A -   """
0.06,1.53332,0.0001388376, NaN, NaN, NaN,0.0762986," ""- N/A -   """
0.07,1.65126,0.0001610516, NaN, NaN, NaN,0.07263627," ""- N/A -   """
0.08,1.76921,0.000183266, NaN, NaN, NaN,0.0701947," ""- N/A -   """
0.09,1.76921,0.00020548, NaN, NaN, NaN,0.06775316," ""- N/A -   """
0.1,2.005107,0.000227694, NaN, NaN, NaN,0.06653238," ""- N/A -   """
0.11,2.005107,0.0002471309, NaN, NaN, NaN,0.0653116," ""- N/A -   """
0.12,2.005107,0.000266568, NaN, NaN, NaN,0.06287005," ""- N/A -   """
0.13,2.12305,0.000286005, NaN, NaN, NaN,0.06164927," ""- N/A -   """
0.14,2.12305,0.000308219, NaN, NaN, NaN,0.0592077," ""- N/A -   """
0.15,2.35895,0.000330433, NaN, NaN, NaN,0.0579869," ""- N/A -   """
0.16,2.35895,0.000349871, NaN, NaN, NaN,0.0555454," ""- N/A -   """
0.17,2.476897,0.000369308, NaN, NaN, NaN,0.0543246," ""- N/A -   """
0.18,2.59484,0.000388745, NaN, NaN, NaN,0.0531038," ""- N/A -   """
0.19,2.59484,0.0004081825, NaN, NaN, NaN,0.05188305," ""- N/A -   """
0.2,2.712792,0.0004276198, NaN, NaN, NaN,0.05066227," ""- N/A -   """
0.21,2.83074,0.000449834, NaN, NaN, NaN,0.0482207," ""- N/A -   """
0.22,2.83074,0.0004720478, NaN, NaN, NaN,0.04577916," ""- N/A -   """
0.23,2.94869,0.0004942618, NaN, NaN, NaN,0.0445584," ""- N/A -   """
0.24,2.94869,0.0005136991, NaN, NaN, NaN,0.04211683," ""- N/A -   """
0.25,3.06663,0.0005359131, NaN, NaN, NaN,0.04089605," ""- N/A -   """
0.26,3.18458,0.0005553504, NaN, NaN, NaN,0.0384545," ""- N/A -   """
0.27,3.30253,0.000577564, NaN, NaN, NaN,0.0372337," ""- N/A -   """
0.28,3.42048,0.000597002, NaN, NaN, NaN,0.0347922," ""- N/A -   """
0.29,3.53842,0.0006164389, NaN, NaN, NaN,0.0335714," ""- N/A -   """
0.3,3.774319,0.000635876, NaN, NaN, NaN,0.0323506," ""- N/A -   """
0.31,3.774319,0.000655313, NaN, NaN, NaN,0.03112983," ""- N/A -   """
0.32,3.89227,0.0006719739, NaN, NaN, NaN,0.03112983," ""- N/A -   """
0.33,4.010214,0.000688634, NaN, NaN, NaN,0.03112983," ""- N/A -   """
0.34,4.010214,0.0007080717, NaN, NaN, NaN,0.0299091," ""- N/A -   """
0.35,4.246109,0.000724732, NaN, NaN, NaN,0.03112983," ""- N/A -   """
0.36,4.246109,0.0007413927, NaN, NaN, NaN,0.03112983," ""- N/A -   """
0.37,4.36406,0.000758053, NaN, NaN, NaN,0.03112983," ""- N/A -   """
0.38,4.59995,0.000771937, NaN, NaN, NaN,0.03112983," ""- N/A -   """
0.39,4.717899,0.0007885975, NaN, NaN, NaN,0.0323506," ""- N/A -   """
0.4,4.717899,0.000802481, NaN, NaN, NaN,0.0323506," ""- N/A -   """
0.41,4.83585,0.0008191418, NaN, NaN, NaN,0.0323506," ""- N/A -   """
0.42,4.953794,0.0008358023, NaN, NaN, NaN,0.0323506," ""- N/A -   """
0.43,5.071741,0.000849686, NaN, NaN, NaN,0.0335714," ""- N/A -   """
0.44,5.18969,0.0008663466, NaN, NaN, NaN,0.0335714," ""- N/A -   """
0.45,5.307636,0.0008830071, NaN, NaN, NaN,0.0335714," ""- N/A -   """
0.46,5.425584,0.000899668, NaN, NaN, NaN,0.0335714," ""- N/A -   """
0.47,5.54353,0.0009163281, NaN, NaN, NaN,0.0335714," ""- N/A -   """
0.48,5.779426,0.000930212, NaN, NaN, NaN,0.0347922," ""- N/A -   """
0.49,5.779426,0.000946872, NaN, NaN, NaN,0.0347922," ""- N/A -   """
0.5,6.01532,0.0009635329, NaN, NaN, NaN,0.0347922," ""- N/A -   """
0.51,6.01532,0.0009801934, NaN, NaN, NaN,0.0347922," ""- N/A -   """
0.52,6.01532,0.0009968539, NaN, NaN, NaN,0.03601294," ""- N/A -   """
0.53,6.251216,0.00101074, NaN, NaN, NaN,0.03601294," ""- N/A -   """
0.54,6.251216,0.00103017, NaN, NaN, NaN,0.03601294," ""- N/A -   """
0.55,6.369163,0.00104684, NaN, NaN, NaN,0.03601294," ""- N/A -   """
0.56,6.487111,0.00106072, NaN, NaN, NaN,0.03601294," ""- N/A -   """
0.57,6.487111,0.00107738, NaN, NaN, NaN,0.03601294," ""- N/A -   """
0.58,6.723006,0.00109126, NaN, NaN, NaN,0.0372337," ""- N/A -   """
0.59,6.84095,0.00110515, NaN, NaN, NaN,0.0384545," ""- N/A -   """
0.6,6.9589,0.00112181, NaN, NaN, NaN,0.0384545," ""- N/A -   """
0.61,7.07685,0.00113847, NaN, NaN, NaN,0.0384545," ""- N/A -   """
0.62,7.1948,0.00115513, NaN, NaN, NaN,0.0384545," ""- N/A -   """
0.63,7.312743,0.00116901, NaN, NaN, NaN,0.0396753," ""- N/A -   """
0.64,7.430691,0.001185673, NaN, NaN, NaN,0.04089605," ""- N/A -   """
0.65,7.430691,0.00119956, NaN, NaN, NaN,0.04211683," ""- N/A -   """
0.66,7.548638,0.00121344, NaN, NaN, NaN,0.04211683," ""- N/A -   """
0.67,7.666586,0.00122732, NaN, NaN, NaN,0.0433376," ""- N/A -   """
0.68,7.784533,0.001241208, NaN, NaN, NaN,0.0445584," ""- N/A -   """
0.69,7.90248,0.00125509, NaN, NaN, NaN,0.04577916," ""- N/A -   """
0.7,8.020428,0.00127175, NaN, NaN, NaN,0.04577916," ""- N/A -   """
0.71,8.138375,0.00128564, NaN, NaN, NaN,0.04699994," ""- N/A -   """
0.72,8.37427,0.0013023, NaN, NaN, NaN,0.04699994," ""- N/A -   """
0.73,8.37427,0.00131896, NaN, NaN, NaN,0.0482207," ""- N/A -   """
0.74,8.492218,0.00133562, NaN, NaN, NaN,0.0482207," ""- N/A -   """
0.75,8.610166,0.00135228, NaN, NaN, NaN,0.0482207," ""- N/A -   """
0.76,8.728113,0.00136616, NaN, NaN, NaN,0.0482207," ""- N/A -   """
0.77,8.846061,0.00138282, NaN, NaN, NaN,0.0494415," ""- N/A -   """
0.78,8.964007,0.001399483, NaN, NaN, NaN,0.0482207," ""- N/A -   """
0.79,9.199903,0.00141614, NaN, NaN, NaN,0.0482207," ""- N/A -   """
0.8,9.199903,0.00143836, NaN, NaN, NaN,0.04577916," ""- N/A -   """
0.81,9.435798,0.00145779, NaN, NaN, NaN,0.0445584," ""- N/A -   """
0.82,9.553744,0.001477232, NaN, NaN, NaN,0.0433376," ""- N/A -   """
0.83,9.78964,0.001499446, NaN, NaN, NaN,0.04211683," ""- N/A -   """
0.84,9.907588,0.00152166, NaN, NaN, NaN,0.0396753," ""- N/A -   """
0.85,10.0255,0.0015411, NaN, NaN, NaN,0.0372337," ""- N/A -   """
0.86,10.26143,0.00156053, NaN, NaN, NaN,0.03601294," ""- N/A -   """
0.87,10.4973,0.00158275, NaN, NaN, NaN,0.0347922," ""- N/A -   """
0.88,10.4973,0.00160219, NaN, NaN, NaN,0.0323506," ""- N/A -   """
0.89,10.73322,0.001621623, NaN, NaN, NaN,0.0323506," ""- N/A -   """
0.9,10.8512,0.00163828, NaN, NaN, NaN,0.03112983," ""- N/A -   """
0.91,10.9691,0.00165772, NaN, NaN, NaN,0.0299091," ""- N/A -   """
0.92,11.0871,0.001677158, NaN, NaN, NaN,0.0286883," ""- N/A -   """
0.93,11.323,0.00169382, NaN, NaN, NaN,0.0286883," ""- N/A -   """
0.94,11.4409,0.00171326, NaN, NaN, NaN,0.0274675," ""- N/A -   """
0.95,11.7947,0.00172992, NaN, NaN, NaN,0.0274675," ""- N/A -   """
0.96,11.7947,0.00174658, NaN, NaN, NaN,0.0286883," ""- N/A -   """
0.97,11.9127,0.00176046, NaN, NaN, NaN,0.0286883," ""- N/A -   """
0.98,12.0306,0.00177712, NaN, NaN, NaN,0.0286883," ""- N/A -   """
0.99,12.14859,0.00179378, NaN, NaN, NaN,0.0286883," ""- N/A -   """
1,12.3845,0.00181044, NaN, NaN, NaN,0.0299091," ""- N/A -   """
1.01,12.5024,0.00182433, NaN, NaN, NaN,0.0299091," ""- N/A -   """
1.02,12.6204,0.00184099, NaN, NaN, NaN,0.03112983," ""- N/A -   """
1.03,12.8563,0.00185487, NaN, NaN, NaN,0.0323506," ""- N/A -   """
1.04,12.9742,0.00186598, NaN, NaN, NaN,0.0335714," ""- N/A -   """
1.05,13.2101,0.00188264, NaN, NaN, NaN,0.0347922," ""- N/A -   """
1.06,13.3281,0.00189652, NaN, NaN, NaN,0.0347922," ""- N/A -   """
1.07,13.3281,0.001913182, NaN, NaN, NaN,0.03601294," ""- N/A -   """
1.08,13.564,0.00192707, NaN, NaN, NaN,0.03601294," ""- N/A -   """
1.09,13.6819,0.00194373, NaN, NaN, NaN,0.03601294," ""- N/A -   """
1.1,13.9178,0.00196039, NaN, NaN, NaN,0.03601294," ""- N/A -   """
1.11,14.1537,0.00197705, NaN, NaN, NaN,0.03601294," ""- N/A -   """
1.12,14.3896,0.00199371, NaN, NaN, NaN,0.03601294," ""- N/A -   """
1.13,14.6255,0.002013145, NaN, NaN, NaN,0.0347922," ""- N/A -   """
1.14,14.7434,0.00203258, NaN, NaN, NaN,0.0347922," ""- N/A -   """
1.15,15.0973,0.00204924, NaN, NaN, NaN,0.0335714," ""- N/A -   """
1.16,15.2152,0.00206868, NaN, NaN, NaN,0.0323506," ""- N/A -   """
1.17,15.4511,0.00208534, NaN, NaN, NaN,0.0323506," ""- N/A -   """
1.18,15.5691,0.00210478, NaN, NaN, NaN,0.0323506," ""- N/A -   """
1.19,15.805,0.00212144, NaN, NaN, NaN,0.03112983," ""- N/A -   """
1.2,16.0409,0.002138099, NaN, NaN, NaN,0.03112983," ""- N/A -   """
1.21,16.1588,0.00215476, NaN, NaN, NaN,0.03112983," ""- N/A -   """
1.22,16.5126,0.00217142, NaN, NaN, NaN,0.03112983," ""- N/A -   """
1.23,16.6306,0.00218808, NaN, NaN, NaN,0.0323506," ""- N/A -   """
1.24,16.74854,0.00220196, NaN, NaN, NaN,0.0323506," ""- N/A -   """
1.25,16.9844,0.00221862, NaN, NaN, NaN,0.0335714," ""- N/A -   """
1.26,17.1024,0.00222973, NaN, NaN, NaN,0.0347922," ""- N/A -   """
1.27,17.2203,0.00224362, NaN, NaN, NaN,0.03601294," ""- N/A -   """
1.28,17.4562,0.0022575, NaN, NaN, NaN,0.0372337," ""- N/A -   """
1.29,17.5742,0.002271383, NaN, NaN, NaN,0.0384545," ""- N/A -   """
1.3,17.8101,0.00228804, NaN, NaN, NaN,0.0384545," ""- N/A -   """
1.31,17.928,0.00230193, NaN, NaN, NaN,0.04089605," ""- N/A -   """
1.32,18.046,0.002315811, NaN, NaN, NaN,0.04089605," ""- N/A -   """
1.33,18.2819,0.00232969, NaN, NaN, NaN,0.04211683," ""- N/A -   """
1.34,18.3998,0.00234358, NaN, NaN, NaN,0.0433376," ""- N/A -   """
1.35,18.6357,0.002360239, NaN, NaN, NaN,0.0433376," ""- N/A -   """
1.36,18.9895,0.0023769, NaN, NaN, NaN,0.0433376," ""- N/A -   """
1.37,19.1075,0.002396337, NaN, NaN, NaN,0.0433376," ""- N/A -   """
1.38,19.4613,0.00241022, NaN, NaN, NaN,0.0433376," ""- N/A -   """
1.39,19.57928,0.002429658, NaN, NaN, NaN,0.04211683," ""- N/A -   """
1.4,19.9331,0.002449095, NaN, NaN, NaN,0.04211683," ""- N/A -   """
1.41,20.169,0.00246576, NaN, NaN, NaN,0.04089605," ""- N/A -   """
1.42,20.4049,0.002485193, NaN, NaN, NaN,0.04089605," ""- N/A -   """
1.43,20.52286,0.00250185, NaN, NaN, NaN,0.04089605," ""- N/A -   """
1.44,20.7588,0.002518514, NaN, NaN, NaN,0.04089605," ""- N/A -   """
1.45,20.99465,0.00253517, NaN, NaN, NaN,0.0396753," ""- N/A -   """
1.46,21.1126,0.002551835, NaN, NaN, NaN,0.04089605," ""- N/A -   """
1.47,21.46644,0.0025685, NaN, NaN, NaN,0.0396753," ""- N/A -   """
1.48,21.7023,0.00258793, NaN, NaN, NaN,0.0384545," ""- N/A -   """
1.49,21.93823,0.00260459, NaN, NaN, NaN,0.0384545," ""- N/A -   """
1.5,22.29207,0.00262403, NaN, NaN, NaN,0.0372337," ""- N/A -   """
1.51,22.528,0.00264069, NaN, NaN, NaN,0.0372337," ""- N/A -   """
1.52,22.6459,0.00265735, NaN, NaN, NaN,0.0372337," ""- N/A -   """
1.53,22.9998,0.00267401, NaN, NaN, NaN,0.0384545," ""- N/A -   """
1.54,23.1177,0.00269067, NaN, NaN, NaN,0.0372337," ""- N/A -   """
1.55,23.3536,0.002707333, NaN, NaN, NaN,0.0372337," ""- N/A -   """
1.56,23.5895,0.00272399, NaN, NaN, NaN,0.0372337," ""- N/A -   """
1.57,23.82539,0.00274065, NaN, NaN, NaN,0.0372337," ""- N/A -   """
1.58,24.1792,0.00276009, NaN, NaN, NaN,0.0372337," ""- N/A -   """
1.59,24.4151,0.00277675, NaN, NaN, NaN,0.0372337," ""- N/A -   """
1.6,24.5331,0.00279064, NaN, NaN, NaN,0.0372337," ""- N/A -   """
1.61,24.769,0.002807296, NaN, NaN, NaN,0.0372337," ""- N/A -   """
1.62,25.0049,0.00282396, NaN, NaN, NaN,0.0372337," ""- N/A -   """
1.63,25.2408,0.00284062, NaN, NaN, NaN,0.0372337," ""- N/A -   """
1.64,25.3587,0.002854501, NaN, NaN, NaN,0.0384545," ""- N/A -   """
1.65,25.7125,0.00287394, NaN, NaN, NaN,0.0384545," ""- N/A -   """
1.66,25.9484,0.0028906, NaN, NaN, NaN,0.0372337," ""- N/A -   """
1.67,26.18434,0.00290726, NaN, NaN, NaN,0.0372337," ""- N/A -   """
1.68,26.3023,0.00292392, NaN, NaN, NaN,0.0372337," ""- N/A -   """
1.69,26.7741,0.002943357, NaN, NaN, NaN,0.03601294," ""- N/A -   """
1.7,27.01,0.00296002, NaN, NaN, NaN,0.03601294," ""- N/A -   """
1.71,27.2459,0.00297945, NaN, NaN, NaN,0.0347922," ""- N/A -   """
1.72,27.4818,0.00299612, NaN, NaN, NaN,0.0347922," ""- N/A -   """
1.73,27.7177,0.00301555, NaN, NaN, NaN,0.0335714," ""- N/A -   """
1.74,27.95355,0.003032213, NaN, NaN, NaN,0.0335714," ""- N/A -   """
1.75,28.3074,0.00304887, NaN, NaN, NaN,0.0335714," ""- N/A -   """
1.76,28.54329,0.003065534, NaN, NaN, NaN,0.0335714," ""- N/A -   """
1.77,28.6612,0.00308219, NaN, NaN, NaN,0.0335714," ""- N/A -   """
1.78,29.0151,0.003098855, NaN, NaN, NaN,0.0335714," ""- N/A -   """
1.79,29.251,0.00311552, NaN, NaN, NaN,0.0347922," ""- N/A -   """
1.8,29.3689,0.0031294, NaN, NaN, NaN,0.0347922," ""- N/A -   """
1.81,29.6048,0.00314606, NaN, NaN, NaN,0.0347922," ""- N/A -   """
1.82,29.9587,0.00316272, NaN, NaN, NaN,0.0347922," ""- N/A -   """
1.83,30.3125,0.003179381, NaN, NaN, NaN,0.0347922," ""- N/A -   """
1.84,30.5484,0.003198818, NaN, NaN, NaN,0.0335714," ""- N/A -   """
1.85,30.78429,0.00321826, NaN, NaN, NaN,0.0335714," ""- N/A -   """
1.86,31.1381,0.003234916, NaN, NaN, NaN,0.0335714," ""- N/A -   """
1.87,31.2561,0.0032488, NaN, NaN, NaN,0.0335714," ""- N/A -   """
1.88,31.6099,0.00326268, NaN, NaN, NaN,0.0347922," ""- N/A -   """
1.89,31.72787,0.003279344, NaN, NaN, NaN,0.0347922," ""- N/A -   """
1.9,31.9638,0.003296, NaN, NaN, NaN,0.0347922," ""- N/A -   """
1.91,32.1997,0.003312665, NaN, NaN, NaN,0.0347922," ""- N/A -   """
1.92,32.5535,0.00332933, NaN, NaN, NaN,0.0347922," ""- N/A -   """
1.93,32.7894,0.00334876, NaN, NaN, NaN,0.0335714," ""- N/A -   """
1.94,33.02529,0.0033682, NaN, NaN, NaN,0.0323506," ""- N/A -   """
1.95,33.3791,0.00338486, NaN, NaN, NaN,0.0323506," ""- N/A -   """
1.96,33.49708,0.00340152, NaN, NaN, NaN,0.0323506," ""- N/A -   """
1.97,33.8509,0.00342096, NaN, NaN, NaN,0.0323506," ""- N/A -   """
1.98,34.08682,0.00343484, NaN, NaN, NaN,0.0323506," ""- N/A -   """
1.99,34.3227,0.00344873, NaN, NaN, NaN,0.0335714," ""- N/A -   """
2,34.55861,0.00346261, NaN, NaN, NaN,0.0347922," ""- N/A -   """
2.01,34.9125,0.00347927, NaN, NaN, NaN,0.0347922," ""- N/A -   """
2.02,35.0304,0.00349315, NaN, NaN, NaN,0.03601294," ""- N/A -   """
2.03,35.2663,0.00350981, NaN, NaN, NaN,0.0372337," ""- N/A -   """
2.04,35.50219,0.003523698, NaN, NaN, NaN,0.0372337," ""- N/A -   """
2.05,35.7381,0.00354036, NaN, NaN, NaN,0.0384545," ""- N/A -   """
2.06,36.0919,0.00355424, NaN, NaN, NaN,0.0384545," ""- N/A -   """
2.07,36.2099,0.0035709, NaN, NaN, NaN,0.0396753," ""- N/A -   """
2.08,36.44577,0.00358479, NaN, NaN, NaN,0.04089605," ""- N/A -   """
2.09,36.79961,0.00359867, NaN, NaN, NaN,0.04089605," ""- N/A -   """
2.1,37.0355,0.003615331, NaN, NaN, NaN,0.04089605," ""- N/A -   """
2.11,37.15345,0.00362921, NaN, NaN, NaN,0.04211683," ""- N/A -   """
2.12,37.5073,0.00364588, NaN, NaN, NaN,0.0433376," ""- N/A -   """
2.13,37.74319,0.003659759, NaN, NaN, NaN,0.0433376," ""- N/A -   """
2.14,37.9791,0.00367642, NaN, NaN, NaN,0.0445584," ""- N/A -   """
2.15,38.215,0.0036903, NaN, NaN, NaN,0.0445584," ""- N/A -   """
2.16,38.4509,0.00370696, NaN, NaN, NaN,0.0445584," ""- N/A -   """
2.17,38.9227,0.00372362, NaN, NaN, NaN,0.0445584," ""- N/A -   """
2.18,39.15856,0.00374028, NaN, NaN, NaN,0.0445584," ""- N/A -   """
2.19,39.2765,0.00375695, NaN, NaN, NaN,0.0445584," ""- N/A -   """
2.2,39.6304,0.003773606, NaN, NaN, NaN,0.0445584," ""- N/A -   """
2.21,39.8662,0.003793043, NaN, NaN, NaN,0.0445584," ""- N/A -   """
2.22,40.22009,0.0038097, NaN, NaN, NaN,0.0445584," ""- N/A -   """
2.23,40.456,0.003826364, NaN, NaN, NaN,0.0433376," ""- N/A -   """
2.24,40.8098,0.0038458, NaN, NaN, NaN,0.04211683," ""- N/A -   """
2.25,41.16367,0.00386524, NaN, NaN, NaN,0.04089605," ""- N/A -   """
2.26,41.51751,0.003884676, NaN, NaN, NaN,0.0396753," ""- N/A -   """
2.27,41.8714,0.00390689, NaN, NaN, NaN,0.0372337," ""- N/A -   """
2.28,42.3431,0.0039291, NaN, NaN, NaN,0.0347922," ""- N/A -   """
2.29,42.697,0.003948541, NaN, NaN, NaN,0.0335714," ""- N/A -   """
2.3,42.93288,0.00396798, NaN, NaN, NaN,0.0323506," ""- N/A -   """
2.31,43.2867,0.00398742, NaN, NaN, NaN,0.03112983," ""- N/A -   """
2.32,43.5226,0.004004076, NaN, NaN, NaN,0.03112983," ""- N/A -   """
2.33,43.87646,0.00402351, NaN, NaN, NaN,0.0299091," ""- N/A -   """
2.34,44.1124,0.004040174, NaN, NaN, NaN,0.0299091," ""- N/A -   """
2.35,44.34825,0.00405683, NaN, NaN, NaN,0.03112983," ""- N/A -   """
2.36,44.70209,0.00407072, NaN, NaN, NaN,0.03112983," ""- N/A -   """
2.37,44.93799,0.00408738, NaN, NaN, NaN,0.03112983," ""- N/A -   """
2.38,45.17388,0.004104039, NaN, NaN, NaN,0.0323506," ""- N/A -   """
2.39,45.40978,0.004117923, NaN, NaN, NaN,0.0323506," ""- N/A -   """
2.4,45.6457,0.00413458, NaN, NaN, NaN,0.0323506," ""- N/A -   """
2.41,45.8816,0.004148467, NaN, NaN, NaN,0.0335714," ""- N/A -   """
2.42,46.23541,0.004165128, NaN, NaN, NaN,0.0335714," ""- N/A -   """
2.43,46.4713,0.00417901, NaN, NaN, NaN,0.0347922," ""- N/A -   """
2.44,46.8251,0.004195672, NaN, NaN, NaN,0.0347922," ""- N/A -   """
2.45,47.061,0.00421233, NaN, NaN, NaN,0.0347922," ""- N/A -   """
2.46,47.2969,0.00422899, NaN, NaN, NaN,0.0347922," ""- N/A -   """
2.47,47.65078,0.00424843, NaN, NaN, NaN,0.0347922," ""- N/A -   """
2.48,47.8867,0.004265091, NaN, NaN, NaN,0.0335714," ""- N/A -   """
2.49,48.2405,0.004284528, NaN, NaN, NaN,0.0323506," ""- N/A -   """
2.5,48.7123,0.00430397, NaN, NaN, NaN,0.0323506," ""- N/A -   """
2.51,48.9482,0.00432063, NaN, NaN, NaN,0.03112983," ""- N/A -   """
2.52,49.30204,0.00434006, NaN, NaN, NaN,0.0299091," ""- N/A -   """
2.53,49.6559,0.0043595, NaN, NaN, NaN,0.0286883," ""- N/A -   """
2.54,49.8918,0.004376161, NaN, NaN, NaN,0.0286883," ""- N/A -   """
2.55,50.1277,0.00439282, NaN, NaN, NaN,0.0286883," ""- N/A -   """
2.56,50.4815,0.004409482, NaN, NaN, NaN,0.0286883," ""- N/A -   """
2.57,50.7174,0.004426142, NaN, NaN, NaN,0.0299091," ""- N/A -   """
2.58,50.9533,0.004442803, NaN, NaN, NaN,0.0299091," ""- N/A -   """
2.59,51.1892,0.00445946, NaN, NaN, NaN,0.0299091," ""- N/A -   """
2.6,51.543,0.004473347, NaN, NaN, NaN,0.0299091," ""- N/A -   """
2.61,51.7789,0.00449001, NaN, NaN, NaN,0.0299091," ""- N/A -   """
2.62,52.01483,0.00450389, NaN, NaN, NaN,0.03112983," ""- N/A -   """
2.63,52.36868,0.004520552, NaN, NaN, NaN,0.03112983," ""- N/A -   """
2.64,52.6046,0.004534436, NaN, NaN, NaN,0.0323506," ""- N/A -   """
2.65,52.84047,0.00454832, NaN, NaN, NaN,0.0335714," ""- N/A -   """
2.66,53.19431,0.0045622, NaN, NaN, NaN,0.0347922," ""- N/A -   """
2.67,53.3123,0.004576087, NaN, NaN, NaN,0.03601294," ""- N/A -   """
2.68,53.54815,0.00458997, NaN, NaN, NaN,0.0372337," ""- N/A -   """
2.69,53.784,0.004603855, NaN, NaN, NaN,0.0384545," ""- N/A -   """
2.7,54.13789,0.004617738, NaN, NaN, NaN,0.0396753," ""- N/A -   """
2.71,54.3738,0.004631622, NaN, NaN, NaN,0.04089605," ""- N/A -   """
2.72,54.6097,0.004645506, NaN, NaN, NaN,0.04211683," ""- N/A -   """
2.73,54.8456,0.00466217, NaN, NaN, NaN,0.04211683," ""- N/A -   """
2.74,55.0815,0.004678827, NaN, NaN, NaN,0.0433376," ""- N/A -   """
2.75,55.3174,0.004692711, NaN, NaN, NaN,0.0433376," ""- N/A -   """
2.76,55.6712,0.004709371, NaN, NaN, NaN,0.0445584," ""- N/A -   """
2.77,56.02505,0.004723255, NaN, NaN, NaN,0.0445584," ""- N/A -   """
2.78,56.143,0.004739915, NaN, NaN, NaN,0.0445584," ""- N/A -   """
2.79,56.4968,0.004756576, NaN, NaN, NaN,0.04577916," ""- N/A -   """
2.8,56.85068,0.00477046, NaN, NaN, NaN,0.04577916," ""- N/A -   """
2.81,57.08658,0.00478712, NaN, NaN, NaN,0.04577916," ""- N/A -   """
2.82,57.32247,0.004803781, NaN, NaN, NaN,0.04577916," ""- N/A -   """
2.83,57.6763,0.00482044, NaN, NaN, NaN,0.04577916," ""- N/A -   """
2.84,58.0302,0.004837102, NaN, NaN, NaN,0.04577916," ""- N/A -   """
2.85,58.384,0.004856539, NaN, NaN, NaN,0.04577916," ""- N/A -   """
2.86,58.6199,0.004875976, NaN, NaN, NaN,0.0433376," ""- N/A -   """
2.87,59.0917,0.00489819, NaN, NaN, NaN,0.04211683," ""- N/A -   """
2.88,59.4455,0.004917627, NaN, NaN, NaN,0.0396753," ""- N/A -   """
2.89,59.79937,0.004937065, NaN, NaN, NaN,0.0384545," ""- N/A -   """
2.9,60.15321,0.004956502, NaN, NaN, NaN,0.0372337," ""- N/A -   """
2.91,60.5071,0.004975939, NaN, NaN, NaN,0.0372337," ""- N/A -   """
2.92,60.8609,0.0049926, NaN, NaN, NaN,0.03601294," ""- N/A -   """
2.93,61.09679,0.00500648, NaN, NaN, NaN,0.0372337," ""- N/A -   """
2.94,61.45063,0.005025921, NaN, NaN, NaN,0.0372337," ""- N/A -   """
2.95,61.8045,0.00504258, NaN, NaN, NaN,0.03601294," ""- N/A -   """
2.96,62.0404,0.00506202, NaN, NaN, NaN,0.0347922," ""- N/A -   """
2.97,62.5122,0.00507868, NaN, NaN, NaN,0.0347922," ""- N/A -   """
2.98,62.7481,0.00509534, NaN, NaN, NaN,0.0347922," ""- N/A -   """
2.99,63.1019,0.005112, NaN, NaN, NaN,0.0347922," ""- N/A -   """
3,63.33779,0.00512866, NaN, NaN, NaN,0.0347922," ""- N/A -   """
3.01,63.5737,0.005145321, NaN, NaN, NaN,0.0347922," ""- N/A -   """
3.02,63.92753,0.00515921, NaN, NaN, NaN,0.03601294," ""- N/A -   """
3.03,64.28137,0.00517587, NaN, NaN, NaN,0.03601294," ""- N/A -   """
3.04,64.3993,0.005192526, NaN, NaN, NaN,0.03601294," ""- N/A -   """
3.05,64.87111,0.00521196, NaN, NaN, NaN,0.0347922," ""- N/A -   """
3.06,65.22495,0.005234177, NaN, NaN, NaN,0.0335714," ""- N/A -   """
3.07,65.69674,0.00525361, NaN, NaN, NaN,0.0323506," ""- N/A -   """
3.08,66.05058,0.00527028, NaN, NaN, NaN,0.03112983," ""- N/A -   """
3.09,66.2865,0.00528971, NaN, NaN, NaN,0.0299091," ""- N/A -   """
3.1,66.64032,0.00530637, NaN, NaN, NaN,0.0299091," ""- N/A -   """
3.11,66.87622,0.00532581, NaN, NaN, NaN,0.0286883," ""- N/A -   """
3.12,67.23006,0.00534247, NaN, NaN, NaN,0.0286883," ""- N/A -   """
3.13,67.5839,0.00536191, NaN, NaN, NaN,0.0286883," ""- N/A -   """
3.14,67.9377,0.00537857, NaN, NaN, NaN,0.0274675," ""- N/A -   """
3.15,68.17364,0.00539523, NaN, NaN, NaN,0.0286883," ""- N/A -   """
3.16,68.52748,0.00541189, NaN, NaN, NaN,0.0286883," ""- N/A -   """
3.17,68.8813,0.00542855, NaN, NaN, NaN,0.0274675," ""- N/A -   """
3.18,69.11722,0.00544799, NaN, NaN, NaN,0.0274675," ""- N/A -   """
3.19,69.47106,0.00546465, NaN, NaN, NaN,0.0262467," ""- N/A -   """
3.2,69.8249,0.00547853, NaN, NaN, NaN,0.0274675," ""- N/A -   """
3.21,69.94285,0.00549519, NaN, NaN, NaN,0.0274675," ""- N/A -   """
3.22,70.29669,0.00550908, NaN, NaN, NaN,0.0286883," ""- N/A -   """
3.23,70.5326,0.00552574, NaN, NaN, NaN,0.0299091," ""- N/A -   """
3.24,70.7685,0.00553962, NaN, NaN, NaN,0.03112983," ""- N/A -   """
3.25,71.12233,0.0055535, NaN, NaN, NaN,0.03112983," ""- N/A -   """
3.26,71.3582,0.00556739, NaN, NaN, NaN,0.0323506," ""- N/A -   """
3.27,71.59412,0.00558127, NaN, NaN, NaN,0.0335714," ""- N/A -   """
3.28,71.94796,0.005597932, NaN, NaN, NaN,0.0335714," ""- N/A -   """
3.29,72.1838,0.00561182, NaN, NaN, NaN,0.0347922," ""- N/A -   """
3.3,72.41975,0.0056257, NaN, NaN, NaN,0.03601294," ""- N/A -   """
3.31,72.77359,0.005639583, NaN, NaN, NaN,0.0372337," ""- N/A -   """
3.32,73.00948,0.005656244, NaN, NaN, NaN,0.0384545," ""- N/A -   """
3.33,73.48127,0.00567013, NaN, NaN, NaN,0.0384545," ""- N/A -   """
3.34,73.71717,0.005686788, NaN, NaN, NaN,0.0384545," ""- N/A -   """
3.35,73.9531,0.00570345, NaN, NaN, NaN,0.0396753," ""- N/A -   """
3.36,74.071,0.00571456, NaN, NaN, NaN,0.04089605," ""- N/A -   """
3.37,74.3069,0.005728439, NaN, NaN, NaN,0.04211683," ""- N/A -   """
3.38,74.66075,0.0057451, NaN, NaN, NaN,0.0433376," ""- N/A -   """
3.39,74.8966,0.00575898, NaN, NaN, NaN,0.0433376," ""- N/A -   """
3.4,75.25049,0.00577842, NaN, NaN, NaN,0.04211683," ""- N/A -   """
3.41,75.48638,0.00579508, NaN, NaN, NaN,0.04211683," ""- N/A -   """
3.42,75.95817,0.00581174, NaN, NaN, NaN,0.04211683," ""- N/A -   """
3.43,76.31202,0.00583118, NaN, NaN, NaN,0.04089605," ""- N/A -   """
3.44,76.6659,0.00584784, NaN, NaN, NaN,0.04089605," ""- N/A -   """
3.45,77.0197,0.0058645, NaN, NaN, NaN,0.04089605," ""- N/A -   """
3.46,77.25559,0.00588116, NaN, NaN, NaN,0.04089605," ""- N/A -   """
3.47,77.6094,0.0059006, NaN, NaN, NaN,0.04089605," ""- N/A -   """
3.48,77.96328,0.005914482, NaN, NaN, NaN,0.04211683," ""- N/A -   """
3.49,78.19917,0.005931142, NaN, NaN, NaN,0.04211683," ""- N/A -   """
3.5,78.4351,0.0059478, NaN, NaN, NaN,0.04211683," ""- N/A -   """
3.51,78.78891,0.005964463, NaN, NaN, NaN,0.04211683," ""- N/A -   """
3.52,79.2607,0.00598112, NaN, NaN, NaN,0.04211683," ""- N/A -   """
3.53,79.4966,0.005997784, NaN, NaN, NaN,0.0433376," ""- N/A -   """
3.54,79.73249,0.00601167, NaN, NaN, NaN,0.0433376," ""- N/A -   """
3.55,79.96838,0.006028328, NaN, NaN, NaN,0.0445584," ""- N/A -   """
3.56,80.32223,0.006042212, NaN, NaN, NaN,0.0445584," ""- N/A -   """
3.57,80.55813,0.00605887, NaN, NaN, NaN,0.0445584," ""- N/A -   """
3.58,80.912,0.006075533, NaN, NaN, NaN,0.0445584," ""- N/A -   """
3.59,81.38376,0.00609497, NaN, NaN, NaN,0.0445584," ""- N/A -   """
3.6,81.61965,0.00611163, NaN, NaN, NaN,0.0433376," ""- N/A -   """
3.61,82.09144,0.006131068, NaN, NaN, NaN,0.04211683," ""- N/A -   """
3.62,82.44528,0.006150505, NaN, NaN, NaN,0.04089605," ""- N/A -   """
3.63,82.91707,0.006172719, NaN, NaN, NaN,0.0396753," ""- N/A -   """
3.64,83.27091,0.006192157, NaN, NaN, NaN,0.0372337," ""- N/A -   """
3.65,83.74271,0.006214371, NaN, NaN, NaN,0.03601294," ""- N/A -   """
3.66,84.09654,0.006233808, NaN, NaN, NaN,0.0347922," ""- N/A -   """
3.67,84.56834,0.006250468, NaN, NaN, NaN,0.0335714," ""- N/A -   """
3.68,84.92217,0.00626991, NaN, NaN, NaN,0.0335714," ""- N/A -   """
3.69,85.15807,0.006286566, NaN, NaN, NaN,0.0323506," ""- N/A -   """
3.7,85.51192,0.006303227, NaN, NaN, NaN,0.0323506," ""- N/A -   """
3.71,85.86576,0.006322664, NaN, NaN, NaN,0.0323506," ""- N/A -   """
3.72,86.1017,0.006336548, NaN, NaN, NaN,0.0323506," ""- N/A -   """
3.73,86.57345,0.006355985, NaN, NaN, NaN,0.0323506," ""- N/A -   """
3.74,86.80934,0.006372646, NaN, NaN, NaN,0.0323506," ""- N/A -   """
3.75,87.28113,0.006389306, NaN, NaN, NaN,0.03112983," ""- N/A -   """
3.76,87.63497,0.006408743, NaN, NaN, NaN,0.0299091," ""- N/A -   """
3.77,87.9888,0.006425404, NaN, NaN, NaN,0.03112983," ""- N/A -   """
3.78,88.34265,0.00644206, NaN, NaN, NaN,0.03112983," ""- N/A -   """
3.79,88.6965,0.006458725, NaN, NaN, NaN,0.0299091," ""- N/A -   """
3.8,89.05035,0.00647539, NaN, NaN, NaN,0.0299091," ""- N/A -   """
3.81,89.28623,0.006489269, NaN, NaN, NaN,0.03112983," ""- N/A -   """
3.82,89.52213,0.00650593, NaN, NaN, NaN,0.0323506," ""- N/A -   """
3.83,89.87598,0.006519813, NaN, NaN, NaN,0.0323506," ""- N/A -   """
3.84,90.11186,0.0065337, NaN, NaN, NaN,0.0335714," ""- N/A -   """
3.85,90.4657,0.006547581, NaN, NaN, NaN,0.0347922," ""- N/A -   """
3.86,90.70161,0.006561465, NaN, NaN, NaN,0.0372337," ""- N/A -   """
3.87,91.1734,0.006578125, NaN, NaN, NaN,0.0372337," ""- N/A -   """
3.88,91.40929,0.006592009, NaN, NaN, NaN,0.0372337," ""- N/A -   """
3.89,91.88108,0.006608669, NaN, NaN, NaN,0.0372337," ""- N/A -   """
3.9,92.23492,0.006628107, NaN, NaN, NaN,0.0372337," ""- N/A -   """
3.91,92.47082,0.00664477, NaN, NaN, NaN,0.0372337," ""- N/A -   """
3.92,92.82466,0.006661428, NaN, NaN, NaN,0.0372337," ""- N/A -   """
3.93,93.1785,0.006678088, NaN, NaN, NaN,0.03601294," ""- N/A -   """
3.94,93.65029,0.006694749, NaN, NaN, NaN,0.03601294," ""- N/A -   """
3.95,94.0041,0.00671141, NaN, NaN, NaN,0.03601294," ""- N/A -   """
3.96,94.35797,0.00673085, NaN, NaN, NaN,0.0347922," ""- N/A -   """
3.97,94.7118,0.006747507, NaN, NaN, NaN,0.0347922," ""- N/A -   """
3.98,95.18361,0.006766944, NaN, NaN, NaN,0.0347922," ""- N/A -   """
3.99,95.41951,0.006783605, NaN, NaN, NaN,0.0347922," ""- N/A -   """
4,95.7733,0.00679749, NaN, NaN, NaN,0.0347922," ""- N/A -   """
4.01,96.12719,0.006816926, NaN, NaN, NaN,0.0347922," ""- N/A -   """
4.02,96.481,0.00683081, NaN, NaN, NaN,0.0347922," ""- N/A -   """
4.03,96.83487,0.00684747, NaN, NaN, NaN,0.0347922," ""- N/A -   """
4.04,97.07077,0.00685858, NaN, NaN, NaN,0.0372337," ""- N/A -   """
4.05,97.30666,0.006872461, NaN, NaN, NaN,0.0384545," ""- N/A -   """
4.06,97.54256,0.00688634, NaN, NaN, NaN,0.0396753," ""- N/A -   """
4.07,97.8964,0.00690023, NaN, NaN, NaN,0.04211683," ""- N/A -   """
4.08,98.13229,0.00691411, NaN, NaN, NaN,0.04211683," ""- N/A -   """
4.09,98.4861,0.006928, NaN, NaN, NaN,0.0433376," ""- N/A -   """
4.1,98.83998,0.00694466, NaN, NaN, NaN,0.0445584," ""- N/A -   """
4.11,99.1938,0.00696132, NaN, NaN, NaN,0.0445584," ""- N/A -   """
4.12,99.54767,0.0069752, NaN, NaN, NaN,0.0445584," ""- N/A -   """
4.13,99.9015,0.00699186, NaN, NaN, NaN,0.0445584," ""- N/A -   """
4.14,100.255,0.0070113, NaN, NaN, NaN,0.0445584," ""- N/A -   """
4.15,100.6092,0.00702518, NaN, NaN, NaN,0.0445584," ""- N/A -   """
4.16,100.963,0.00704184, NaN, NaN, NaN,0.0445584," ""- N/A -   """
4.17,101.317,0.0070585, NaN, NaN, NaN,0.0445584," ""- N/A -   """
4.18,101.671,0.00707239, NaN, NaN, NaN,0.04577916," ""- N/A -   """
4.19,101.907,0.00709182, NaN, NaN, NaN,0.04577916," ""- N/A -   """
4.2,102.496,0.007108485, NaN, NaN, NaN,0.0445584," ""- N/A -   """
4.21,102.85,0.00712792, NaN, NaN, NaN,0.0433376," ""- N/A -   """
4.22,103.322,0.00714736, NaN, NaN, NaN,0.04211683," ""- N/A -   """
4.23,103.912,0.00716957, NaN, NaN, NaN,0.0396753," ""- N/A -   """
4.24,104.384,0.00718901, NaN, NaN, NaN,0.0384545," ""- N/A -   """
4.25,104.737,0.007208448, NaN, NaN, NaN,0.0372337," ""- N/A -   """
4.26,105.091,0.00722789, NaN, NaN, NaN,0.03601294," ""- N/A -   """
4.27,105.563,0.00724732, NaN, NaN, NaN,0.03601294," ""- N/A -   """
4.28,105.917,0.00726398, NaN, NaN, NaN,0.0347922," ""- N/A -   """
4.29,106.271,0.00728064, NaN, NaN, NaN,0.0347922," ""- N/A -   """
4.3,106.625,0.00730008, NaN, NaN, NaN,0.0335714," ""- N/A -   """
4.31,107.214,0.007319518, NaN, NaN, NaN,0.0323506," ""- N/A -   """
4.32,107.568,0.007336179, NaN, NaN, NaN,0.0323506," ""- N/A -   """
4.33,107.922,0.00735562, NaN, NaN, NaN,0.03112983," ""- N/A -   """
4.34,108.394,0.00737505, NaN, NaN, NaN,0.03112983," ""- N/A -   """
4.35,108.63,0.007388937, NaN, NaN, NaN,0.03112983," ""- N/A -   """
4.36,108.983,0.0074056, NaN, NaN, NaN,0.03112983," ""- N/A -   """
4.37,109.3373,0.00742226, NaN, NaN, NaN,0.0323506," ""- N/A -   """
4.38,109.5732,0.007436142, NaN, NaN, NaN,0.0323506," ""- N/A -   """
4.39,109.927,0.007452802, NaN, NaN, NaN,0.0323506," ""- N/A -   """
4.4,110.281,0.00746946, NaN, NaN, NaN,0.0335714," ""- N/A -   """
4.41,110.753,0.00748335, NaN, NaN, NaN,0.0335714," ""- N/A -   """
4.42,110.989,0.00749723, NaN, NaN, NaN,0.0347922," ""- N/A -   """
4.43,111.342,0.00751389, NaN, NaN, NaN,0.03601294," ""- N/A -   """
4.44,111.696,0.00752777, NaN, NaN, NaN,0.03601294," ""- N/A -   """
4.45,112.0501,0.00754443, NaN, NaN, NaN,0.03601294," ""- N/A -   """
4.46,112.404,0.0075611, NaN, NaN, NaN,0.03601294," ""- N/A -   """
4.47,112.64,0.007577756, NaN, NaN, NaN,0.03601294," ""- N/A -   """
4.48,113.112,0.007594417, NaN, NaN, NaN,0.03601294," ""- N/A -   """
4.49,113.465,0.007611077, NaN, NaN, NaN,0.03601294," ""- N/A -   """
4.5,113.701,0.00762774, NaN, NaN, NaN,0.03601294," ""- N/A -   """
4.51,114.173,0.0076444, NaN, NaN, NaN,0.03601294," ""- N/A -   """
4.52,114.645,0.00766106, NaN, NaN, NaN,0.03601294," ""- N/A -   """
4.53,115.117,0.0076805, NaN, NaN, NaN,0.0347922," ""- N/A -   """
4.54,115.353,0.007697156, NaN, NaN, NaN,0.0347922," ""- N/A -   """
4.55,115.706,0.007716594, NaN, NaN, NaN,0.0347922," ""- N/A -   """
4.56,116.178,0.00773325, NaN, NaN, NaN,0.0347922," ""- N/A -   """
4.57,116.5321,0.007752691, NaN, NaN, NaN,0.0335714," ""- N/A -   """
4.58,117.004,0.007769352, NaN, NaN, NaN,0.0335714," ""- N/A -   """
4.59,117.358,0.00778601, NaN, NaN, NaN,0.0323506," ""- N/A -   """
4.6,117.83,0.00780267, NaN, NaN, NaN,0.0323506," ""- N/A -   """
4.61,118.183,0.007819333, NaN, NaN, NaN,0.0323506," ""- N/A -   """
4.62,118.537,0.007835994, NaN, NaN, NaN,0.0323506," ""- N/A -   """
4.63,118.891,0.007849878, NaN, NaN, NaN,0.0335714," ""- N/A -   """
4.64,119.127,0.007863761, NaN, NaN, NaN,0.0347922," ""- N/A -   """
4.65,119.363,0.007880422, NaN, NaN, NaN,0.0347922," ""- N/A -   """
4.66,119.717,0.00789431, NaN, NaN, NaN,0.03601294," ""- N/A -   """
4.67,120.071,0.007910966, NaN, NaN, NaN,0.0372337," ""- N/A -   """
4.68,120.424,0.00792485, NaN, NaN, NaN,0.0372337," ""- N/A -   """
4.69,120.778,0.00794151, NaN, NaN, NaN,0.0372337," ""- N/A -   """
4.7,121.132,0.007958171, NaN, NaN, NaN,0.0384545," ""- N/A -   """
4.71,121.604,0.007974831, NaN, NaN, NaN,0.0372337," ""- N/A -   """
4.72,121.84,0.007988716, NaN, NaN, NaN,0.0384545," ""- N/A -   """
4.73,122.194,0.008002599, NaN, NaN, NaN,0.0396753," ""- N/A -   """
4.74,122.429,0.008019259, NaN, NaN, NaN,0.0396753," ""- N/A -   """
4.75,122.783,0.008033143, NaN, NaN, NaN,0.04089605," ""- N/A -   """
4.76,123.137,0.008047027, NaN, NaN, NaN,0.04211683," ""- N/A -   """
4.77,123.609,0.008066464, NaN, NaN, NaN,0.04211683," ""- N/A -   """
4.78,123.963,0.008083125, NaN, NaN, NaN,0.04089605," ""- N/A -   """
4.79,124.435,0.008102562, NaN, NaN, NaN,0.04089605," ""- N/A -   """
4.8,124.788,0.008119223, NaN, NaN, NaN,0.04089605," ""- N/A -   """
4.81,125.142,0.008135883, NaN, NaN, NaN,0.0396753," ""- N/A -   """
4.82,125.496,0.008152544, NaN, NaN, NaN,0.0396753," ""- N/A -   """
4.83,125.85,0.008169204, NaN, NaN, NaN,0.0396753," ""- N/A -   """
4.84,126.322,0.008185864, NaN, NaN, NaN,0.0396753," ""- N/A -   """
4.85,126.676,0.008202525, NaN, NaN, NaN,0.04089605," ""- N/A -   """
4.86,127.029,0.008219185, NaN, NaN, NaN,0.04089605," ""- N/A -   """
4.87,127.383,0.008235846, NaN, NaN, NaN,0.0396753," ""- N/A -   """
4.88,127.737,0.008252506, NaN, NaN, NaN,0.0396753," ""- N/A -   """
4.89,128.091,0.00826917, NaN, NaN, NaN,0.0396753," ""- N/A -   """
4.9,128.4448,0.008285827, NaN, NaN, NaN,0.0396753," ""- N/A -   """
4.91,128.799,0.008302488, NaN, NaN, NaN,0.0396753," ""- N/A -   """
4.92,129.152,0.008319149, NaN, NaN, NaN,0.0396753," ""- N/A -   """
4.93,129.624,0.008335809, NaN, NaN, NaN,0.0396753," ""- N/A -   """
4.94,130.096,0.00835247, NaN, NaN, NaN,0.0396753," ""- N/A -   """
4.95,130.4499,0.008371907, NaN, NaN, NaN,0.0384545," ""- N/A -   """
4.96,130.804,0.008388568, NaN, NaN, NaN,0.0384545," ""- N/A -   """
4.97,131.1576,0.008405228, NaN, NaN, NaN,0.0384545," ""- N/A -   """
4.98,131.511,0.008421889, NaN, NaN, NaN,0.0384545," ""- N/A -   """
4.99,131.983,0.008438549, NaN, NaN, NaN,0.0384545," ""- N/A -   """
5,132.337,0.008455209, NaN, NaN, NaN,0.0384545," ""- N/A -   """
5.01,132.6909,0.00847187, NaN, NaN, NaN,0.0384545," ""- N/A -   """
5.02,133.045,0.00848853, NaN, NaN, NaN,0.0384545," ""- N/A -   """
5.03,133.399,0.008507968, NaN, NaN, NaN,0.0384545," ""- N/A -   """
5.04,133.87,0.008524628, NaN, NaN, NaN,0.0372337," ""- N/A -   """
5.05,134.224,0.008541289, NaN, NaN, NaN,0.0372337," ""- N/A -   """
5.06,134.578,0.008557949, NaN, NaN, NaN,0.0372337," ""- N/A -   """
5.07,134.932,0.008577387, NaN, NaN, NaN,0.0372337," ""- N/A -   """
5.08,135.286,0.008594047, NaN, NaN, NaN,0.03601294," ""- N/A -   """
5.09,135.64,0.008610708, NaN, NaN, NaN,0.03601294," ""- N/A -   """
5.1,136.111,0.008630144, NaN, NaN, NaN,0.03601294," ""- N/A -   """
5.11,136.583,0.008649582, NaN, NaN, NaN,0.0347922," ""- N/A -   """
5.12,136.937,0.00866624, NaN, NaN, NaN,0.0335714," ""- N/A -   """
5.13,137.4088,0.00868568, NaN, NaN, NaN,0.0323506," ""- N/A -   """
5.14,137.8806,0.008705118, NaN, NaN, NaN,0.0323506," ""- N/A -   """
5.15,138.352,0.008724554, NaN, NaN, NaN,0.03112983," ""- N/A -   """
5.16,138.588,0.008741215, NaN, NaN, NaN,0.03112983," ""- N/A -   """
5.17,138.942,0.008755099, NaN, NaN, NaN,0.03112983," ""- N/A -   """
5.18,139.296,0.008771759, NaN, NaN, NaN,0.03112983," ""- N/A -   """
5.19,139.65,0.00878842, NaN, NaN, NaN,0.03112983," ""- N/A -   """
5.2,140.004,0.00880508, NaN, NaN, NaN,0.03112983," ""- N/A -   """
5.21,140.357,0.008818964, NaN, NaN, NaN,0.0323506," ""- N/A -   """
5.22,140.711,0.008835625, NaN, NaN, NaN,0.0323506," ""- N/A -   """
5.23,141.065,0.008852284, NaN, NaN, NaN,0.0323506," ""- N/A -   """
5.24,141.419,0.008866169, NaN, NaN, NaN,0.0335714," ""- N/A -   """
5.25,141.891,0.00888283, NaN, NaN, NaN,0.0335714," ""- N/A -   """
5.26,142.1267,0.008899489, NaN, NaN, NaN,0.0347922," ""- N/A -   """
5.27,142.481,0.008916151, NaN, NaN, NaN,0.0347922," ""- N/A -   """
5.28,142.716,0.008930034, NaN, NaN, NaN,0.0347922," ""- N/A -   """
5.29,143.188,0.008946694, NaN, NaN, NaN,0.0347922," ""- N/A -   """
5.3,143.542,0.008963355, NaN, NaN, NaN,0.0347922," ""- N/A -   """
5.31,143.778,0.008980015, NaN, NaN, NaN,0.0347922," ""- N/A -   """
5.32,144.25,0.008996676, NaN, NaN, NaN,0.0347922," ""- N/A -   """
5.33,144.722,0.009016113, NaN, NaN, NaN,0.0347922," ""- N/A -   """
5.34,145.0754,0.009032774, NaN, NaN, NaN,0.0347922," ""- N/A -   """
5.35,145.429,0.009049434, NaN, NaN, NaN,0.0335714," ""- N/A -   """
5.36,145.901,0.009066095, NaN, NaN, NaN,0.0335714," ""- N/A -   """
5.37,146.255,0.009085532, NaN, NaN, NaN,0.0335714," ""- N/A -   """
5.38,146.6087,0.009102193, NaN, NaN, NaN,0.0335714," ""- N/A -   """
5.39,146.963,0.009118853, NaN, NaN, NaN,0.0335714," ""- N/A -   """
5.4,147.316,0.009132737, NaN, NaN, NaN,0.0335714," ""- N/A -   """
5.41,147.67,0.00914662, NaN, NaN, NaN,0.0347922," ""- N/A -   """
5.42,147.906,0.009160505, NaN, NaN, NaN,0.03601294," ""- N/A -   """
5.43,148.26,0.009174388, NaN, NaN, NaN,0.0372337," ""- N/A -   """
5.44,148.6138,0.009191048, NaN, NaN, NaN,0.0372337," ""- N/A -   """
5.45,148.8497,0.00920493, NaN, NaN, NaN,0.0384545," ""- N/A -   """
5.46,149.204,0.009218816, NaN, NaN, NaN,0.0396753," ""- N/A -   """
5.47,149.439,0.009235477, NaN, NaN, NaN,0.04089605," ""- N/A -   """
5.48,149.793,0.00924936, NaN, NaN, NaN,0.04089605," ""- N/A -   """
5.49,150.029,0.009266021, NaN, NaN, NaN,0.04211683," ""- N/A -   """
5.5,150.501,0.009282682, NaN, NaN, NaN,0.04089605," ""- N/A -   """
5.51,150.973,0.009299342, NaN, NaN, NaN,0.04089605," ""- N/A -   """
5.52,151.209,0.009316003, NaN, NaN, NaN,0.04211683," ""- N/A -   """
5.53,151.5625,0.009329886, NaN, NaN, NaN,0.04211683," ""- N/A -   """
5.54,151.798,0.009346547, NaN, NaN, NaN,0.0433376," ""- N/A -   """
5.55,152.27,0.009360431, NaN, NaN, NaN,0.0433376," ""- N/A -   """
5.56,152.624,0.009377091, NaN, NaN, NaN,0.0433376," ""- N/A -   """
5.57,152.978,0.009393752, NaN, NaN, NaN,0.0445584," ""- N/A -   """
5.58,153.45,0.009410412, NaN, NaN, NaN,0.0433376," ""- N/A -   """
5.59,153.686,0.00942985, NaN, NaN, NaN,0.0433376," ""- N/A -   """
5.6,154.157,0.00944651, NaN, NaN, NaN,0.04211683," ""- N/A -   """
5.61,154.629,0.009463171, NaN, NaN, NaN,0.04211683," ""- N/A -   """
5.62,154.983,0.00947983, NaN, NaN, NaN,0.04211683," ""- N/A -   """
5.63,155.337,0.009499268, NaN, NaN, NaN,0.04211683," ""- N/A -   """
5.64,155.691,0.009515928, NaN, NaN, NaN,0.04089605," ""- N/A -   """
5.65,156.162,0.009535366, NaN, NaN, NaN,0.0396753," ""- N/A -   """
5.66,156.634,0.009554803, NaN, NaN, NaN,0.0384545," ""- N/A -   """
5.67,156.988,0.00957424, NaN, NaN, NaN,0.0384545," ""- N/A -   """
5.68,157.46,0.009593678, NaN, NaN, NaN,0.0372337," ""- N/A -   """
5.69,157.814,0.009610338, NaN, NaN, NaN,0.03601294," ""- N/A -   """
5.7,158.2855,0.009629776, NaN, NaN, NaN,0.0347922," ""- N/A -   """
5.71,158.639,0.00964921, NaN, NaN, NaN,0.0335714," ""- N/A -   """
5.72,158.9932,0.00966865, NaN, NaN, NaN,0.0335714," ""- N/A -   """
5.73,159.465,0.009685311, NaN, NaN, NaN,0.0323506," ""- N/A -   """
5.74,159.701,0.009701971, NaN, NaN, NaN,0.0323506," ""- N/A -   """
5.75,160.173,0.009718632, NaN, NaN, NaN,0.0323506," ""- N/A -   """
5.76,160.409,0.009735292, NaN, NaN, NaN,0.0323506," ""- N/A -   """
5.77,160.88,0.009749176, NaN, NaN, NaN,0.0335714," ""- N/A -   """
5.78,161.116,0.009765836, NaN, NaN, NaN,0.0335714," ""- N/A -   """
5.79,161.4701,0.009782497, NaN, NaN, NaN,0.0335714," ""- N/A -   """
5.8,161.824,0.009799158, NaN, NaN, NaN,0.0335714," ""- N/A -   """
5.81,162.178,0.009815818, NaN, NaN, NaN,0.0347922," ""- N/A -   """
5.82,162.532,0.009832478, NaN, NaN, NaN,0.0347922," ""- N/A -   """
5.83,162.885,0.009849139, NaN, NaN, NaN,0.0347922," ""- N/A -   """
5.84,163.2393,0.0098658, NaN, NaN, NaN,0.0347922," ""- N/A -   """
5.85,163.593,0.00988246, NaN, NaN, NaN,0.0335714," ""- N/A -   """
5.86,163.947,0.009899121, NaN, NaN, NaN,0.0347922," ""- N/A -   """
[...]
15.03,481.569,0.0251574, NaN, NaN, NaN,0.0445584," ""- N/A -   """
15.06,482.8652,0.0252129, NaN, NaN, NaN,0.0433376," ""- N/A -   """
15.09,484.279,0.0252629, NaN, NaN, NaN,0.04211683," ""- N/A -   """
15.12,485.4574,0.0253212, NaN, NaN, NaN,0.0396753," ""- N/A -   """
15.15,486.989,0.0253795, NaN, NaN, NaN,0.0347922," ""- N/A -   """
15.18,488.1674,0.025435, NaN, NaN, NaN,0.0323506," ""- N/A -   """
15.21,489.2278,0.02548225, NaN, NaN, NaN,0.0335714," ""- N/A -   """
15.24,490.4061,0.0255295, NaN, NaN, NaN,0.0347922," ""- N/A -   """
15.27,491.3487,0.0255822, NaN, NaN, NaN,0.0347922," ""- N/A -   """
15.3,492.6448,0.02562942, NaN, NaN, NaN,0.0347922," ""- N/A -   """
15.33,493.823,0.0256794, NaN, NaN, NaN,0.0347922," ""- N/A -   """
15.36,495.119,0.0257349, NaN, NaN, NaN,0.0335714," ""- N/A -   """
15.39,496.2974,0.0257877, NaN, NaN, NaN,0.0323506," ""- N/A -   """
15.42,497.358,0.0258349, NaN, NaN, NaN,0.0335714," ""- N/A -   """
15.45,498.418,0.0258793, NaN, NaN, NaN,0.0347922," ""- N/A -   """
15.48,499.714,0.0259321, NaN, NaN, NaN,0.0347922," ""- N/A -   """
15.51,500.775,0.02597929, NaN, NaN, NaN,0.0347922," ""- N/A -   """
15.54,501.8352,0.0260265, NaN, NaN, NaN,0.03601294," ""- N/A -   """
15.57,503.0135,0.0260765, NaN, NaN, NaN,0.03601294," ""- N/A -   """
15.6,504.192,0.0261292, NaN, NaN, NaN,0.0347922," ""- N/A -   """
15.63,505.488,0.026182, NaN, NaN, NaN,0.0335714," ""- N/A -   """
15.66,506.43,0.0262264, NaN, NaN, NaN,0.0372337," ""- N/A -   """
15.69,507.491,0.02627085, NaN, NaN, NaN,0.0384545," ""- N/A -   """
15.72,508.5513,0.0263181, NaN, NaN, NaN,0.0396753," ""- N/A -   """
15.75,509.73,0.02636526, NaN, NaN, NaN,0.04089605," ""- N/A -   """
15.78,510.79,0.0264125, NaN, NaN, NaN,0.04211683," ""- N/A -   """
15.81,512.086,0.0264597, NaN, NaN, NaN,0.0433376," ""- N/A -   """
15.84,513.1465,0.0265124, NaN, NaN, NaN,0.0433376," ""- N/A -   """
15.87,514.5645,0.0265652, NaN, NaN, NaN,0.04089605," ""- N/A -   """
15.9,515.8656,0.0266235, NaN, NaN, NaN,0.0384545," ""- N/A -   """
15.93,517.285,0.0266818, NaN, NaN, NaN,0.0347922," ""- N/A -   """
15.96,518.704,0.02674012, NaN, NaN, NaN,0.03112983," ""- N/A -   """
15.99,519.887,0.0267873, NaN, NaN, NaN,0.03112983," ""- N/A -   """
16.02,520.833,0.0268345, NaN, NaN, NaN,0.0323506," ""- N/A -   """
16.05,521.898,0.0268817, NaN, NaN, NaN,0.0335714," ""- N/A -   """
16.08,522.962,0.02692894, NaN, NaN, NaN,0.0347922," ""- N/A -   """
16.11,524.145,0.0269761, NaN, NaN, NaN,0.03601294," ""- N/A -   """
16.14,525.328,0.0270345, NaN, NaN, NaN,0.0335714," ""- N/A -   """
16.17,526.8657,0.0270928, NaN, NaN, NaN,0.0286883," ""- N/A -   """
16.2,528.0485,0.02714275, NaN, NaN, NaN,0.0286883," ""- N/A -   """
16.23,529.2313,0.02719273, NaN, NaN, NaN,0.0299091," ""- N/A -   """
16.26,530.4142,0.0272399, NaN, NaN, NaN,0.0299091," ""- N/A -   """
16.29,531.4787,0.0272899, NaN, NaN, NaN,0.03112983," ""- N/A -   """
16.32,532.5432,0.0273343, NaN, NaN, NaN,0.0323506," ""- N/A -   """
16.35,533.371,0.02737322, NaN, NaN, NaN,0.0372337," ""- N/A -   """
16.38,534.317,0.0274149, NaN, NaN, NaN,0.04089605," ""- N/A -   """
16.41,535.2637,0.0274565, NaN, NaN, NaN,0.04577916," ""- N/A -   """
16.44,536.2099,0.0274982, NaN, NaN, NaN,0.0482207," ""- N/A -   """
16.47,537.6293,0.0275509, NaN, NaN, NaN,0.04699994," ""- N/A -   """
16.5,538.93,0.0276065, NaN, NaN, NaN,0.04577916," ""- N/A -   """
16.53,540.468,0.0276648, NaN, NaN, NaN,0.04089605," ""- N/A -   """
16.56,541.8874,0.02772309, NaN, NaN, NaN,0.0384545," ""- N/A -   """
16.59,543.07,0.0277758, NaN, NaN, NaN,0.0372337," ""- N/A -   """
16.62,544.253,0.0278286, NaN, NaN, NaN,0.0347922," ""- N/A -   """
16.65,545.554,0.0278814, NaN, NaN, NaN,0.0347922," ""- N/A -   """
16.68,546.7369,0.0279341, NaN, NaN, NaN,0.0323506," ""- N/A -   """
16.71,548.038,0.0279869, NaN, NaN, NaN,0.0323506," ""- N/A -   """
16.74,549.4574,0.0280396, NaN, NaN, NaN,0.0299091," ""- N/A -   """
16.77,550.5219,0.0280924, NaN, NaN, NaN,0.0286883," ""- N/A -   """
16.8,551.823,0.02814238, NaN, NaN, NaN,0.0286883," ""- N/A -   """
16.83,552.8875,0.0281951, NaN, NaN, NaN,0.0286883," ""- N/A -   """
16.86,554.0703,0.0282396, NaN, NaN, NaN,0.0299091," ""- N/A -   """
16.89,555.1349,0.0282868, NaN, NaN, NaN,0.0323506," ""- N/A -   """
16.92,556.1994,0.0283312, NaN, NaN, NaN,0.0347922," ""- N/A -   """
16.95,557.027,0.02837285, NaN, NaN, NaN,0.0372337," ""- N/A -   """
16.98,557.9736,0.0284145, NaN, NaN, NaN,0.04089605," ""- N/A -   """
17.01,559.038,0.0284589, NaN, NaN, NaN,0.0433376," ""- N/A -   """
17.04,560.103,0.0285061, NaN, NaN, NaN,0.0445584," ""- N/A -   """
17.07,561.285,0.02855334, NaN, NaN, NaN,0.04699994," ""- N/A -   """
17.1,562.587,0.0286061, NaN, NaN, NaN,0.04577916," ""- N/A -   """
17.13,563.888,0.0286561, NaN, NaN, NaN,0.04577916," ""- N/A -   """
17.16,565.07,0.0287088, NaN, NaN, NaN,0.0445584," ""- N/A -   """
17.19,566.3715,0.0287644, NaN, NaN, NaN,0.04211683," ""- N/A -   """
17.22,567.673,0.02881713, NaN, NaN, NaN,0.04211683," ""- N/A -   """
17.25,569.092,0.0288727, NaN, NaN, NaN,0.0396753," ""- N/A -   """
17.28,570.3931,0.0289282, NaN, NaN, NaN,0.03601294," ""- N/A -   """
17.31,571.812,0.0289865, NaN, NaN, NaN,0.0323506," ""- N/A -   """
17.34,573.2318,0.0290448, NaN, NaN, NaN,0.0286883," ""- N/A -   """
17.37,574.4146,0.0290976, NaN, NaN, NaN,0.0286883," ""- N/A -   """
17.4,575.716,0.0291448, NaN, NaN, NaN,0.0286883," ""- N/A -   """
17.43,576.8985,0.02919477, NaN, NaN, NaN,0.0299091," ""- N/A -   """
17.46,577.9631,0.0292392, NaN, NaN, NaN,0.03112983," ""- N/A -   """
17.49,579.0276,0.0292836, NaN, NaN, NaN,0.0335714," ""- N/A -   """
17.52,580.092,0.0293336, NaN, NaN, NaN,0.0335714," ""- N/A -   """
17.55,581.3932,0.0293808, NaN, NaN, NaN,0.0347922," ""- N/A -   """
17.58,582.576,0.0294308, NaN, NaN, NaN,0.0347922," ""- N/A -   """
17.61,583.641,0.029478, NaN, NaN, NaN,0.03601294," ""- N/A -   """
17.64,584.8233,0.0295252, NaN, NaN, NaN,0.0372337," ""- N/A -   """
17.67,586.006,0.0295752, NaN, NaN, NaN,0.0372337," ""- N/A -   """
17.7,587.189,0.02962239, NaN, NaN, NaN,0.0384545," ""- N/A -   """
17.73,588.254,0.0296696, NaN, NaN, NaN,0.04089605," ""- N/A -   """
17.76,589.318,0.029714, NaN, NaN, NaN,0.0433376," ""- N/A -   """
17.79,590.501,0.02975845, NaN, NaN, NaN,0.04577916," ""- N/A -   """
17.82,591.565,0.0298057, NaN, NaN, NaN,0.04699994," ""- N/A -   """
17.85,592.748,0.0298556, NaN, NaN, NaN,0.04699994," ""- N/A -   """
17.88,594.2858,0.0299139, NaN, NaN, NaN,0.04211683," ""- N/A -   """
17.91,595.9418,0.029975, NaN, NaN, NaN,0.0372337," ""- N/A -   """
17.94,597.3611,0.0300333, NaN, NaN, NaN,0.0335714," ""- N/A -   """
17.97,598.662,0.0300889, NaN, NaN, NaN,0.03112983," ""- N/A -   """
18,599.845,0.0301361, NaN, NaN, NaN,0.0323506," ""- N/A -   """
18.03,601.028,0.03018607, NaN, NaN, NaN,0.0323506," ""- N/A -   """
18.06,602.092,0.0302305, NaN, NaN, NaN,0.0347922," ""- N/A -   """
18.09,603.157,0.0302777, NaN, NaN, NaN,0.03601294," ""- N/A -   """
18.12,604.3397,0.0303277, NaN, NaN, NaN,0.03601294," ""- N/A -   """
18.15,605.641,0.0303749, NaN, NaN, NaN,0.0372337," ""- N/A -   """
18.18,606.8236,0.0304276, NaN, NaN, NaN,0.03601294," ""- N/A -   """
18.21,608.3612,0.030486, NaN, NaN, NaN,0.0335714," ""- N/A -   """
18.24,609.544,0.03053594, NaN, NaN, NaN,0.0335714," ""- N/A -   """
18.27,610.6086,0.0305831, NaN, NaN, NaN,0.0335714," ""- N/A -   """
18.3,611.91,0.0306331, NaN, NaN, NaN,0.0347922," ""- N/A -   """
18.33,612.9742,0.0306776, NaN, NaN, NaN,0.03601294," ""- N/A -   """
18.36,613.9204,0.030722, NaN, NaN, NaN,0.0384545," ""- N/A -   """
18.39,614.8667,0.0307609, NaN, NaN, NaN,0.0433376," ""- N/A -   """
18.42,616.0495,0.0308108, NaN, NaN, NaN,0.0433376," ""- N/A -   """
18.45,617.4689,0.0308664, NaN, NaN, NaN,0.04089605," ""- N/A -   """
18.48,618.7699,0.0309164, NaN, NaN, NaN,0.04089605," ""- N/A -   """
18.51,619.953,0.0309663, NaN, NaN, NaN,0.04089605," ""- N/A -   """
18.54,621.254,0.0310219, NaN, NaN, NaN,0.0384545," ""- N/A -   """
18.57,622.555,0.03107463, NaN, NaN, NaN,0.0384545," ""- N/A -   """
18.6,623.9743,0.0311274, NaN, NaN, NaN,0.0372337," ""- N/A -   """
18.63,625.1571,0.0311774, NaN, NaN, NaN,0.03601294," ""- N/A -   """
18.66,626.3399,0.0312274, NaN, NaN, NaN,0.03601294," ""- N/A -   """
18.69,627.523,0.0312746, NaN, NaN, NaN,0.0372337," ""- N/A -   """
18.72,628.8238,0.0313273, NaN, NaN, NaN,0.0372337," ""- N/A -   """
18.75,630.125,0.0313801, NaN, NaN, NaN,0.0347922," ""- N/A -   """
18.78,631.544,0.0314384, NaN, NaN, NaN,0.0323506," ""- N/A -   """
18.81,632.7271,0.0314884, NaN, NaN, NaN,0.03112983," ""- N/A -   """
18.84,634.028,0.03153835, NaN, NaN, NaN,0.03112983," ""- N/A -   """
18.87,635.211,0.0315883, NaN, NaN, NaN,0.03112983," ""- N/A -   """
18.9,636.5121,0.0316383, NaN, NaN, NaN,0.03112983," ""- N/A -   """
18.93,637.6949,0.0316855, NaN, NaN, NaN,0.0323506," ""- N/A -   """
18.96,638.8777,0.0317355, NaN, NaN, NaN,0.0323506," ""- N/A -   """
18.99,640.061,0.0317855, NaN, NaN, NaN,0.0323506," ""- N/A -   """
19.02,641.125,0.03183546, NaN, NaN, NaN,0.0335714," ""- N/A -   """
19.05,642.3078,0.0318799, NaN, NaN, NaN,0.0347922," ""- N/A -   """
19.08,643.2541,0.03192154, NaN, NaN, NaN,0.0384545," ""- N/A -   """
19.11,644.4369,0.031966, NaN, NaN, NaN,0.04089605," ""- N/A -   """
19.14,645.501,0.0320104, NaN, NaN, NaN,0.0433376," ""- N/A -   """
19.17,646.6842,0.0320604, NaN, NaN, NaN,0.0445584," ""- N/A -   """
19.2,647.7487,0.032102, NaN, NaN, NaN,0.04699994," ""- N/A -   """
19.23,648.9316,0.032152, NaN, NaN, NaN,0.04699994," ""- N/A -   """
19.26,650.469,0.0322075, NaN, NaN, NaN,0.0445584," ""- N/A -   """
19.29,651.7703,0.0322603, NaN, NaN, NaN,0.0433376," ""- N/A -   """
19.32,653.1897,0.0323186, NaN, NaN, NaN,0.04089605," ""- N/A -   """
19.35,654.7273,0.0323797, NaN, NaN, NaN,0.03601294," ""- N/A -   """
19.38,656.1467,0.03243524, NaN, NaN, NaN,0.0335714," ""- N/A -   """
19.41,657.329,0.0324824, NaN, NaN, NaN,0.0335714," ""- N/A -   """
19.44,658.7489,0.0325352, NaN, NaN, NaN,0.0323506," ""- N/A -   """
19.47,659.8134,0.03258518, NaN, NaN, NaN,0.0335714," ""- N/A -   """
19.5,660.9962,0.03263239, NaN, NaN, NaN,0.0335714," ""- N/A -   """
19.53,662.4156,0.0326851, NaN, NaN, NaN,0.0323506," ""- N/A -   """
19.56,663.7167,0.0327407, NaN, NaN, NaN,0.0299091," ""- N/A -   """
19.59,665.136,0.03279344, NaN, NaN, NaN,0.0286883," ""- N/A -   """
19.62,666.437,0.0328434, NaN, NaN, NaN,0.0286883," ""- N/A -   """
19.65,667.383,0.0328906, NaN, NaN, NaN,0.0299091," ""- N/A -   """
19.68,668.566,0.0329351, NaN, NaN, NaN,0.0323506," ""- N/A -   """
19.71,669.394,0.0329767, NaN, NaN, NaN,0.03601294," ""- N/A -   """
19.74,670.4587,0.0330211, NaN, NaN, NaN,0.0396753," ""- N/A -   """
19.77,671.405,0.0330628, NaN, NaN, NaN,0.04211683," ""- N/A -   """
19.8,672.5877,0.03310444, NaN, NaN, NaN,0.04577916," ""- N/A -   """
19.83,673.534,0.03315164, NaN, NaN, NaN,0.04699994," ""- N/A -   """
19.86,674.953,0.0332016, NaN, NaN, NaN,0.04699994," ""- N/A -   """
19.89,676.1361,0.0332516, NaN, NaN, NaN,0.04699994," ""- N/A -   """
19.92,677.6738,0.0333099, NaN, NaN, NaN,0.0445584," ""- N/A -   """
19.95,679.2115,0.0333682, NaN, NaN, NaN,0.0396753," ""- N/A -   """
19.98,680.7491,0.0334265, NaN, NaN, NaN,0.0372337," ""- N/A -   """
20.01,682.05,0.0334793, NaN, NaN, NaN,0.0347922," ""- N/A -   """
20.04,683.351,0.0335321, NaN, NaN, NaN,0.0347922," ""- N/A -   """
20.07,684.6524,0.033582, NaN, NaN, NaN,0.0347922," ""- N/A -   """
20.1,685.9535,0.0336376, NaN, NaN, NaN,0.0323506," ""- N/A -   """
20.13,687.373,0.0336931, NaN, NaN, NaN,0.0299091," ""- N/A -   """
20.16,688.7922,0.0337459, NaN, NaN, NaN,0.0274675," ""- N/A -   """
20.19,689.975,0.03379585, NaN, NaN, NaN,0.0274675," ""- N/A -   """
20.22,691.2761,0.0338486, NaN, NaN, NaN,0.0274675," ""- N/A -   """
20.25,692.341,0.03389581, NaN, NaN, NaN,0.0286883," ""- N/A -   """
20.28,693.523,0.033943, NaN, NaN, NaN,0.0286883," ""- N/A -   """
20.31,694.8246,0.03399022, NaN, NaN, NaN,0.0299091," ""- N/A -   """
20.34,695.7708,0.0340291, NaN, NaN, NaN,0.0347922," ""- N/A -   """
20.37,696.717,0.0340707, NaN, NaN, NaN,0.0384545," ""- N/A -   """
20.4,697.9,0.034118, NaN, NaN, NaN,0.04089605," ""- N/A -   """
20.43,698.964,0.03416238, NaN, NaN, NaN,0.04211683," ""- N/A -   """
20.46,700.1472,0.0342096, NaN, NaN, NaN,0.0433376," ""- N/A -   """
20.49,701.448,0.03426234, NaN, NaN, NaN,0.04211683," ""- N/A -   """
20.52,702.7494,0.0343123, NaN, NaN, NaN,0.0433376," ""- N/A -   """
20.55,703.9321,0.03435675, NaN, NaN, NaN,0.0445584," ""- N/A -   """
20.58,704.997,0.034404, NaN, NaN, NaN,0.04577916," ""- N/A -   """
20.61,706.4161,0.0344567, NaN, NaN, NaN,0.04577916," ""- N/A -   """
20.64,707.954,0.0345122, NaN, NaN, NaN,0.04211683," ""- N/A -   """
20.67,709.373,0.0345678, NaN, NaN, NaN,0.0396753," ""- N/A -   """
20.7,710.7925,0.03462887, NaN, NaN, NaN,0.03601294," ""- N/A -   """
20.73,712.448,0.03468996, NaN, NaN, NaN,0.03112983," ""- N/A -   """
20.76,713.7495,0.0347399, NaN, NaN, NaN,0.0299091," ""- N/A -   """
20.79,714.932,0.0347899, NaN, NaN, NaN,0.0299091," ""- N/A -   """
20.82,716.2334,0.0348399, NaN, NaN, NaN,0.0299091," ""- N/A -   """
20.85,717.416,0.0348899, NaN, NaN, NaN,0.0299091," ""- N/A -   """
20.88,718.599,0.03493709, NaN, NaN, NaN,0.03112983," ""- N/A -   """
20.91,719.6635,0.03498152, NaN, NaN, NaN,0.0335714," ""- N/A -   """
20.94,720.9646,0.0350259, NaN, NaN, NaN,0.03601294," ""- N/A -   """
20.97,722.1474,0.03507593, NaN, NaN, NaN,0.03601294," ""- N/A -   """
21,723.4485,0.0351287, NaN, NaN, NaN,0.03601294," ""- N/A -   """
21.03,724.868,0.03517867, NaN, NaN, NaN,0.0347922," ""- N/A -   """
21.06,725.9324,0.0352259, NaN, NaN, NaN,0.03601294," ""- N/A -   """
21.09,727.233,0.0352759, NaN, NaN, NaN,0.03601294," ""- N/A -   """
21.12,728.298,0.0353203, NaN, NaN, NaN,0.0384545," ""- N/A -   """
21.15,729.244,0.03535916, NaN, NaN, NaN,0.0433376," ""- N/A -   """
21.18,730.427,0.0354064, NaN, NaN, NaN,0.04577916," ""- N/A -   """
21.21,731.6099,0.0354563, NaN, NaN, NaN,0.0445584," ""- N/A -   """
21.24,732.911,0.03550355, NaN, NaN, NaN,0.04577916," ""- N/A -   """
21.27,734.3304,0.0355591, NaN, NaN, NaN,0.0433376," ""- N/A -   """
21.3,735.986,0.0356202, NaN, NaN, NaN,0.0384545," ""- N/A -   """
21.33,737.5239,0.0356813, NaN, NaN, NaN,0.0335714," ""- N/A -   """
21.36,738.825,0.03573402, NaN, NaN, NaN,0.0323506," ""- N/A -   """
21.39,740.2444,0.0357896, NaN, NaN, NaN,0.0299091," ""- N/A -   """
21.42,741.5454,0.0358423, NaN, NaN, NaN,0.0286883," ""- N/A -   """
21.45,742.7283,0.0358895, NaN, NaN, NaN,0.0299091," ""- N/A -   """
21.48,743.9111,0.0359339, NaN, NaN, NaN,0.0323506," ""- N/A -   """
21.51,745.094,0.0359839, NaN, NaN, NaN,0.0323506," ""- N/A -   """
21.54,746.2767,0.03603113, NaN, NaN, NaN,0.0347922," ""- N/A -   """
21.57,747.5778,0.0360783, NaN, NaN, NaN,0.03601294," ""- N/A -   """
21.6,748.879,0.0361311, NaN, NaN, NaN,0.0347922," ""- N/A -   """
21.63,750.2983,0.03618663, NaN, NaN, NaN,0.0323506," ""- N/A -   """
21.66,751.7176,0.03623661, NaN, NaN, NaN,0.0323506," ""- N/A -   """
21.69,752.782,0.0362838, NaN, NaN, NaN,0.0335714," ""- N/A -   """
21.72,753.965,0.036331, NaN, NaN, NaN,0.0347922," ""- N/A -   """
21.75,755.266,0.036381, NaN, NaN, NaN,0.0347922," ""- N/A -   """
21.78,756.2123,0.03641988, NaN, NaN, NaN,0.0396753," ""- N/A -   """
21.81,757.0402,0.0364643, NaN, NaN, NaN,0.0433376," ""- N/A -   """
21.84,758.5779,0.0365143, NaN, NaN, NaN,0.04211683," ""- N/A -   """
21.87,759.879,0.0365698, NaN, NaN, NaN,0.0396753," ""- N/A -   """
21.9,761.298,0.0366198, NaN, NaN, NaN,0.0396753," ""- N/A -   """
21.93,762.363,0.036667, NaN, NaN, NaN,0.04089605," ""- N/A -   """
21.96,763.664,0.03671699, NaN, NaN, NaN,0.04089605," ""- N/A -   """
21.99,765.0833,0.036767, NaN, NaN, NaN,0.04089605," ""- N/A -   """
22.02,766.2662,0.03681973, NaN, NaN, NaN,0.0396753," ""- N/A -   """
22.05,767.6855,0.0368725, NaN, NaN, NaN,0.0384545," ""- N/A -   """
22.08,768.987,0.03692525, NaN, NaN, NaN,0.0372337," ""- N/A -   """
22.11,770.288,0.0369752, NaN, NaN, NaN,0.0372337," ""- N/A -   """
22.14,771.4705,0.03702521, NaN, NaN, NaN,0.0384545," ""- N/A -   """
22.17,772.7716,0.03707519, NaN, NaN, NaN,0.0384545," ""- N/A -   """
22.2,774.191,0.03712795, NaN, NaN, NaN,0.03601294," ""- N/A -   """
22.23,775.492,0.0371807, NaN, NaN, NaN,0.0347922," ""- N/A -   """
22.26,776.675,0.0372279, NaN, NaN, NaN,0.03601294," ""- N/A -   """
22.29,777.976,0.03728067, NaN, NaN, NaN,0.03601294," ""- N/A -   """
22.32,779.3953,0.0373307, NaN, NaN, NaN,0.0347922," ""- N/A -   """
22.35,780.6964,0.03738341, NaN, NaN, NaN,0.0335714," ""- N/A -   """
22.38,781.8792,0.0374334, NaN, NaN, NaN,0.0347922," ""- N/A -   """
22.41,783.1803,0.0374834, NaN, NaN, NaN,0.0335714," ""- N/A -   """
22.44,784.363,0.0375334, NaN, NaN, NaN,0.0335714," ""- N/A -   """
22.47,785.5459,0.03758056, NaN, NaN, NaN,0.0347922," ""- N/A -   """
22.5,786.4922,0.03762221, NaN, NaN, NaN,0.0384545," ""- N/A -   """
22.53,787.675,0.0376694, NaN, NaN, NaN,0.0396753," ""- N/A -   """
22.56,788.858,0.0377138, NaN, NaN, NaN,0.04211683," ""- N/A -   """
22.59,790.1589,0.0377638, NaN, NaN, NaN,0.04211683," ""- N/A -   """
22.62,791.46,0.03781103, NaN, NaN, NaN,0.0433376," ""- N/A -   """
22.65,792.761,0.037861, NaN, NaN, NaN,0.0433376," ""- N/A -   """
22.68,794.0622,0.03791377, NaN, NaN, NaN,0.04211683," ""- N/A -   """
22.71,795.4815,0.03797208, NaN, NaN, NaN,0.0396753," ""- N/A -   """
22.74,797.137,0.03803317, NaN, NaN, NaN,0.0335714," ""- N/A -   """
22.77,798.6751,0.0380887, NaN, NaN, NaN,0.03112983," ""- N/A -   """
22.8,799.8579,0.0381415, NaN, NaN, NaN,0.03112983," ""- N/A -   """
22.83,801.0407,0.03818589, NaN, NaN, NaN,0.0323506," ""- N/A -   """
22.86,802.2236,0.0382331, NaN, NaN, NaN,0.0335714," ""- N/A -   """
22.89,803.2881,0.0382831, NaN, NaN, NaN,0.0347922," ""- N/A -   """
22.92,804.5892,0.0383331, NaN, NaN, NaN,0.0335714," ""- N/A -   """
22.95,805.89,0.03838582, NaN, NaN, NaN,0.0335714," ""- N/A -   """
22.98,807.4279,0.0384386, NaN, NaN, NaN,0.03112983," ""- N/A -   """
23.01,808.729,0.03849411, NaN, NaN, NaN,0.0299091," ""- N/A -   """
23.04,810.0301,0.0385413, NaN, NaN, NaN,0.0299091," ""- N/A -   """
23.07,810.9763,0.03858574, NaN, NaN, NaN,0.0323506," ""- N/A -   """
23.1,812.277,0.0386329, NaN, NaN, NaN,0.0335714," ""- N/A -   """
23.13,813.4602,0.0386802, NaN, NaN, NaN,0.0347922," ""- N/A -   """
23.16,814.406,0.0387218, NaN, NaN, NaN,0.0384545," ""- N/A -   """
23.19,815.5893,0.038769, NaN, NaN, NaN,0.04089605," ""- N/A -   """
23.22,816.772,0.03881344, NaN, NaN, NaN,0.04211683," ""- N/A -   """
23.25,817.9549,0.0388606, NaN, NaN, NaN,0.0433376," ""- N/A -   """
23.28,819.256,0.0389078, NaN, NaN, NaN,0.0445584," ""- N/A -   """
23.31,820.675,0.03896616, NaN, NaN, NaN,0.04211683," ""- N/A -   """
23.34,821.976,0.03901614, NaN, NaN, NaN,0.04089605," ""- N/A -   """
23.37,823.159,0.03906612, NaN, NaN, NaN,0.04211683," ""- N/A -   """
23.4,824.5786,0.0391161, NaN, NaN, NaN,0.04089605," ""- N/A -   """
23.43,825.998,0.0391744, NaN, NaN, NaN,0.0372337," ""- N/A -   """
23.46,827.417,0.03922717, NaN, NaN, NaN,0.03601294," ""- N/A -   """
23.49,828.718,0.0392799, NaN, NaN, NaN,0.0347922," ""- N/A -   """
23.52,830.1378,0.0393327, NaN, NaN, NaN,0.0335714," ""- N/A -   """
23.55,831.5572,0.0393882, NaN, NaN, NaN,0.0323506," ""- N/A -   """
23.58,832.8582,0.03944098, NaN, NaN, NaN,0.0299091," ""- N/A -   """
23.61,834.159,0.039491, NaN, NaN, NaN,0.0299091," ""- N/A -   """
23.64,835.342,0.03953817, NaN, NaN, NaN,0.03112983," ""- N/A -   """
23.67,836.643,0.0395909, NaN, NaN, NaN,0.03112983," ""- N/A -   """
23.7,837.944,0.03964091, NaN, NaN, NaN,0.0299091," ""- N/A -   """
23.73,839.1272,0.03968811, NaN, NaN, NaN,0.03112983," ""- N/A -   """
23.76,840.31,0.0397325, NaN, NaN, NaN,0.0347922," ""- N/A -   """
23.79,841.2562,0.0397742, NaN, NaN, NaN,0.0372337," ""- N/A -   """
23.791,841.2562,0.03977697, NaN, NaN, NaN,0.0372337," ""- N/A -   """