File: 2_Tensile_Data/Hamel_ForceTest_Bolt9_Test8.csv
Time, Load (lb), Position (in), AxialStrain (in), TransverseStrain (in), Auxiliary (), Control Out (V), Stress (psi)
0.0, 13.09217, 0.0, NaN, NaN, NaN, -0.007935055, "- N/A -   "
0.01, 12.9742, 2.776752E-6, NaN, NaN, NaN, -6.103888E-4, "- N/A -   "
0.02, 13.09217, 2.776752E-6, NaN, NaN, NaN, 0.01037661, "- N/A -   "
0.03, 13.09217, 2.776752E-6, NaN, NaN, NaN, 0.0299091, "- N/A -   "
0.04, 13.2101, 8.330256E-6, NaN, NaN, NaN, 0.04699994, "- N/A -   "
0.05, 13.3281, 2.2214e-05, NaN, NaN, NaN, 0.0604285, "- N/A -   "
0.06, 13.6819, 4.16513e-05, NaN, NaN, NaN, 0.07263627, "- N/A -   "
0.07, 13.9178, 6.386529E-5, NaN, NaN, NaN, 0.08240249, "- N/A -   "
0.08, 14.2716, 8.885606E-5, NaN, NaN, NaN, 0.0897272, "- N/A -   "
0.09, 14.6255, 0.0001194, NaN, NaN, NaN, 0.095831, "- N/A -   "
0.1, 14.9793, 0.000152721, NaN, NaN, NaN, 0.09338949, "- N/A -   "
0.11, 15.4511, 0.000183266, NaN, NaN, NaN, 0.0872856, "- N/A -   "
0.12, 15.805, 0.000211033, NaN, NaN, NaN, 0.08240249, "- N/A -   "
0.13, 16.1588, 2.360239E-4, NaN, NaN, NaN, 0.07874016, "- N/A -   "
0.14, 16.3947, 0.000261015, NaN, NaN, NaN, 0.0750778, "- N/A -   "
0.15, 16.86649, 2.832287E-4, NaN, NaN, NaN, 0.07141549, "- N/A -   "
0.16, 17.2203, 3.054427E-4, NaN, NaN, NaN, 0.0689739, "- N/A -   "
0.17, 17.4562, 0.000327657, NaN, NaN, NaN, 0.06775316, "- N/A -   "
0.18, 17.5742, 0.000344317, NaN, NaN, NaN, 0.06653238, "- N/A -   "
0.19, 17.928, 3.637545E-4, NaN, NaN, NaN, 0.06653238, "- N/A -   "
0.2, 18.046, 0.000383192, NaN, NaN, NaN, 0.0640908, "- N/A -   "
0.21, 18.2819, 0.000399852, NaN, NaN, NaN, 0.0640908, "- N/A -   "
0.22, 18.5178, 4.192895E-4, NaN, NaN, NaN, 0.06287005, "- N/A -   "
0.23, 18.6357, 0.00043595, NaN, NaN, NaN, 0.06287005, "- N/A -   "
0.24, 18.9895, 4.553873E-4, NaN, NaN, NaN, 0.06164927, "- N/A -   "
0.25, 19.2254, 0.000474825, NaN, NaN, NaN, 0.06164927, "- N/A -   "
0.26, 19.3434, 0.000491485, NaN, NaN, NaN, 0.0604285, "- N/A -   "
0.27, 19.57928, 5.081456E-4, NaN, NaN, NaN, 0.0604285, "- N/A -   "
0.28, 19.8152, 0.000527583, NaN, NaN, NaN, 0.0592077, "- N/A -   "
0.29, 20.05107, 5.470201E-4, NaN, NaN, NaN, 0.0579869, "- N/A -   "
0.3, 20.287, 0.000569234, NaN, NaN, NaN, 0.05676616, "- N/A -   "
0.31, 20.52286, 0.000588671, NaN, NaN, NaN, 0.0543246, "- N/A -   "
0.32, 20.7588, 6.108854E-4, NaN, NaN, NaN, 0.0531038, "- N/A -   "
0.33, 21.1126, 0.000630323, NaN, NaN, NaN, 0.05066227, "- N/A -   "
0.34, 21.3485, 6.497599E-4, NaN, NaN, NaN, 0.0494415, "- N/A -   "
0.35, 21.5844, 6.719739E-4, NaN, NaN, NaN, 0.04699994, "- N/A -   "
0.36, 21.8203, 6.914112E-4, NaN, NaN, NaN, 0.04577916, "- N/A -   "
0.37, 22.0562, 7.108485E-4, NaN, NaN, NaN, 0.04577916, "- N/A -   "
0.38, 22.29207, 7.302857E-4, NaN, NaN, NaN, 0.0445584, "- N/A -   "
0.39, 22.528, 7.49723E-4, NaN, NaN, NaN, 0.0433376, "- N/A -   "
0.4, 22.7639, 7.691603E-4, NaN, NaN, NaN, 0.04211683, "- N/A -   "
0.41, 22.9998, 0.000785821, NaN, NaN, NaN, 0.04089605, "- N/A -   "
0.42, 23.1177, 0.000805258, NaN, NaN, NaN, 0.04089605, "- N/A -   "
0.43, 23.3536, 8.191418E-4, NaN, NaN, NaN, 0.04089605, "- N/A -   "
0.44, 23.5895, 8.358023E-4, NaN, NaN, NaN, 0.04089605, "- N/A -   "
0.45, 23.82539, 8.552396E-4, NaN, NaN, NaN, 0.0396753, "- N/A -   "
0.46, 23.9433, 0.0008719, NaN, NaN, NaN, 0.0396753, "- N/A -   "
0.47, 24.1792, 8.885606E-4, NaN, NaN, NaN, 0.0396753, "- N/A -   "
0.48, 24.4151, 9.052211E-4, NaN, NaN, NaN, 0.0396753, "- N/A -   "
0.49, 24.65102, 9.218816E-4, NaN, NaN, NaN, 0.0396753, "- N/A -   "
0.5, 24.8869, 0.000941319, NaN, NaN, NaN, 0.0384545, "- N/A -   "
0.51, 25.1228, 0.000960756, NaN, NaN, NaN, 0.0384545, "- N/A -   "
0.52, 25.2408, 9.801934E-4, NaN, NaN, NaN, 0.0372337, "- N/A -   "
0.53, 25.4767, 9.968539E-4, NaN, NaN, NaN, 0.03601294, "- N/A -   "
0.54, 25.7125, 0.00101629, NaN, NaN, NaN, 0.0347922, "- N/A -   "
0.55, 25.9484, 0.00103851, NaN, NaN, NaN, 0.0323506, "- N/A -   "
0.56, 26.3023, 0.00105794, NaN, NaN, NaN, 0.0323506, "- N/A -   "
0.57, 26.4202, 0.001074603, NaN, NaN, NaN, 0.03112983, "- N/A -   "
0.58, 26.6561, 0.00109126, NaN, NaN, NaN, 0.03112983, "- N/A -   "
0.59, 26.892, 0.00110792, NaN, NaN, NaN, 0.03112983, "- N/A -   "
0.6, 27.1279, 0.00112458, NaN, NaN, NaN, 0.03112983, "- N/A -   "
0.61, 27.2459, 0.001141245, NaN, NaN, NaN, 0.03112983, "- N/A -   "
0.62, 27.3638, 0.00115791, NaN, NaN, NaN, 0.03112983, "- N/A -   "
0.63, 27.5997, 0.001174566, NaN, NaN, NaN, 0.03112983, "- N/A -   "
0.64, 27.8356, 0.00119123, NaN, NaN, NaN, 0.03112983, "- N/A -   "
0.65, 28.0715, 0.00120789, NaN, NaN, NaN, 0.03112983, "- N/A -   "
0.66, 28.1894, 0.00122455, NaN, NaN, NaN, 0.03112983, "- N/A -   "
0.67, 28.42534, 0.001241208, NaN, NaN, NaN, 0.03112983, "- N/A -   "
0.68, 28.54329, 0.00125787, NaN, NaN, NaN, 0.03112983, "- N/A -   "
0.69, 28.7792, 0.001274529, NaN, NaN, NaN, 0.03112983, "- N/A -   "
0.7, 28.89713, 0.00128841, NaN, NaN, NaN, 0.0323506, "- N/A -   "
0.71, 29.251, 0.00130507, NaN, NaN, NaN, 0.0323506, "- N/A -   "
0.72, 29.251, 0.00131896, NaN, NaN, NaN, 0.0335714, "- N/A -   "
0.73, 29.4869, 0.00133562, NaN, NaN, NaN, 0.0335714, "- N/A -   "
0.74, 29.6048, 0.0013495, NaN, NaN, NaN, 0.0347922, "- N/A -   "
0.75, 29.84071, 0.00136339, NaN, NaN, NaN, 0.03601294, "- N/A -   "
0.76, 29.9587, 0.00137727, NaN, NaN, NaN, 0.0372337, "- N/A -   "
0.77, 30.0766, 0.00139115, NaN, NaN, NaN, 0.0384545, "- N/A -   "
0.78, 30.3125, 0.00140504, NaN, NaN, NaN, 0.0396753, "- N/A -   "
0.79, 30.4304, 0.00141892, NaN, NaN, NaN, 0.04211683, "- N/A -   "
0.8, 30.6663, 0.0014328, NaN, NaN, NaN, 0.04211683, "- N/A -   "
0.81, 30.78429, 0.00144669, NaN, NaN, NaN, 0.0433376, "- N/A -   "
0.82, 30.9022, 0.00146057, NaN, NaN, NaN, 0.0445584, "- N/A -   "
0.83, 31.1381, 0.001477232, NaN, NaN, NaN, 0.0445584, "- N/A -   "
0.84, 31.374, 0.00149389, NaN, NaN, NaN, 0.04577916, "- N/A -   "
0.85, 31.492, 0.001510553, NaN, NaN, NaN, 0.04577916, "- N/A -   "
0.86, 31.72787, 0.00152721, NaN, NaN, NaN, 0.0445584, "- N/A -   "
0.87, 31.9638, 0.001543874, NaN, NaN, NaN, 0.0445584, "- N/A -   "
0.88, 32.1997, 0.00156331, NaN, NaN, NaN, 0.0433376, "- N/A -   "
0.89, 32.4356, 0.00158275, NaN, NaN, NaN, 0.0433376, "- N/A -   "
0.9, 32.67145, 0.001599409, NaN, NaN, NaN, 0.04211683, "- N/A -   "
0.91, 32.7894, 0.00161607, NaN, NaN, NaN, 0.04211683, "- N/A -   "
0.92, 32.9073, 0.00163551, NaN, NaN, NaN, 0.04211683, "- N/A -   "
0.93, 33.2612, 0.00165217, NaN, NaN, NaN, 0.04211683, "- N/A -   "
0.94, 33.3791, 0.00166605, NaN, NaN, NaN, 0.04211683, "- N/A -   "
0.95, 33.61503, 0.00168271, NaN, NaN, NaN, 0.04211683, "- N/A -   "
0.96, 33.8509, 0.00170215, NaN, NaN, NaN, 0.04211683, "- N/A -   "
0.97, 34.08682, 0.00171881, NaN, NaN, NaN, 0.04089605, "- N/A -   "
0.98, 34.2048, 0.00173825, NaN, NaN, NaN, 0.0396753, "- N/A -   "
0.99, 34.55861, 0.00175491, NaN, NaN, NaN, 0.0396753, "- N/A -   "
1, 34.6766, 0.00177157, NaN, NaN, NaN, 0.0396753, "- N/A -   "
1.01, 34.9125, 0.00178823, NaN, NaN, NaN, 0.0396753, "- N/A -   "
1.02, 35.0304, 0.00180489, NaN, NaN, NaN, 0.0396753, "- N/A -   "
1.03, 35.2663, 0.00182433, NaN, NaN, NaN, 0.0384545, "- N/A -   "
1.04, 35.50219, 0.00184376, NaN, NaN, NaN, 0.0384545, "- N/A -   "
1.05, 35.6201, 0.00186042, NaN, NaN, NaN, 0.0384545, "- N/A -   "
1.06, 35.97398, 0.00187708, NaN, NaN, NaN, 0.0372337, "- N/A -   "
1.07, 36.2099, 0.00189652, NaN, NaN, NaN, 0.03601294, "- N/A -   "
1.08, 36.44577, 0.00191596, NaN, NaN, NaN, 0.0347922, "- N/A -   "
1.09, 36.5637, 0.001935396, NaN, NaN, NaN, 0.0335714, "- N/A -   "
1.1, 36.79961, 0.00195483, NaN, NaN, NaN, 0.0323506, "- N/A -   "
1.11, 37.0355, 0.00197427, NaN, NaN, NaN, 0.03112983, "- N/A -   "
1.12, 37.2714, 0.00199371, NaN, NaN, NaN, 0.0299091, "- N/A -   "
1.13, 37.5073, 0.002013145, NaN, NaN, NaN, 0.0299091, "- N/A -   "
1.14, 37.74319, 0.00202981, NaN, NaN, NaN, 0.0286883, "- N/A -   "
1.15, 37.9791, 0.002046466, NaN, NaN, NaN, 0.0286883, "- N/A -   "
1.16, 38.097, 0.00206313, NaN, NaN, NaN, 0.0286883, "- N/A -   "
1.17, 38.3329, 0.00207979, NaN, NaN, NaN, 0.0286883, "- N/A -   "
1.18, 38.5688, 0.00209645, NaN, NaN, NaN, 0.0286883, "- N/A -   "
1.19, 38.68677, 0.002113108, NaN, NaN, NaN, 0.0286883, "- N/A -   "
1.2, 38.8047, 0.00212977, NaN, NaN, NaN, 0.0286883, "- N/A -   "
1.21, 39.15856, 0.00214365, NaN, NaN, NaN, 0.0299091, "- N/A -   "
1.22, 39.2765, 0.00216309, NaN, NaN, NaN, 0.0299091, "- N/A -   "
1.23, 39.3945, 0.00217975, NaN, NaN, NaN, 0.0299091, "- N/A -   "
1.24, 39.5124, 0.002193634, NaN, NaN, NaN, 0.0299091, "- N/A -   "
1.25, 39.7483, 0.00221029, NaN, NaN, NaN, 0.03112983, "- N/A -   "
1.26, 39.98419, 0.00222418, NaN, NaN, NaN, 0.03112983, "- N/A -   "
1.27, 40.22009, 0.00224084, NaN, NaN, NaN, 0.03112983, "- N/A -   "
1.28, 40.33803, 0.0022575, NaN, NaN, NaN, 0.0323506, "- N/A -   "
1.29, 40.456, 0.002271383, NaN, NaN, NaN, 0.0323506, "- N/A -   "
1.3, 40.69188, 0.00228804, NaN, NaN, NaN, 0.0323506, "- N/A -   "
1.31, 40.9278, 0.002304704, NaN, NaN, NaN, 0.0323506, "- N/A -   "
1.32, 41.16367, 0.00232136, NaN, NaN, NaN, 0.0323506, "- N/A -   "
1.33, 41.2816, 0.002338025, NaN, NaN, NaN, 0.0335714, "- N/A -   "
1.34, 41.51751, 0.00235191, NaN, NaN, NaN, 0.0335714, "- N/A -   "
1.35, 41.6355, 0.00236857, NaN, NaN, NaN, 0.0335714, "- N/A -   "
1.36, 41.8714, 0.00238523, NaN, NaN, NaN, 0.0347922, "- N/A -   "
1.37, 41.9893, 0.00240189, NaN, NaN, NaN, 0.0347922, "- N/A -   "
1.38, 42.2252, 0.00241577, NaN, NaN, NaN, 0.0347922, "- N/A -   "
1.39, 42.4611, 0.00243243, NaN, NaN, NaN, 0.03601294, "- N/A -   "
1.4, 42.579, 0.00244632, NaN, NaN, NaN, 0.03601294, "- N/A -   "
1.41, 42.8149, 0.00246298, NaN, NaN, NaN, 0.0372337, "- N/A -   "
1.42, 42.93288, 0.00247964, NaN, NaN, NaN, 0.03601294, "- N/A -   "
1.43, 43.1688, 0.00249908, NaN, NaN, NaN, 0.0347922, "- N/A -   "
1.44, 43.5226, 0.00251574, NaN, NaN, NaN, 0.0347922, "- N/A -   "
1.45, 43.5226, 0.0025324, NaN, NaN, NaN, 0.03601294, "- N/A -   "
1.46, 43.75851, 0.00254628, NaN, NaN, NaN, 0.03601294, "- N/A -   "
1.47, 43.87646, 0.00256017, NaN, NaN, NaN, 0.0372337, "- N/A -   "
1.48, 43.9944, 0.00257405, NaN, NaN, NaN, 0.0384545, "- N/A -   "
1.49, 44.34825, 0.00258793, NaN, NaN, NaN, 0.0396753, "- N/A -   "
1.5, 44.34825, 0.00260182, NaN, NaN, NaN, 0.04089605, "- N/A -   "
1.51, 44.4662, 0.00261848, NaN, NaN, NaN, 0.04089605, "- N/A -   "
1.52, 44.82, 0.00263236, NaN, NaN, NaN, 0.04211683, "- N/A -   "
1.53, 44.93799, 0.00264902, NaN, NaN, NaN, 0.0433376, "- N/A -   "
1.54, 45.05593, 0.002662905, NaN, NaN, NaN, 0.0433376, "- N/A -   "
1.55, 45.29183, 0.00267957, NaN, NaN, NaN, 0.0445584, "- N/A -   "
1.56, 45.5277, 0.00269345, NaN, NaN, NaN, 0.0445584, "- N/A -   "
1.57, 45.6457, 0.00271011, NaN, NaN, NaN, 0.0445584, "- N/A -   "
1.58, 45.8816, 0.00272677, NaN, NaN, NaN, 0.0445584, "- N/A -   "
1.59, 45.9995, 0.002743431, NaN, NaN, NaN, 0.0445584, "- N/A -   "
1.6, 46.23541, 0.00276009, NaN, NaN, NaN, 0.0445584, "- N/A -   "
1.61, 46.4713, 0.00277675, NaN, NaN, NaN, 0.0445584, "- N/A -   "
1.62, 46.5893, 0.00279341, NaN, NaN, NaN, 0.04577916, "- N/A -   "
1.63, 46.9431, 0.002807296, NaN, NaN, NaN, 0.04577916, "- N/A -   "
1.64, 47.179, 0.00282673, NaN, NaN, NaN, 0.04577916, "- N/A -   "
1.65, 47.4149, 0.00284617, NaN, NaN, NaN, 0.0445584, "- N/A -   "
1.66, 47.5328, 0.00286561, NaN, NaN, NaN, 0.04211683, "- N/A -   "
1.67, 47.8867, 0.00288505, NaN, NaN, NaN, 0.04089605, "- N/A -   "
1.68, 48.12257, 0.00290448, NaN, NaN, NaN, 0.0396753, "- N/A -   "
1.69, 48.3585, 0.00292392, NaN, NaN, NaN, 0.0384545, "- N/A -   "
1.7, 48.59436, 0.002943357, NaN, NaN, NaN, 0.0384545, "- N/A -   "
1.71, 48.83025, 0.00296279, NaN, NaN, NaN, 0.0372337, "- N/A -   "
1.72, 49.0661, 0.00297945, NaN, NaN, NaN, 0.03601294, "- N/A -   "
1.73, 49.30204, 0.002998892, NaN, NaN, NaN, 0.0347922, "- N/A -   "
1.74, 49.6559, 0.00301555, NaN, NaN, NaN, 0.0347922, "- N/A -   "
1.75, 49.7738, 0.00303499, NaN, NaN, NaN, 0.0347922, "- N/A -   "
1.76, 50.0097, 0.00305165, NaN, NaN, NaN, 0.0335714, "- N/A -   "
1.77, 50.1277, 0.00307109, NaN, NaN, NaN, 0.0335714, "- N/A -   "
1.78, 50.3636, 0.00308497, NaN, NaN, NaN, 0.0335714, "- N/A -   "
1.79, 50.5995, 0.00310441, NaN, NaN, NaN, 0.0323506, "- N/A -   "
1.8, 50.9533, 0.003121069, NaN, NaN, NaN, 0.0323506, "- N/A -   "
1.81, 50.9533, 0.00314051, NaN, NaN, NaN, 0.0323506, "- N/A -   "
1.82, 51.30715, 0.003157167, NaN, NaN, NaN, 0.0323506, "- N/A -   "
1.83, 51.543, 0.00317105, NaN, NaN, NaN, 0.0323506, "- N/A -   "
1.84, 51.66099, 0.00318771, NaN, NaN, NaN, 0.0335714, "- N/A -   "
1.85, 51.7789, 0.003201595, NaN, NaN, NaN, 0.0347922, "- N/A -   "
1.86, 52.01483, 0.003212702, NaN, NaN, NaN, 0.03601294, "- N/A -   "
1.87, 52.25073, 0.00322936, NaN, NaN, NaN, 0.03601294, "- N/A -   "
1.88, 52.36868, 0.003246023, NaN, NaN, NaN, 0.0372337, "- N/A -   "
1.89, 52.72252, 0.00325991, NaN, NaN, NaN, 0.0372337, "- N/A -   "
1.9, 52.84047, 0.00327657, NaN, NaN, NaN, 0.0384545, "- N/A -   "
1.91, 53.0764, 0.00329045, NaN, NaN, NaN, 0.0384545, "- N/A -   "
1.92, 53.19431, 0.00330711, NaN, NaN, NaN, 0.0384545, "- N/A -   "
1.93, 53.4302, 0.003323772, NaN, NaN, NaN, 0.0396753, "- N/A -   "
1.94, 53.6661, 0.00334043, NaN, NaN, NaN, 0.0384545, "- N/A -   "
1.95, 53.902, 0.003357093, NaN, NaN, NaN, 0.0384545, "- N/A -   "
1.96, 54.13789, 0.00337653, NaN, NaN, NaN, 0.0372337, "- N/A -   "
1.97, 54.3738, 0.00339597, NaN, NaN, NaN, 0.03601294, "- N/A -   "
1.98, 54.7276, 0.003412628, NaN, NaN, NaN, 0.03601294, "- N/A -   "
1.99, 54.9635, 0.00343207, NaN, NaN, NaN, 0.03601294, "- N/A -   "
2, 55.0815, 0.00344873, NaN, NaN, NaN, 0.0347922, "- N/A -   "
2.01, 55.3174, 0.003468163, NaN, NaN, NaN, 0.0335714, "- N/A -   "
2.02, 55.6712, 0.00348482, NaN, NaN, NaN, 0.0335714, "- N/A -   "
2.03, 55.7892, 0.00350426, NaN, NaN, NaN, 0.0335714, "- N/A -   "
2.04, 56.02505, 0.00352092, NaN, NaN, NaN, 0.0323506, "- N/A -   "
2.05, 56.2609, 0.00353758, NaN, NaN, NaN, 0.0335714, "- N/A -   "
2.06, 56.4968, 0.00355147, NaN, NaN, NaN, 0.0335714, "- N/A -   "
2.07, 56.73273, 0.00356813, NaN, NaN, NaN, 0.0335714, "- N/A -   "
2.08, 57.08658, 0.00358479, NaN, NaN, NaN, 0.0335714, "- N/A -   "
2.09, 57.08658, 0.00360145, NaN, NaN, NaN, 0.0347922, "- N/A -   "
2.1, 57.32247, 0.00361811, NaN, NaN, NaN, 0.0335714, "- N/A -   "
2.11, 57.6763, 0.00363477, NaN, NaN, NaN, 0.0335714, "- N/A -   "
2.12, 57.79426, 0.00365143, NaN, NaN, NaN, 0.0347922, "- N/A -   "
2.13, 57.91221, 0.00366531, NaN, NaN, NaN, 0.0347922, "- N/A -   "
2.14, 58.1481, 0.0036792, NaN, NaN, NaN, 0.03601294, "- N/A -   "
2.15, 58.384, 0.00369586, NaN, NaN, NaN, 0.0372337, "- N/A -   "
2.16, 58.5019, 0.00370696, NaN, NaN, NaN, 0.0384545, "- N/A -   "
2.17, 58.7378, 0.00372085, NaN, NaN, NaN, 0.0396753, "- N/A -   "
2.18, 58.9737, 0.00373751, NaN, NaN, NaN, 0.0396753, "- N/A -   "
2.19, 59.0917, 0.00375139, NaN, NaN, NaN, 0.04089605, "- N/A -   "
2.2, 59.3276, 0.00376528, NaN, NaN, NaN, 0.04211683, "- N/A -   "
2.21, 59.5635, 0.003781936, NaN, NaN, NaN, 0.04211683, "- N/A -   "
2.22, 59.68142, 0.0037986, NaN, NaN, NaN, 0.04211683, "- N/A -   "
2.23, 60.0353, 0.003815257, NaN, NaN, NaN, 0.04211683, "- N/A -   "
2.24, 60.27116, 0.00383192, NaN, NaN, NaN, 0.04211683, "- N/A -   "
2.25, 60.5071, 0.00385135, NaN, NaN, NaN, 0.04089605, "- N/A -   "
2.26, 60.7429, 0.003870792, NaN, NaN, NaN, 0.04089605, "- N/A -   "
2.27, 60.8609, 0.00388745, NaN, NaN, NaN, 0.04089605, "- N/A -   "
2.28, 61.09679, 0.003904113, NaN, NaN, NaN, 0.0396753, "- N/A -   "
2.29, 61.45063, 0.00392077, NaN, NaN, NaN, 0.0396753, "- N/A -   "
2.3, 61.56858, 0.003937434, NaN, NaN, NaN, 0.0396753, "- N/A -   "
2.31, 61.9224, 0.00395409, NaN, NaN, NaN, 0.0396753, "- N/A -   "
2.32, 62.1583, 0.003973532, NaN, NaN, NaN, 0.0384545, "- N/A -   "
2.33, 62.3942, 0.003992969, NaN, NaN, NaN, 0.0372337, "- N/A -   "
2.34, 62.6301, 0.00401241, NaN, NaN, NaN, 0.0372337, "- N/A -   "
2.35, 62.98395, 0.00402907, NaN, NaN, NaN, 0.03601294, "- N/A -   "
2.36, 63.1019, 0.004048504, NaN, NaN, NaN, 0.0347922, "- N/A -   "
2.37, 63.45574, 0.00406794, NaN, NaN, NaN, 0.0347922, "- N/A -   "
2.38, 63.6916, 0.004084602, NaN, NaN, NaN, 0.0347922, "- N/A -   "
2.39, 63.92753, 0.00409849, NaN, NaN, NaN, 0.0347922, "- N/A -   "
2.4, 64.04548, 0.004115146, NaN, NaN, NaN, 0.0347922, "- N/A -   "
2.41, 64.28137, 0.00413181, NaN, NaN, NaN, 0.0347922, "- N/A -   "
2.42, 64.5173, 0.004148467, NaN, NaN, NaN, 0.0347922, "- N/A -   "
2.43, 64.75317, 0.004165128, NaN, NaN, NaN, 0.0347922, "- N/A -   "
2.44, 64.98906, 0.00418179, NaN, NaN, NaN, 0.0347922, "- N/A -   "
2.45, 65.107, 0.00419845, NaN, NaN, NaN, 0.0347922, "- N/A -   "
2.46, 65.3429, 0.004215109, NaN, NaN, NaN, 0.0347922, "- N/A -   "
2.47, 65.69674, 0.004234547, NaN, NaN, NaN, 0.0347922, "- N/A -   "
2.48, 65.81469, 0.00424843, NaN, NaN, NaN, 0.0347922, "- N/A -   "
2.49, 66.05058, 0.004265091, NaN, NaN, NaN, 0.0347922, "- N/A -   "
2.5, 66.2865, 0.00428175, NaN, NaN, NaN, 0.0347922, "- N/A -   "
2.51, 66.52237, 0.00430119, NaN, NaN, NaN, 0.0347922, "- N/A -   "
2.52, 66.75827, 0.00431785, NaN, NaN, NaN, 0.0335714, "- N/A -   "
2.53, 66.99416, 0.004337286, NaN, NaN, NaN, 0.0335714, "- N/A -   "
2.54, 67.23006, 0.004353947, NaN, NaN, NaN, 0.0323506, "- N/A -   "
2.55, 67.5839, 0.004373384, NaN, NaN, NaN, 0.03112983, "- N/A -   "
2.56, 67.70185, 0.00439004, NaN, NaN, NaN, 0.0323506, "- N/A -   "
2.57, 67.9377, 0.00440671, NaN, NaN, NaN, 0.03112983, "- N/A -   "
2.58, 68.29159, 0.004423366, NaN, NaN, NaN, 0.03112983, "- N/A -   "
2.59, 68.52748, 0.004442803, NaN, NaN, NaN, 0.03112983, "- N/A -   "
2.6, 68.6454, 0.00445946, NaN, NaN, NaN, 0.03112983, "- N/A -   "
2.61, 68.8813, 0.004476124, NaN, NaN, NaN, 0.03112983, "- N/A -   "
2.62, 68.9993, 0.00449001, NaN, NaN, NaN, 0.03112983, "- N/A -   "
2.63, 69.23517, 0.00450389, NaN, NaN, NaN, 0.0323506, "- N/A -   "
2.64, 69.47106, 0.004520552, NaN, NaN, NaN, 0.0323506, "- N/A -   "
2.65, 69.707, 0.00453721, NaN, NaN, NaN, 0.0335714, "- N/A -   "
2.66, 69.94285, 0.004553873, NaN, NaN, NaN, 0.0323506, "- N/A -   "
2.67, 70.17874, 0.00457053, NaN, NaN, NaN, 0.0335714, "- N/A -   "
2.68, 70.41464, 0.004584417, NaN, NaN, NaN, 0.0335714, "- N/A -   "
2.69, 70.5326, 0.00460385, NaN, NaN, NaN, 0.0335714, "- N/A -   "
2.7, 70.7685, 0.00461774, NaN, NaN, NaN, 0.0335714, "- N/A -   "
2.71, 70.88643, 0.004634399, NaN, NaN, NaN, 0.0335714, "- N/A -   "
2.72, 71.24027, 0.00464828, NaN, NaN, NaN, 0.0347922, "- N/A -   "
2.73, 71.3582, 0.00466772, NaN, NaN, NaN, 0.0335714, "- N/A -   "
2.74, 71.71206, 0.00468438, NaN, NaN, NaN, 0.0335714, "- N/A -   "
2.75, 71.83001, 0.00470382, NaN, NaN, NaN, 0.0335714, "- N/A -   "
2.76, 72.06591, 0.0047177, NaN, NaN, NaN, 0.0335714, "- N/A -   "
2.77, 72.3018, 0.004734362, NaN, NaN, NaN, 0.0347922, "- N/A -   "
2.78, 72.5377, 0.00475102, NaN, NaN, NaN, 0.0335714, "- N/A -   "
2.79, 72.89154, 0.004767683, NaN, NaN, NaN, 0.0335714, "- N/A -   "
2.8, 73.00948, 0.00478712, NaN, NaN, NaN, 0.0335714, "- N/A -   "
2.81, 73.36333, 0.00480378, NaN, NaN, NaN, 0.0323506, "- N/A -   "
2.82, 73.48127, 0.00481766, NaN, NaN, NaN, 0.0335714, "- N/A -   "
2.83, 73.83511, 0.004834325, NaN, NaN, NaN, 0.0335714, "- N/A -   "
2.84, 73.9531, 0.00484821, NaN, NaN, NaN, 0.0347922, "- N/A -   "
2.85, 74.071, 0.004862093, NaN, NaN, NaN, 0.03601294, "- N/A -   "
2.86, 74.3069, 0.004875976, NaN, NaN, NaN, 0.0384545, "- N/A -   "
2.87, 74.42485, 0.00488986, NaN, NaN, NaN, 0.0396753, "- N/A -   "
2.88, 74.66075, 0.00490652, NaN, NaN, NaN, 0.0396753, "- N/A -   "
2.89, 74.8966, 0.004920405, NaN, NaN, NaN, 0.0396753, "- N/A -   "
2.9, 75.0146, 0.004937065, NaN, NaN, NaN, 0.0396753, "- N/A -   "
2.91, 75.36844, 0.00495373, NaN, NaN, NaN, 0.0396753, "- N/A -   "
2.92, 75.48638, 0.004970385, NaN, NaN, NaN, 0.0396753, "- N/A -   "
2.93, 75.8402, 0.004987047, NaN, NaN, NaN, 0.0396753, "- N/A -   "
2.94, 75.95817, 0.00500093, NaN, NaN, NaN, 0.04089605, "- N/A -   "
2.95, 76.19407, 0.005017591, NaN, NaN, NaN, 0.04089605, "- N/A -   "
2.96, 76.43, 0.005034251, NaN, NaN, NaN, 0.04089605, "- N/A -   "
2.97, 76.6659, 0.00505091, NaN, NaN, NaN, 0.04211683, "- N/A -   "
2.98, 76.90175, 0.0050648, NaN, NaN, NaN, 0.04211683, "- N/A -   "
2.99, 77.13765, 0.00508146, NaN, NaN, NaN, 0.04211683, "- N/A -   "
3, 77.37354, 0.005098117, NaN, NaN, NaN, 0.0433376, "- N/A -   "
3.01, 77.49149, 0.00510922, NaN, NaN, NaN, 0.0445584, "- N/A -   "
3.02, 77.84533, 0.00512588, NaN, NaN, NaN, 0.0445584, "- N/A -   "
3.03, 78.08122, 0.005142545, NaN, NaN, NaN, 0.0445584, "- N/A -   "
3.04, 78.19917, 0.00516198, NaN, NaN, NaN, 0.0445584, "- N/A -   "
3.05, 78.4351, 0.00517864, NaN, NaN, NaN, 0.0433376, "- N/A -   "
3.06, 78.67096, 0.005195303, NaN, NaN, NaN, 0.0433376, "- N/A -   "
3.07, 78.90686, 0.00521196, NaN, NaN, NaN, 0.0433376, "- N/A -   "
3.08, 79.14275, 0.005231401, NaN, NaN, NaN, 0.0433376, "- N/A -   "
3.09, 79.37865, 0.00524806, NaN, NaN, NaN, 0.04211683, "- N/A -   "
3.1, 79.61454, 0.0052675, NaN, NaN, NaN, 0.04089605, "- N/A -   "
3.11, 79.96838, 0.005284159, NaN, NaN, NaN, 0.04089605, "- N/A -   "
3.12, 80.20428, 0.0053036, NaN, NaN, NaN, 0.0396753, "- N/A -   "
3.13, 80.44018, 0.00532303, NaN, NaN, NaN, 0.0384545, "- N/A -   "
3.14, 80.67606, 0.005342471, NaN, NaN, NaN, 0.0372337, "- N/A -   "
3.15, 81.14786, 0.00536191, NaN, NaN, NaN, 0.03601294, "- N/A -   "
3.16, 81.38376, 0.00538135, NaN, NaN, NaN, 0.0347922, "- N/A -   "
3.17, 81.61965, 0.00539801, NaN, NaN, NaN, 0.0347922, "- N/A -   "
3.18, 81.7376, 0.00541467, NaN, NaN, NaN, 0.0347922, "- N/A -   "
3.19, 81.97349, 0.005431327, NaN, NaN, NaN, 0.0347922, "- N/A -   "
3.2, 82.20939, 0.00544799, NaN, NaN, NaN, 0.0347922, "- N/A -   "
3.21, 82.44528, 0.00546465, NaN, NaN, NaN, 0.0347922, "- N/A -   "
3.22, 82.56323, 0.005481308, NaN, NaN, NaN, 0.0347922, "- N/A -   "
3.23, 82.91707, 0.00549519, NaN, NaN, NaN, 0.03601294, "- N/A -   "
3.24, 83.15297, 0.005511852, NaN, NaN, NaN, 0.03601294, "- N/A -   "
3.25, 83.27091, 0.00552851, NaN, NaN, NaN, 0.0372337, "- N/A -   "
3.26, 83.50681, 0.00554517, NaN, NaN, NaN, 0.03601294, "- N/A -   "
3.27, 83.74271, 0.00556183, NaN, NaN, NaN, 0.0372337, "- N/A -   "
3.28, 83.9786, 0.005578494, NaN, NaN, NaN, 0.0372337, "- N/A -   "
3.29, 84.21449, 0.005592378, NaN, NaN, NaN, 0.0372337, "- N/A -   "
3.3, 84.45039, 0.005609039, NaN, NaN, NaN, 0.0372337, "- N/A -   "
3.31, 84.68629, 0.0056257, NaN, NaN, NaN, 0.0372337, "- N/A -   "
3.32, 84.92217, 0.00564236, NaN, NaN, NaN, 0.0372337, "- N/A -   "
3.33, 85.15807, 0.0056618, NaN, NaN, NaN, 0.03601294, "- N/A -   "
3.34, 85.276, 0.00567846, NaN, NaN, NaN, 0.03601294, "- N/A -   "
3.35, 85.74781, 0.0056979, NaN, NaN, NaN, 0.0347922, "- N/A -   "
3.36, 85.9837, 0.005720109, NaN, NaN, NaN, 0.0335714, "- N/A -   "
3.37, 86.2196, 0.005739546, NaN, NaN, NaN, 0.0323506, "- N/A -   "
3.38, 86.57345, 0.00575898, NaN, NaN, NaN, 0.03112983, "- N/A -   "
3.39, 86.69139, 0.005775644, NaN, NaN, NaN, 0.0299091, "- N/A -   "
3.4, 87.04523, 0.00579508, NaN, NaN, NaN, 0.0299091, "- N/A -   "
3.41, 87.28113, 0.00580897, NaN, NaN, NaN, 0.0299091, "- N/A -   "
3.42, 87.51702, 0.00582563, NaN, NaN, NaN, 0.0299091, "- N/A -   "
3.43, 87.75292, 0.00584229, NaN, NaN, NaN, 0.0299091, "- N/A -   "
3.44, 87.8709, 0.005858946, NaN, NaN, NaN, 0.0299091, "- N/A -   "
3.45, 88.10676, 0.00587561, NaN, NaN, NaN, 0.0299091, "- N/A -   "
3.46, 88.34265, 0.00588949, NaN, NaN, NaN, 0.03112983, "- N/A -   "
3.47, 88.57855, 0.00590615, NaN, NaN, NaN, 0.03112983, "- N/A -   "
3.48, 88.8144, 0.00592281, NaN, NaN, NaN, 0.03112983, "- N/A -   "
3.49, 89.16828, 0.005939472, NaN, NaN, NaN, 0.0323506, "- N/A -   "
3.5, 89.28623, 0.00595336, NaN, NaN, NaN, 0.0323506, "- N/A -   "
3.51, 89.40418, 0.00596724, NaN, NaN, NaN, 0.0335714, "- N/A -   "
3.52, 89.6401, 0.0059839, NaN, NaN, NaN, 0.0347922, "- N/A -   "
3.53, 89.758, 0.005997784, NaN, NaN, NaN, 0.03601294, "- N/A -   "
3.54, 89.99392, 0.00600889, NaN, NaN, NaN, 0.0372337, "- N/A -   "
3.55, 90.11186, 0.006022774, NaN, NaN, NaN, 0.0384545, "- N/A -   "
3.56, 90.34776, 0.00603666, NaN, NaN, NaN, 0.04089605, "- N/A -   "
3.57, 90.4657, 0.00604777, NaN, NaN, NaN, 0.04211683, "- N/A -   "
3.58, 90.70161, 0.00606165, NaN, NaN, NaN, 0.0433376, "- N/A -   "
3.59, 90.81956, 0.00607553, NaN, NaN, NaN, 0.0445584, "- N/A -   "
3.6, 91.05545, 0.00609219, NaN, NaN, NaN, 0.0445584, "- N/A -   "
3.61, 91.2913, 0.006108854, NaN, NaN, NaN, 0.0445584, "- N/A -   "
3.62, 91.64519, 0.00612551, NaN, NaN, NaN, 0.04577916, "- N/A -   "
3.63, 91.76313, 0.00614218, NaN, NaN, NaN, 0.04699994, "- N/A -   "
3.64, 92.117, 0.00615606, NaN, NaN, NaN, 0.04699994, "- N/A -   "
3.65, 92.35287, 0.00617272, NaN, NaN, NaN, 0.04699994, "- N/A -   "
3.66, 92.58876, 0.00618938, NaN, NaN, NaN, 0.04699994, "- N/A -   "
3.67, 92.82466, 0.00620882, NaN, NaN, NaN, 0.04699994, "- N/A -   "
3.68, 93.0606, 0.006225478, NaN, NaN, NaN, 0.04577916, "- N/A -   "
3.69, 93.2965, 0.00624491, NaN, NaN, NaN, 0.0445584, "- N/A -   "
3.7, 93.65029, 0.00626435, NaN, NaN, NaN, 0.0433376, "- N/A -   "
3.71, 93.8862, 0.00628379, NaN, NaN, NaN, 0.04211683, "- N/A -   "
3.72, 94.1221, 0.006303226, NaN, NaN, NaN, 0.04089605, "- N/A -   "
3.73, 94.47592, 0.00631989, NaN, NaN, NaN, 0.04089605, "- N/A -   "
3.74, 94.7118, 0.006336548, NaN, NaN, NaN, 0.04089605, "- N/A -   "
3.75, 94.9477, 0.00635598, NaN, NaN, NaN, 0.0396753, "- N/A -   "
3.76, 95.30156, 0.00637542, NaN, NaN, NaN, 0.0384545, "- N/A -   "
3.77, 95.5374, 0.00639486, NaN, NaN, NaN, 0.0384545, "- N/A -   "
3.78, 95.7733, 0.00640874, NaN, NaN, NaN, 0.0384545, "- N/A -   "
3.79, 96.00924, 0.00642818, NaN, NaN, NaN, 0.0372337, "- N/A -   "
3.8, 96.24514, 0.00644484, NaN, NaN, NaN, 0.0372337, "- N/A -   "
3.81, 96.599, 0.00646428, NaN, NaN, NaN, 0.03601294, "- N/A -   "
3.82, 96.83487, 0.006483716, NaN, NaN, NaN, 0.03601294, "- N/A -   "
3.83, 97.07077, 0.006500376, NaN, NaN, NaN, 0.0347922, "- N/A -   "
3.84, 97.30666, 0.006519814, NaN, NaN, NaN, 0.0335714, "- N/A -   "
3.85, 97.6605, 0.006536474, NaN, NaN, NaN, 0.0335714, "- N/A -   "
3.86, 97.8964, 0.00655591, NaN, NaN, NaN, 0.0323506, "- N/A -   "
3.87, 98.13229, 0.00657535, NaN, NaN, NaN, 0.0323506, "- N/A -   "
3.88, 98.3682, 0.00659201, NaN, NaN, NaN, 0.03112983, "- N/A -   "
3.89, 98.60408, 0.00661145, NaN, NaN, NaN, 0.03112983, "- N/A -   "
3.9, 98.83998, 0.006630884, NaN, NaN, NaN, 0.0286883, "- N/A -   "
3.91, 99.1938, 0.006647544, NaN, NaN, NaN, 0.0286883, "- N/A -   "
3.92, 99.42972, 0.00666698, NaN, NaN, NaN, 0.0274675, "- N/A -   "
3.93, 99.66561, 0.00668642, NaN, NaN, NaN, 0.0262467, "- N/A -   "
3.94, 100.137, 0.006705856, NaN, NaN, NaN, 0.0262467, "- N/A -   "
3.95, 100.255, 0.00672252, NaN, NaN, NaN, 0.0250259, "- N/A -   "
3.96, 100.491, 0.0067364, NaN, NaN, NaN, 0.0262467, "- N/A -   "
3.97, 100.6092, 0.00675306, NaN, NaN, NaN, 0.0262467, "- N/A -   "
3.98, 100.845, 0.00676972, NaN, NaN, NaN, 0.0262467, "- N/A -   "
3.99, 101.081, 0.006786382, NaN, NaN, NaN, 0.0262467, "- N/A -   "
4, 101.435, 0.00680304, NaN, NaN, NaN, 0.0262467, "- N/A -   "
4.01, 101.671, 0.006819702, NaN, NaN, NaN, 0.0274675, "- N/A -   "
4.02, 101.907, 0.00683359, NaN, NaN, NaN, 0.0274675, "- N/A -   "
4.03, 102.025, 0.006850247, NaN, NaN, NaN, 0.0274675, "- N/A -   "
4.04, 102.26, 0.00686413, NaN, NaN, NaN, 0.0286883, "- N/A -   "
4.05, 102.496, 0.006878014, NaN, NaN, NaN, 0.0299091, "- N/A -   "
4.06, 102.6143, 0.0068919, NaN, NaN, NaN, 0.03112983, "- N/A -   "
4.07, 102.85, 0.00690856, NaN, NaN, NaN, 0.03112983, "- N/A -   "
4.08, 103.086, 0.00692244, NaN, NaN, NaN, 0.0323506, "- N/A -   "
4.09, 103.322, 0.006936326, NaN, NaN, NaN, 0.0335714, "- N/A -   "
4.1, 103.44, 0.00695299, NaN, NaN, NaN, 0.0335714, "- N/A -   "
4.11, 103.676, 0.00696687, NaN, NaN, NaN, 0.0347922, "- N/A -   "
4.12, 103.912, 0.00698075, NaN, NaN, NaN, 0.03601294, "- N/A -   "
4.13, 104.148, 0.006994638, NaN, NaN, NaN, 0.0372337, "- N/A -   "
4.14, 104.266, 0.00700852, NaN, NaN, NaN, 0.0384545, "- N/A -   "
4.15, 104.501, 0.007022406, NaN, NaN, NaN, 0.0396753, "- N/A -   "
4.16, 104.737, 0.00703907, NaN, NaN, NaN, 0.04089605, "- N/A -   "
4.17, 104.973, 0.00705295, NaN, NaN, NaN, 0.04089605, "- N/A -   "
4.18, 105.209, 0.00706683, NaN, NaN, NaN, 0.04211683, "- N/A -   "
4.19, 105.445, 0.007083494, NaN, NaN, NaN, 0.0433376, "- N/A -   "
4.2, 105.563, 0.00709738, NaN, NaN, NaN, 0.0433376, "- N/A -   "
4.21, 105.681, 0.007111262, NaN, NaN, NaN, 0.04577916, "- N/A -   "
4.22, 105.917, 0.00712792, NaN, NaN, NaN, 0.04577916, "- N/A -   "
4.23, 106.271, 0.007141806, NaN, NaN, NaN, 0.04577916, "- N/A -   "
4.24, 106.507, 0.00715847, NaN, NaN, NaN, 0.04577916, "- N/A -   "
4.25, 106.742, 0.00717513, NaN, NaN, NaN, 0.04577916, "- N/A -   "
4.26, 107.0963, 0.007191787, NaN, NaN, NaN, 0.04577916, "- N/A -   "
4.27, 107.214, 0.00720845, NaN, NaN, NaN, 0.04577916, "- N/A -   "
4.28, 107.45, 0.00722511, NaN, NaN, NaN, 0.04577916, "- N/A -   "
4.29, 107.804, 0.00724177, NaN, NaN, NaN, 0.04577916, "- N/A -   "
4.3, 108.04, 0.00725843, NaN, NaN, NaN, 0.04577916, "- N/A -   "
4.31, 108.276, 0.00727509, NaN, NaN, NaN, 0.04577916, "- N/A -   "
4.32, 108.512, 0.00729175, NaN, NaN, NaN, 0.04577916, "- N/A -   "
4.33, 108.63, 0.007308411, NaN, NaN, NaN, 0.04577916, "- N/A -   "
4.34, 108.983, 0.00732785, NaN, NaN, NaN, 0.0445584, "- N/A -   "
4.35, 109.3373, 0.00734451, NaN, NaN, NaN, 0.0445584, "- N/A -   "
4.36, 109.5732, 0.007363946, NaN, NaN, NaN, 0.0433376, "- N/A -   "
4.37, 109.8091, 0.00738061, NaN, NaN, NaN, 0.0433376, "- N/A -   "
4.38, 110.045, 0.007397267, NaN, NaN, NaN, 0.0433376, "- N/A -   "
4.39, 110.399, 0.0074167, NaN, NaN, NaN, 0.0433376, "- N/A -   "
4.4, 110.635, 0.007436141, NaN, NaN, NaN, 0.04211683, "- N/A -   "
4.41, 110.871, 0.007450025, NaN, NaN, NaN, 0.04211683, "- N/A -   "
4.42, 111.107, 0.00746669, NaN, NaN, NaN, 0.04211683, "- N/A -   "
4.43, 111.46, 0.00748612, NaN, NaN, NaN, 0.04211683, "- N/A -   "
4.44, 111.696, 0.007502783, NaN, NaN, NaN, 0.04089605, "- N/A -   "
4.45, 111.932, 0.00752222, NaN, NaN, NaN, 0.04089605, "- N/A -   "
4.46, 112.168, 0.00754166, NaN, NaN, NaN, 0.0396753, "- N/A -   "
4.47, 112.404, 0.007558319, NaN, NaN, NaN, 0.0384545, "- N/A -   "
4.48, 112.876, 0.00757776, NaN, NaN, NaN, 0.0372337, "- N/A -   "
4.49, 112.994, 0.007597193, NaN, NaN, NaN, 0.03601294, "- N/A -   "
4.5, 113.348, 0.00761663, NaN, NaN, NaN, 0.03601294, "- N/A -   "
4.51, 113.701, 0.007636067, NaN, NaN, NaN, 0.0347922, "- N/A -   "
4.52, 113.937, 0.007655505, NaN, NaN, NaN, 0.0335714, "- N/A -   "
4.53, 114.2911, 0.00767494, NaN, NaN, NaN, 0.0323506, "- N/A -   "
4.54, 114.645, 0.0076916, NaN, NaN, NaN, 0.03112983, "- N/A -   "
4.55, 114.763, 0.007708263, NaN, NaN, NaN, 0.03112983, "- N/A -   "
4.56, 115.117, 0.007724923, NaN, NaN, NaN, 0.03112983, "- N/A -   "
4.57, 115.235, 0.00774436, NaN, NaN, NaN, 0.03112983, "- N/A -   "
4.58, 115.471, 0.007758245, NaN, NaN, NaN, 0.03112983, "- N/A -   "
4.59, 115.706, 0.00777491, NaN, NaN, NaN, 0.03112983, "- N/A -   "
4.6, 115.942, 0.00779157, NaN, NaN, NaN, 0.03112983, "- N/A -   "
4.61, 116.296, 0.00780823, NaN, NaN, NaN, 0.03112983, "- N/A -   "
4.62, 116.414, 0.007824887, NaN, NaN, NaN, 0.0323506, "- N/A -   "
4.63, 116.65, 0.007838771, NaN, NaN, NaN, 0.0323506, "- N/A -   "
4.64, 116.886, 0.007855431, NaN, NaN, NaN, 0.0323506, "- N/A -   "
4.65, 117.24, 0.007872092, NaN, NaN, NaN, 0.0323506, "- N/A -   "
4.66, 117.358, 0.007885975, NaN, NaN, NaN, 0.0335714, "- N/A -   "
4.67, 117.712, 0.007902635, NaN, NaN, NaN, 0.0335714, "- N/A -   "
4.68, 117.947, 0.007919297, NaN, NaN, NaN, 0.0335714, "- N/A -   "
4.69, 118.065, 0.007933181, NaN, NaN, NaN, 0.0347922, "- N/A -   "
4.7, 118.419, 0.007949841, NaN, NaN, NaN, 0.0347922, "- N/A -   "
4.71, 118.655, 0.007963724, NaN, NaN, NaN, 0.03601294, "- N/A -   "
4.72, 119.009, 0.007983161, NaN, NaN, NaN, 0.0347922, "- N/A -   "
4.73, 119.127, 0.00799982, NaN, NaN, NaN, 0.0347922, "- N/A -   "
4.74, 119.481, 0.008016483, NaN, NaN, NaN, 0.0347922, "- N/A -   "
4.75, 119.599, 0.008033143, NaN, NaN, NaN, 0.0347922, "- N/A -   "
4.76, 119.835, 0.008047027, NaN, NaN, NaN, 0.03601294, "- N/A -   "
4.77, 120.071, 0.008063687, NaN, NaN, NaN, 0.03601294, "- N/A -   "
4.78, 120.306, 0.008080347, NaN, NaN, NaN, 0.03601294, "- N/A -   "
4.79, 120.66, 0.008097009, NaN, NaN, NaN, 0.0372337, "- N/A -   "
4.8, 120.778, 0.008113669, NaN, NaN, NaN, 0.0372337, "- N/A -   "
4.81, 121.132, 0.008127553, NaN, NaN, NaN, 0.0372337, "- N/A -   "
4.82, 121.25, 0.008144213, NaN, NaN, NaN, 0.0372337, "- N/A -   "
4.83, 121.604, 0.008160873, NaN, NaN, NaN, 0.0372337, "- N/A -   "
4.84, 121.84, 0.008177535, NaN, NaN, NaN, 0.0372337, "- N/A -   "
4.85, 122.076, 0.008194195, NaN, NaN, NaN, 0.0372337, "- N/A -   "
4.86, 122.429, 0.008210856, NaN, NaN, NaN, 0.0372337, "- N/A -   "
4.87, 122.547, 0.008227515, NaN, NaN, NaN, 0.0372337, "- N/A -   "
4.88, 122.901, 0.008244176, NaN, NaN, NaN, 0.0384545, "- N/A -   "
4.89, 123.137, 0.00825806, NaN, NaN, NaN, 0.0384545, "- N/A -   "
4.9, 123.373, 0.008274721, NaN, NaN, NaN, 0.0384545, "- N/A -   "
4.91, 123.491, 0.008288605, NaN, NaN, NaN, 0.0396753, "- N/A -   "
4.92, 123.845, 0.008302487, NaN, NaN, NaN, 0.04089605, "- N/A -   "
4.93, 123.963, 0.008319149, NaN, NaN, NaN, 0.04211683, "- N/A -   "
4.94, 124.199, 0.008335809, NaN, NaN, NaN, 0.04211683, "- N/A -   "
4.95, 124.435, 0.008349693, NaN, NaN, NaN, 0.04211683, "- N/A -   "
4.96, 124.67, 0.008363577, NaN, NaN, NaN, 0.0433376, "- N/A -   "
4.97, 125.024, 0.008380237, NaN, NaN, NaN, 0.0433376, "- N/A -   "
4.98, 125.142, 0.008394121, NaN, NaN, NaN, 0.0445584, "- N/A -   "
4.99, 125.378, 0.008410782, NaN, NaN, NaN, 0.0445584, "- N/A -   "
5, 125.732, 0.008424665, NaN, NaN, NaN, 0.04577916, "- N/A -   "
5.01, 125.85, 0.008441325, NaN, NaN, NaN, 0.04577916, "- N/A -   "
5.02, 126.204, 0.008457986, NaN, NaN, NaN, 0.04577916, "- N/A -   "
5.03, 126.558, 0.008477423, NaN, NaN, NaN, 0.0445584, "- N/A -   "
5.04, 126.676, 0.008494084, NaN, NaN, NaN, 0.0445584, "- N/A -   "
5.05, 127.147, 0.008513521, NaN, NaN, NaN, 0.0445584, "- N/A -   "
5.06, 127.383, 0.008532959, NaN, NaN, NaN, 0.0433376, "- N/A -   "
5.07, 127.737, 0.008552396, NaN, NaN, NaN, 0.04089605, "- N/A -   "
5.08, 127.973, 0.008571833, NaN, NaN, NaN, 0.0396753, "- N/A -   "
5.09, 128.327, 0.008594047, NaN, NaN, NaN, 0.0372337, "- N/A -   "
5.1, 128.6807, 0.008613484, NaN, NaN, NaN, 0.03601294, "- N/A -   "
5.11, 128.917, 0.008632922, NaN, NaN, NaN, 0.0347922, "- N/A -   "
5.12, 129.27, 0.008652359, NaN, NaN, NaN, 0.0335714, "- N/A -   "
5.13, 129.506, 0.008674573, NaN, NaN, NaN, 0.0323506, "- N/A -   "
5.14, 129.86, 0.008691234, NaN, NaN, NaN, 0.03112983, "- N/A -   "
5.15, 130.096, 0.008707894, NaN, NaN, NaN, 0.03112983, "- N/A -   "
5.16, 130.4499, 0.008727332, NaN, NaN, NaN, 0.0299091, "- N/A -   "
5.17, 130.804, 0.008743991, NaN, NaN, NaN, 0.0299091, "- N/A -   "
5.18, 130.922, 0.008760652, NaN, NaN, NaN, 0.0299091, "- N/A -   "
5.19, 131.276, 0.008777313, NaN, NaN, NaN, 0.0299091, "- N/A -   "
5.2, 131.511, 0.00879675, NaN, NaN, NaN, 0.0299091, "- N/A -   "
5.21, 131.747, 0.00881341, NaN, NaN, NaN, 0.0286883, "- N/A -   "
5.22, 131.983, 0.008830071, NaN, NaN, NaN, 0.0286883, "- N/A -   "
5.23, 132.219, 0.008843956, NaN, NaN, NaN, 0.0299091, "- N/A -   "
5.24, 132.573, 0.008860615, NaN, NaN, NaN, 0.0299091, "- N/A -   "
5.25, 132.6909, 0.008874499, NaN, NaN, NaN, 0.03112983, "- N/A -   "
5.26, 133.045, 0.00889116, NaN, NaN, NaN, 0.03112983, "- N/A -   "
5.27, 133.281, 0.00890782, NaN, NaN, NaN, 0.03112983, "- N/A -   "
5.28, 133.399, 0.008921703, NaN, NaN, NaN, 0.0323506, "- N/A -   "
5.29, 133.752, 0.008938364, NaN, NaN, NaN, 0.0323506, "- N/A -   "
5.3, 133.988, 0.008955025, NaN, NaN, NaN, 0.0335714, "- N/A -   "
5.31, 134.224, 0.008968908, NaN, NaN, NaN, 0.0335714, "- N/A -   "
5.32, 134.46, 0.00898557, NaN, NaN, NaN, 0.0347922, "- N/A -   "
5.33, 134.696, 0.008999453, NaN, NaN, NaN, 0.0347922, "- N/A -   "
5.34, 134.932, 0.009016113, NaN, NaN, NaN, 0.0347922, "- N/A -   "
5.35, 135.286, 0.009032774, NaN, NaN, NaN, 0.0347922, "- N/A -   "
5.36, 135.522, 0.009049434, NaN, NaN, NaN, 0.0347922, "- N/A -   "
5.37, 135.758, 0.009066096, NaN, NaN, NaN, 0.0347922, "- N/A -   "
5.38, 135.993, 0.009082756, NaN, NaN, NaN, 0.0347922, "- N/A -   "
5.39, 136.347, 0.009102192, NaN, NaN, NaN, 0.0335714, "- N/A -   "
5.4, 136.583, 0.009118853, NaN, NaN, NaN, 0.0335714, "- N/A -   "
5.41, 136.937, 0.00913829, NaN, NaN, NaN, 0.0323506, "- N/A -   "
5.42, 137.173, 0.009154951, NaN, NaN, NaN, 0.0323506, "- N/A -   "
5.43, 137.4088, 0.009171612, NaN, NaN, NaN, 0.0323506, "- N/A -   "
5.44, 137.763, 0.009188272, NaN, NaN, NaN, 0.0323506, "- N/A -   "
5.45, 137.999, 0.00920493, NaN, NaN, NaN, 0.0323506, "- N/A -   "
5.46, 138.352, 0.009221594, NaN, NaN, NaN, 0.0335714, "- N/A -   "
5.47, 138.588, 0.009235476, NaN, NaN, NaN, 0.0335714, "- N/A -   "
5.48, 138.824, 0.00924936, NaN, NaN, NaN, 0.0347922, "- N/A -   "
5.49, 139.06, 0.009266022, NaN, NaN, NaN, 0.0347922, "- N/A -   "
5.5, 139.296, 0.009279904, NaN, NaN, NaN, 0.03601294, "- N/A -   "
5.51, 139.532, 0.009293788, NaN, NaN, NaN, 0.0372337, "- N/A -   "
5.52, 139.768, 0.00931045, NaN, NaN, NaN, 0.0372337, "- N/A -   "
5.53, 140.004, 0.00932711, NaN, NaN, NaN, 0.0384545, "- N/A -   "
5.54, 140.357, 0.009340994, NaN, NaN, NaN, 0.0384545, "- N/A -   "
5.55, 140.357, 0.009354877, NaN, NaN, NaN, 0.0396753, "- N/A -   "
5.56, 140.711, 0.00936876, NaN, NaN, NaN, 0.04089605, "- N/A -   "
5.57, 140.947, 0.009385422, NaN, NaN, NaN, 0.04211683, "- N/A -   "
5.58, 141.183, 0.009399306, NaN, NaN, NaN, 0.0433376, "- N/A -   "
5.59, 141.419, 0.009413188, NaN, NaN, NaN, 0.0433376, "- N/A -   "
5.6, 141.6549, 0.00942985, NaN, NaN, NaN, 0.0445584, "- N/A -   "
5.61, 141.891, 0.009443734, NaN, NaN, NaN, 0.0445584, "- N/A -   "
5.62, 142.245, 0.009460394, NaN, NaN, NaN, 0.0445584, "- N/A -   "
5.63, 142.481, 0.009477054, NaN, NaN, NaN, 0.0445584, "- N/A -   "
5.64, 142.8344, 0.009493714, NaN, NaN, NaN, 0.0445584, "- N/A -   "
5.65, 143.188, 0.009513152, NaN, NaN, NaN, 0.0433376, "- N/A -   "
5.66, 143.424, 0.009532589, NaN, NaN, NaN, 0.0433376, "- N/A -   "
5.67, 143.778, 0.00954925, NaN, NaN, NaN, 0.04211683, "- N/A -   "
5.68, 144.132, 0.00956591, NaN, NaN, NaN, 0.04211683, "- N/A -   "
5.69, 144.368, 0.009585348, NaN, NaN, NaN, 0.04089605, "- N/A -   "
5.7, 144.486, 0.009599232, NaN, NaN, NaN, 0.04211683, "- N/A -   "
5.71, 144.8395, 0.009615892, NaN, NaN, NaN, 0.04211683, "- N/A -   "
5.72, 145.0754, 0.009635328, NaN, NaN, NaN, 0.04211683, "- N/A -   "
5.73, 145.429, 0.00965199, NaN, NaN, NaN, 0.04089605, "- N/A -   "
5.74, 145.783, 0.00966865, NaN, NaN, NaN, 0.04089605, "- N/A -   "
5.75, 146.137, 0.009688088, NaN, NaN, NaN, 0.04089605, "- N/A -   "
5.76, 146.491, 0.009707524, NaN, NaN, NaN, 0.0384545, "- N/A -   "
5.77, 146.727, 0.009726962, NaN, NaN, NaN, 0.0372337, "- N/A -   "
5.78, 147.0805, 0.00974362, NaN, NaN, NaN, 0.0372337, "- N/A -   "
5.79, 147.316, 0.009763059, NaN, NaN, NaN, 0.03601294, "- N/A -   "
5.8, 147.67, 0.009782497, NaN, NaN, NaN, 0.03601294, "- N/A -   "
5.81, 148.024, 0.009799156, NaN, NaN, NaN, 0.0347922, "- N/A -   "
5.82, 148.378, 0.009815818, NaN, NaN, NaN, 0.0347922, "- N/A -   "
5.83, 148.6138, 0.009832478, NaN, NaN, NaN, 0.0347922, "- N/A -   "
5.84, 148.8497, 0.009846362, NaN, NaN, NaN, 0.03601294, "- N/A -   "
5.85, 149.0856, 0.009865799, NaN, NaN, NaN, 0.03601294, "- N/A -   "
5.86, 149.3215, 0.009879682, NaN, NaN, NaN, 0.03601294, "- N/A -   "
5.87, 149.675, 0.009896343, NaN, NaN, NaN, 0.0372337, "- N/A -   "
5.88, 149.911, 0.009910227, NaN, NaN, NaN, 0.0372337, "- N/A -   "
5.89, 150.265, 0.009929664, NaN, NaN, NaN, 0.0372337, "- N/A -   "
5.9, 150.501, 0.009943549, NaN, NaN, NaN, 0.0372337, "- N/A -   "
5.91, 150.855, 0.009962985, NaN, NaN, NaN, 0.03601294, "- N/A -   "
5.92, 151.091, 0.009979647, NaN, NaN, NaN, 0.0372337, "- N/A -   "
5.93, 151.5625, 0.009996306, NaN, NaN, NaN, 0.03601294, "- N/A -   "
5.94, 151.68, 0.010013, NaN, NaN, NaN, 0.03601294, "- N/A -   "
5.95, 152.034, 0.0100324, NaN, NaN, NaN, 0.03601294, "- N/A -   "
[...]
23.35, 783.6535, 0.0390217, NaN, NaN, NaN, 0.0396753, "- N/A -   "
23.4, 785.7825, 0.03910222, NaN, NaN, NaN, 0.04089605, "- N/A -   "
23.45, 787.7933, 0.0391827, NaN, NaN, NaN, 0.0433376, "- N/A -   "
23.5, 789.9223, 0.0392633, NaN, NaN, NaN, 0.0445584, "- N/A -   "
23.55, 792.1697, 0.03934935, NaN, NaN, NaN, 0.04211683, "- N/A -   "
23.6, 794.5353, 0.03944098, NaN, NaN, NaN, 0.0384545, "- N/A -   "
23.65, 797.0192, 0.0395354, NaN, NaN, NaN, 0.0335714, "- N/A -   "
23.7, 799.267, 0.0396187, NaN, NaN, NaN, 0.0335714, "- N/A -   "
23.75, 801.2773, 0.039702, NaN, NaN, NaN, 0.0347922, "- N/A -   "
23.8, 803.2881, 0.03978252, NaN, NaN, NaN, 0.0347922, "- N/A -   "
23.85, 805.772, 0.0398742, NaN, NaN, NaN, 0.03112983, "- N/A -   "
23.9, 807.901, 0.03996023, NaN, NaN, NaN, 0.03112983, "- N/A -   "
23.95, 809.9118, 0.040038, NaN, NaN, NaN, 0.0323506, "- N/A -   "
24, 811.804, 0.0401074, NaN, NaN, NaN, 0.0384545, "- N/A -   "
24.05, 813.4602, 0.0401796, NaN, NaN, NaN, 0.0433376, "- N/A -   "
24.1, 815.471, 0.0402629, NaN, NaN, NaN, 0.0445584, "- N/A -   "
24.15, 817.9549, 0.0403518, NaN, NaN, NaN, 0.04211683, "- N/A -   "
24.2, 820.2023, 0.04044061, NaN, NaN, NaN, 0.0396753, "- N/A -   "
24.25, 822.5679, 0.0405295, NaN, NaN, NaN, 0.0372337, "- N/A -   "
24.3, 824.6969, 0.0406128, NaN, NaN, NaN, 0.03601294, "- N/A -   "
24.35, 826.9442, 0.0407016, NaN, NaN, NaN, 0.0335714, "- N/A -   "
24.4, 829.3098, 0.04079326, NaN, NaN, NaN, 0.0299091, "- N/A -   "
24.45, 831.0841, 0.04086823, NaN, NaN, NaN, 0.0335714, "- N/A -   "
24.5, 832.8582, 0.04093765, NaN, NaN, NaN, 0.0396753, "- N/A -   "
24.55, 835.1056, 0.0410265, NaN, NaN, NaN, 0.0384545, "- N/A -   "
24.6, 837.4712, 0.04111814, NaN, NaN, NaN, 0.0335714, "- N/A -   "
24.65, 839.6003, 0.0411987, NaN, NaN, NaN, 0.03601294, "- N/A -   "
24.7, 841.3745, 0.0412681, NaN, NaN, NaN, 0.04089605, "- N/A -   "
24.75, 843.5036, 0.04135139, NaN, NaN, NaN, 0.04211683, "- N/A -   "
24.8, 845.751, 0.04143469, NaN, NaN, NaN, 0.04089605, "- N/A -   "
24.85, 848.116, 0.0415208, NaN, NaN, NaN, 0.0396753, "- N/A -   "
24.9, 850.246, 0.04160685, NaN, NaN, NaN, 0.0384545, "- N/A -   "
24.95, 852.611, 0.04169848, NaN, NaN, NaN, 0.0347922, "- N/A -   "
25, 855.2134, 0.0417929, NaN, NaN, NaN, 0.0299091, "- N/A -   "
25.05, 857.4607, 0.04187897, NaN, NaN, NaN, 0.0286883, "- N/A -   "
25.1, 859.4715, 0.0419623, NaN, NaN, NaN, 0.0299091, "- N/A -   "
25.15, 861.482, 0.0420372, NaN, NaN, NaN, 0.0335714, "- N/A -   "
25.2, 863.611, 0.0421122, NaN, NaN, NaN, 0.03601294, "- N/A -   "
25.25, 865.6221, 0.04219552, NaN, NaN, NaN, 0.03601294, "- N/A -   "
25.3, 867.751, 0.0422788, NaN, NaN, NaN, 0.03601294, "- N/A -   "
25.35, 869.7619, 0.04235657, NaN, NaN, NaN, 0.0384545, "- N/A -   "
25.4, 871.5361, 0.0424288, NaN, NaN, NaN, 0.0433376, "- N/A -   "
25.45, 873.783, 0.0425093, NaN, NaN, NaN, 0.0445584, "- N/A -   "
25.5, 875.676, 0.042587, NaN, NaN, NaN, 0.04699994, "- N/A -   "
25.55, 878.278, 0.0426815, NaN, NaN, NaN, 0.04211683, "- N/A -   "
25.6, 880.9986, 0.0427842, NaN, NaN, NaN, 0.0347922, "- N/A -   "
25.65, 883.4825, 0.0428786, NaN, NaN, NaN, 0.0299091, "- N/A -   "
25.7, 885.6116, 0.0429619, NaN, NaN, NaN, 0.0286883, "- N/A -   "
25.75, 887.622, 0.0430397, NaN, NaN, NaN, 0.0323506, "- N/A -   "
25.8, 889.8696, 0.0431202, NaN, NaN, NaN, 0.0323506, "- N/A -   "
25.85, 891.88, 0.04320348, NaN, NaN, NaN, 0.0323506, "- N/A -   "
25.9, 894.4826, 0.0432923, NaN, NaN, NaN, 0.0299091, "- N/A -   "
25.95, 896.4934, 0.0433701, NaN, NaN, NaN, 0.0323506, "- N/A -   "
26, 898.268, 0.0434478, NaN, NaN, NaN, 0.0347922, "- N/A -   "
26.05, 900.16, 0.04352003, NaN, NaN, NaN, 0.0396753, "- N/A -   "
26.1, 902.2891, 0.0436006, NaN, NaN, NaN, 0.04089605, "- N/A -   "
26.15, 904.6547, 0.04368941, NaN, NaN, NaN, 0.0396753, "- N/A -   "
26.2, 906.7838, 0.0437727, NaN, NaN, NaN, 0.0396753, "- N/A -   "
26.25, 909.2677, 0.0438588, NaN, NaN, NaN, 0.0384545, "- N/A -   "
26.3, 911.5151, 0.0439449, NaN, NaN, NaN, 0.0372337, "- N/A -   "
26.35, 913.644, 0.0440282, NaN, NaN, NaN, 0.0372337, "- N/A -   "
26.4, 915.8914, 0.04411148, NaN, NaN, NaN, 0.0372337, "- N/A -   "
26.45, 918.139, 0.04419756, NaN, NaN, NaN, 0.03601294, "- N/A -   "
26.5, 920.5044, 0.0442864, NaN, NaN, NaN, 0.0347922, "- N/A -   "
26.55, 922.515, 0.04436416, NaN, NaN, NaN, 0.03601294, "- N/A -   "
26.6, 924.6442, 0.0444475, NaN, NaN, NaN, 0.03601294, "- N/A -   "
26.65, 927.0098, 0.0445335, NaN, NaN, NaN, 0.0347922, "- N/A -   "
26.7, 929.257, 0.0446196, NaN, NaN, NaN, 0.0335714, "- N/A -   "
26.75, 931.268, 0.0446946, NaN, NaN, NaN, 0.0372337, "- N/A -   "
26.8, 933.0422, 0.04476679, NaN, NaN, NaN, 0.04211683, "- N/A -   "
26.85, 935.1712, 0.0448473, NaN, NaN, NaN, 0.0445584, "- N/A -   "
26.9, 937.182, 0.0449251, NaN, NaN, NaN, 0.04577916, "- N/A -   "
26.95, 939.666, 0.0450139, NaN, NaN, NaN, 0.0433376, "- N/A -   "
27, 942.1498, 0.0451056, NaN, NaN, NaN, 0.0396753, "- N/A -   "
27.05, 944.634, 0.04520274, NaN, NaN, NaN, 0.0335714, "- N/A -   "
27.1, 947.118, 0.0452944, NaN, NaN, NaN, 0.0299091, "- N/A -   "
27.15, 949.247, 0.0453777, NaN, NaN, NaN, 0.0299091, "- N/A -   "
27.2, 951.3757, 0.04546098, NaN, NaN, NaN, 0.0299091, "- N/A -   "
27.25, 953.741, 0.0455498, NaN, NaN, NaN, 0.0286883, "- N/A -   "
27.3, 955.634, 0.04562481, NaN, NaN, NaN, 0.03112983, "- N/A -   "
27.35, 957.8811, 0.0457053, NaN, NaN, NaN, 0.0335714, "- N/A -   "
27.4, 959.7736, 0.04578031, NaN, NaN, NaN, 0.0372337, "- N/A -   "
27.45, 961.666, 0.04585528, NaN, NaN, NaN, 0.0396753, "- N/A -   "
27.5, 963.559, 0.0459247, NaN, NaN, NaN, 0.04577916, "- N/A -   "
27.55, 965.569, 0.0460052, NaN, NaN, NaN, 0.04699994, "- N/A -   "
27.6, 968.2898, 0.0460996, NaN, NaN, NaN, 0.04211683, "- N/A -   "
27.65, 970.655, 0.0461913, NaN, NaN, NaN, 0.0384545, "- N/A -   "
27.7, 973.021, 0.0462829, NaN, NaN, NaN, 0.0347922, "- N/A -   "
27.75, 975.268, 0.04636898, NaN, NaN, NaN, 0.0335714, "- N/A -   "
27.8, 977.634, 0.0464578, NaN, NaN, NaN, 0.0323506, "- N/A -   "
27.85, 980, 0.0465411, NaN, NaN, NaN, 0.03112983, "- N/A -   "
27.9, 982.247, 0.0466272, NaN, NaN, NaN, 0.03112983, "- N/A -   "
27.95, 984.2578, 0.0467077, NaN, NaN, NaN, 0.03112983, "- N/A -   "
28, 986.3868, 0.0467883, NaN, NaN, NaN, 0.0323506, "- N/A -   "
28.05, 988.2793, 0.0468605, NaN, NaN, NaN, 0.0372337, "- N/A -   "
28.1, 990.0535, 0.04693266, NaN, NaN, NaN, 0.04211683, "- N/A -   "
28.15, 992.1826, 0.0470132, NaN, NaN, NaN, 0.0445584, "- N/A -   "
28.2, 994.3116, 0.04709371, NaN, NaN, NaN, 0.0445584, "- N/A -   "
28.25, 996.559, 0.047177, NaN, NaN, NaN, 0.0445584, "- N/A -   "
28.3, 998.8063, 0.04726587, NaN, NaN, NaN, 0.0433376, "- N/A -   "
28.35, 1001.29, 0.04736028, NaN, NaN, NaN, 0.0384545, "- N/A -   "
28.4, 1004.01, 0.0474575, NaN, NaN, NaN, 0.03112983, "- N/A -   "
28.45, 1006.258, 0.04754632, NaN, NaN, NaN, 0.0286883, "- N/A -   "
28.5, 1008.51, 0.0476324, NaN, NaN, NaN, 0.0286883, "- N/A -   "
28.55, 1010.63, 0.0477129, NaN, NaN, NaN, 0.0286883, "- N/A -   "
28.6, 1012.65, 0.0477907, NaN, NaN, NaN, 0.0323506, "- N/A -   "
28.65, 1014.79, 0.0478629, NaN, NaN, NaN, 0.03601294, "- N/A -   "
28.7, 1016.82, 0.0479462, NaN, NaN, NaN, 0.03601294, "- N/A -   "
28.75, 1019.2, 0.04803225, NaN, NaN, NaN, 0.0347922, "- N/A -   "
28.8, 1021.23, 0.04811, NaN, NaN, NaN, 0.0372337, "- N/A -   "
28.85, 1023.14, 0.0481822, NaN, NaN, NaN, 0.04211683, "- N/A -   "
28.9, 1025.16, 0.0482544, NaN, NaN, NaN, 0.04699994, "- N/A -   "
28.95, 1027.55, 0.04834325, NaN, NaN, NaN, 0.0445584, "- N/A -   "
29, 1030.17, 0.0484404, NaN, NaN, NaN, 0.0384545, "- N/A -   "
29.05, 1032.68, 0.0485348, NaN, NaN, NaN, 0.0347922, "- N/A -   "
29.1, 1035.06, 0.0486237, NaN, NaN, NaN, 0.03112983, "- N/A -   "
29.15, 1036.85, 0.0486959, NaN, NaN, NaN, 0.03601294, "- N/A -   "
29.2, 1038.997, 0.0487736, NaN, NaN, NaN, 0.0384545, "- N/A -   "
29.25, 1041.26, 0.0488569, NaN, NaN, NaN, 0.0384545, "- N/A -   "
29.3, 1043.65, 0.0489486, NaN, NaN, NaN, 0.0347922, "- N/A -   "
29.35, 1046.15, 0.0490374, NaN, NaN, NaN, 0.0323506, "- N/A -   "
29.4, 1048.3, 0.0491152, NaN, NaN, NaN, 0.0347922, "- N/A -   "
29.45, 1050.21, 0.0491929, NaN, NaN, NaN, 0.0372337, "- N/A -   "
29.5, 1052.23, 0.0492707, NaN, NaN, NaN, 0.0396753, "- N/A -   "
29.55, 1054.38, 0.049354, NaN, NaN, NaN, 0.0396753, "- N/A -   "
29.6, 1056.65, 0.04943729, NaN, NaN, NaN, 0.0396753, "- N/A -   "
29.65, 1059.15, 0.0495261, NaN, NaN, NaN, 0.0372337, "- N/A -   "
29.7, 1061.54, 0.0496122, NaN, NaN, NaN, 0.03601294, "- N/A -   "
29.75, 1063.92, 0.0497039, NaN, NaN, NaN, 0.0335714, "- N/A -   "
29.8, 1066.07, 0.0497844, NaN, NaN, NaN, 0.0335714, "- N/A -   "
29.85, 1068.09, 0.0498594, NaN, NaN, NaN, 0.0372337, "- N/A -   "
29.9, 1070.241, 0.0499399, NaN, NaN, NaN, 0.0384545, "- N/A -   "
29.95, 1072.626, 0.0500315, NaN, NaN, NaN, 0.0347922, "- N/A -   "
30, 1075.25, 0.0501259, NaN, NaN, NaN, 0.03112983, "- N/A -   "
30.05, 1077.28, 0.0502009, NaN, NaN, NaN, 0.0335714, "- N/A -   "
30.1, 1079.3, 0.0502814, NaN, NaN, NaN, 0.03601294, "- N/A -   "
30.15, 1081.45, 0.0503647, NaN, NaN, NaN, 0.03601294, "- N/A -   "
30.2, 1083.84, 0.050448, NaN, NaN, NaN, 0.03601294, "- N/A -   "
30.25, 1086.1, 0.0505286, NaN, NaN, NaN, 0.03601294, "- N/A -   "
30.3, 1088.01, 0.0506035, NaN, NaN, NaN, 0.0396753, "- N/A -   "
30.35, 1090.156, 0.0506813, NaN, NaN, NaN, 0.04211683, "- N/A -   "
30.4, 1092.541, 0.0507729, NaN, NaN, NaN, 0.0396753, "- N/A -   "
30.45, 1095.4, 0.05087009, NaN, NaN, NaN, 0.0323506, "- N/A -   "
30.5, 1097.669, 0.0509534, NaN, NaN, NaN, 0.0323506, "- N/A -   "
30.55, 1099.7, 0.05103392, NaN, NaN, NaN, 0.0347922, "- N/A -   "
30.6, 1101.72, 0.0511144, NaN, NaN, NaN, 0.03601294, "- N/A -   "
30.65, 1104.11, 0.0512005, NaN, NaN, NaN, 0.0335714, "- N/A -   "
30.7, 1106.85, 0.05129771, NaN, NaN, NaN, 0.0286883, "- N/A -   "
30.75, 1108.88, 0.05137546, NaN, NaN, NaN, 0.0299091, "- N/A -   "
30.8, 1110.79, 0.0514477, NaN, NaN, NaN, 0.03601294, "- N/A -   "
30.85, 1112.69, 0.0515199, NaN, NaN, NaN, 0.04089605, "- N/A -   "
30.9, 1114.72, 0.0515948, NaN, NaN, NaN, 0.0445584, "- N/A -   "
30.95, 1116.63, 0.0516726, NaN, NaN, NaN, 0.0482207, "- N/A -   "
31, 1119.015, 0.05176143, NaN, NaN, NaN, 0.04577916, "- N/A -   "
31.05, 1121.88, 0.05185862, NaN, NaN, NaN, 0.0384545, "- N/A -   "
31.1, 1124.38, 0.0519475, NaN, NaN, NaN, 0.03601294, "- N/A -   "
31.15, 1126.65, 0.05203633, NaN, NaN, NaN, 0.0347922, "- N/A -   "
31.2, 1128.913, 0.05211963, NaN, NaN, NaN, 0.0335714, "- N/A -   "
31.25, 1131.54, 0.0522113, NaN, NaN, NaN, 0.0299091, "- N/A -   "
31.3, 1133.92, 0.05230012, NaN, NaN, NaN, 0.0274675, "- N/A -   "
31.35, 1135.95, 0.0523806, NaN, NaN, NaN, 0.0286883, "- N/A -   "
31.4, 1137.98, 0.05245562, NaN, NaN, NaN, 0.0323506, "- N/A -   "
31.45, 1140, 0.05253059, NaN, NaN, NaN, 0.03601294, "- N/A -   "
31.5, 1141.79, 0.0525972, NaN, NaN, NaN, 0.0433376, "- N/A -   "
31.55, 1143.94, 0.0526778, NaN, NaN, NaN, 0.0445584, "- N/A -   "
31.6, 1146.32, 0.05276106, NaN, NaN, NaN, 0.0445584, "- N/A -   "
31.65, 1148.47, 0.05284436, NaN, NaN, NaN, 0.04577916, "- N/A -   "
31.7, 1150.74, 0.05292767, NaN, NaN, NaN, 0.0445584, "- N/A -   "
31.75, 1153.36, 0.0530193, NaN, NaN, NaN, 0.04211683, "- N/A -   "
31.8, 1155.983, 0.0531165, NaN, NaN, NaN, 0.0347922, "- N/A -   "
31.85, 1158.61, 0.0532137, NaN, NaN, NaN, 0.0286883, "- N/A -   "
31.9, 1160.634, 0.0532942, NaN, NaN, NaN, 0.03112983, "- N/A -   "
31.95, 1162.9, 0.0533747, NaN, NaN, NaN, 0.0323506, "- N/A -   "
32, 1164.81, 0.0534469, NaN, NaN, NaN, 0.03601294, "- N/A -   "
32.05, 1166.95, 0.0535247, NaN, NaN, NaN, 0.0396753, "- N/A -   "
32.1, 1169.1, 0.05360242, NaN, NaN, NaN, 0.04089605, "- N/A -   "
32.15, 1171.37, 0.0536885, NaN, NaN, NaN, 0.0396753, "- N/A -   "
32.2, 1173.63, 0.0537718, NaN, NaN, NaN, 0.04089605, "- N/A -   "
32.25, 1175.9, 0.0538495, NaN, NaN, NaN, 0.0433376, "- N/A -   "
32.3, 1177.93, 0.0539273, NaN, NaN, NaN, 0.0445584, "- N/A -   "
32.35, 1180.19, 0.05401615, NaN, NaN, NaN, 0.0433376, "- N/A -   "
32.4, 1183.17, 0.0541189, NaN, NaN, NaN, 0.0347922, "- N/A -   "
32.45, 1185.68, 0.0542105, NaN, NaN, NaN, 0.0299091, "- N/A -   "
32.5, 1188.06, 0.0542966, NaN, NaN, NaN, 0.0286883, "- N/A -   "
32.55, 1190.09, 0.0543716, NaN, NaN, NaN, 0.0323506, "- N/A -   "
32.6, 1192.12, 0.05444655, NaN, NaN, NaN, 0.03601294, "- N/A -   "
32.65, 1194.5, 0.0545354, NaN, NaN, NaN, 0.0335714, "- N/A -   "
32.7, 1197.01, 0.05462704, NaN, NaN, NaN, 0.03112983, "- N/A -   "
32.75, 1199.27, 0.0547076, NaN, NaN, NaN, 0.03112983, "- N/A -   "
32.8, 1201.18, 0.0547825, NaN, NaN, NaN, 0.0347922, "- N/A -   "
32.85, 1203.21, 0.0548547, NaN, NaN, NaN, 0.0396753, "- N/A -   "
32.9, 1205.11, 0.0549325, NaN, NaN, NaN, 0.0433376, "- N/A -   "
32.95, 1207.62, 0.05502134, NaN, NaN, NaN, 0.04089605, "- N/A -   "
33, 1209.885, 0.0551074, NaN, NaN, NaN, 0.0396753, "- N/A -   "
33.05, 1212.15, 0.0551907, NaN, NaN, NaN, 0.0396753, "- N/A -   "
33.1, 1214.655, 0.05527957, NaN, NaN, NaN, 0.0372337, "- N/A -   "
33.15, 1216.92, 0.0553601, NaN, NaN, NaN, 0.0372337, "- N/A -   "
33.2, 1219.07, 0.0554434, NaN, NaN, NaN, 0.0372337, "- N/A -   "
33.25, 1221.45, 0.0555295, NaN, NaN, NaN, 0.03601294, "- N/A -   "
33.3, 1223.84, 0.05561556, NaN, NaN, NaN, 0.0347922, "- N/A -   "
33.35, 1225.86, 0.05569609, NaN, NaN, NaN, 0.03601294, "- N/A -   "
33.4, 1228.25, 0.05577939, NaN, NaN, NaN, 0.03601294, "- N/A -   "
33.45, 1230.52, 0.0558627, NaN, NaN, NaN, 0.03601294, "- N/A -   "
33.5, 1232.9, 0.05595155, NaN, NaN, NaN, 0.0335714, "- N/A -   "
33.55, 1235.05, 0.0560321, NaN, NaN, NaN, 0.03601294, "- N/A -   "
33.6, 1237.07, 0.056107, NaN, NaN, NaN, 0.0384545, "- N/A -   "
33.65, 1239.22, 0.05618757, NaN, NaN, NaN, 0.04089605, "- N/A -   "
33.7, 1241.49, 0.05626532, NaN, NaN, NaN, 0.04211683, "- N/A -   "
33.75, 1243.75, 0.05634862, NaN, NaN, NaN, 0.04211683, "- N/A -   "
33.8, 1246.26, 0.05643748, NaN, NaN, NaN, 0.0396753, "- N/A -   "
33.85, 1249, 0.0565347, NaN, NaN, NaN, 0.0335714, "- N/A -   "
33.9, 1251.27, 0.0566207, NaN, NaN, NaN, 0.0323506, "- N/A -   "
33.95, 1253.53, 0.0567068, NaN, NaN, NaN, 0.03112983, "- N/A -   "
34, 1255.68, 0.0567901, NaN, NaN, NaN, 0.0323506, "- N/A -   "
34.05, 1258.06, 0.056879, NaN, NaN, NaN, 0.0286883, "- N/A -   "
34.1, 1260.45, 0.05696506, NaN, NaN, NaN, 0.0274675, "- N/A -   "
34.15, 1262.71, 0.0570484, NaN, NaN, NaN, 0.0274675, "- N/A -   "
34.2, 1264.741, 0.05712056, NaN, NaN, NaN, 0.0323506, "- N/A -   "
34.25, 1266.29, 0.0571844, NaN, NaN, NaN, 0.04089605, "- N/A -   "
34.3, 1268.32, 0.0572594, NaN, NaN, NaN, 0.0445584, "- N/A -   "
34.35, 1270.7, 0.0573427, NaN, NaN, NaN, 0.04577916, "- N/A -   "
34.4, 1272.85, 0.057426, NaN, NaN, NaN, 0.0445584, "- N/A -   "
34.45, 1275.47, 0.0575176, NaN, NaN, NaN, 0.04089605, "- N/A -   "
34.5, 1277.98, 0.0576093, NaN, NaN, NaN, 0.0372337, "- N/A -   "
34.55, 1280.36, 0.0577009, NaN, NaN, NaN, 0.0335714, "- N/A -   "
34.6, 1282.51, 0.0577842, NaN, NaN, NaN, 0.0335714, "- N/A -   "
34.65, 1285.133, 0.0578758, NaN, NaN, NaN, 0.0299091, "- N/A -   "
34.7, 1287.52, 0.0579619, NaN, NaN, NaN, 0.0286883, "- N/A -   "
34.75, 1289.66, 0.0580424, NaN, NaN, NaN, 0.0299091, "- N/A -   "
34.8, 1291.811, 0.0581257, NaN, NaN, NaN, 0.03112983, "- N/A -   "
34.85, 1293.84, 0.05819794, NaN, NaN, NaN, 0.0347922, "- N/A -   "
34.9, 1295.75, 0.0582701, NaN, NaN, NaN, 0.0396753, "- N/A -   "
34.95, 1297.54, 0.0583423, NaN, NaN, NaN, 0.0445584, "- N/A -   "
35, 1299.8, 0.0584256, NaN, NaN, NaN, 0.04577916, "- N/A -   "
35.05, 1302.07, 0.05850616, NaN, NaN, NaN, 0.04577916, "- N/A -   "
35.1, 1304.33, 0.05859224, NaN, NaN, NaN, 0.0445584, "- N/A -   "
35.15, 1306.96, 0.0586839, NaN, NaN, NaN, 0.04089605, "- N/A -   "
35.2, 1309.7, 0.0587866, NaN, NaN, NaN, 0.0335714, "- N/A -   "
35.25, 1312.32, 0.0588838, NaN, NaN, NaN, 0.0274675, "- N/A -   "
35.3, 1314.469, 0.0589643, NaN, NaN, NaN, 0.0299091, "- N/A -   "
35.35, 1316.97, 0.0590504, NaN, NaN, NaN, 0.0274675, "- N/A -   "
35.4, 1319.12, 0.0591282, NaN, NaN, NaN, 0.0299091, "- N/A -   "
35.45, 1321.15, 0.0592059, NaN, NaN, NaN, 0.0323506, "- N/A -   "
35.5, 1323.29, 0.0592864, NaN, NaN, NaN, 0.0335714, "- N/A -   "
35.55, 1325.44, 0.059367, NaN, NaN, NaN, 0.0347922, "- N/A -   "
35.6, 1327.59, 0.0594447, NaN, NaN, NaN, 0.0372337, "- N/A -   "
35.65, 1329.26, 0.0595113, NaN, NaN, NaN, 0.0445584, "- N/A -   "
35.7, 1331.4, 0.05959187, NaN, NaN, NaN, 0.04699994, "- N/A -   "
35.75, 1333.67, 0.0596752, NaN, NaN, NaN, 0.04699994, "- N/A -   "
35.8, 1336.41, 0.0597696, NaN, NaN, NaN, 0.04089605, "- N/A -   "
35.85, 1339.03, 0.0598612, NaN, NaN, NaN, 0.0372337, "- N/A -   "
35.9, 1341.54, 0.0599528, NaN, NaN, NaN, 0.0335714, "- N/A -   "
35.95, 1343.8, 0.0600362, NaN, NaN, NaN, 0.0335714, "- N/A -   "
36, 1345.83, 0.0601167, NaN, NaN, NaN, 0.0347922, "- N/A -   "
36.05, 1348.098, 0.0601944, NaN, NaN, NaN, 0.0372337, "- N/A -   "
36.1, 1350.36, 0.0602805, NaN, NaN, NaN, 0.03601294, "- N/A -   "
36.15, 1352.63, 0.06036936, NaN, NaN, NaN, 0.0335714, "- N/A -   "
36.2, 1355.01, 0.0604499, NaN, NaN, NaN, 0.0347922, "- N/A -   "
36.25, 1357.16, 0.0605276, NaN, NaN, NaN, 0.0372337, "- N/A -   "
36.3, 1359.07, 0.06060261, NaN, NaN, NaN, 0.04089605, "- N/A -   "
36.35, 1361.22, 0.06068313, NaN, NaN, NaN, 0.04211683, "- N/A -   "
36.4, 1363.84, 0.0607748, NaN, NaN, NaN, 0.0384545, "- N/A -   "
36.45, 1365.99, 0.0608525, NaN, NaN, NaN, 0.04089605, "- N/A -   "
36.5, 1368.25, 0.0609386, NaN, NaN, NaN, 0.04089605, "- N/A -   "
36.55, 1370.64, 0.0610247, NaN, NaN, NaN, 0.0384545, "- N/A -   "
36.6, 1373.02, 0.06111353, NaN, NaN, NaN, 0.03601294, "- N/A -   "
36.65, 1375.29, 0.06119961, NaN, NaN, NaN, 0.03601294, "- N/A -   "
36.7, 1377.67, 0.0612829, NaN, NaN, NaN, 0.0347922, "- N/A -   "
36.75, 1379.94, 0.061369, NaN, NaN, NaN, 0.0335714, "- N/A -   "
36.8, 1382.32, 0.06145507, NaN, NaN, NaN, 0.0323506, "- N/A -   "
36.85, 1384.59, 0.0615384, NaN, NaN, NaN, 0.0323506, "- N/A -   "
36.9, 1386.97, 0.0616245, NaN, NaN, NaN, 0.03112983, "- N/A -   "
36.95, 1389.12, 0.06170498, NaN, NaN, NaN, 0.0323506, "- N/A -   "
37, 1390.91, 0.0617744, NaN, NaN, NaN, 0.0384545, "- N/A -   "
37.05, 1392.94, 0.06184937, NaN, NaN, NaN, 0.04211683, "- N/A -   "
37.1, 1395.08, 0.0619299, NaN, NaN, NaN, 0.0433376, "- N/A -   "
37.15, 1397.349, 0.0620104, NaN, NaN, NaN, 0.0445584, "- N/A -   "
37.2, 1399.5, 0.0620937, NaN, NaN, NaN, 0.04577916, "- N/A -   "
37.25, 1402.0, 0.06218258, NaN, NaN, NaN, 0.04211683, "- N/A -   "
37.3, 1404.74, 0.0622798, NaN, NaN, NaN, 0.03601294, "- N/A -   "
37.35, 1407.247, 0.06236862, NaN, NaN, NaN, 0.0335714, "- N/A -   "
37.4, 1409.51, 0.0624519, NaN, NaN, NaN, 0.0335714, "- N/A -   "
37.45, 1411.9, 0.0625408, NaN, NaN, NaN, 0.03112983, "- N/A -   "
37.5, 1414.16, 0.06262686, NaN, NaN, NaN, 0.0299091, "- N/A -   "
37.55, 1416.55, 0.06271016, NaN, NaN, NaN, 0.0299091, "- N/A -   "
37.6, 1418.46, 0.06278513, NaN, NaN, NaN, 0.0335714, "- N/A -   "
37.65, 1420.36, 0.06286011, NaN, NaN, NaN, 0.0384545, "- N/A -   "
37.7, 1422.39, 0.0629323, NaN, NaN, NaN, 0.04211683, "- N/A -   "
37.75, 1424.42, 0.06301005, NaN, NaN, NaN, 0.04577916, "- N/A -   "
37.8, 1426.92, 0.06309336, NaN, NaN, NaN, 0.0445584, "- N/A -   "
37.85, 1429.43, 0.06318776, NaN, NaN, NaN, 0.0396753, "- N/A -   "
37.9, 1431.93, 0.06328218, NaN, NaN, NaN, 0.03601294, "- N/A -   "
37.95, 1434.44, 0.06336825, NaN, NaN, NaN, 0.0335714, "- N/A -   "
38, 1436.7, 0.06345433, NaN, NaN, NaN, 0.0323506, "- N/A -   "
38.05, 1439.09, 0.0635404, NaN, NaN, NaN, 0.03112983, "- N/A -   "
38.1, 1441.353, 0.06362371, NaN, NaN, NaN, 0.03112983, "- N/A -   "
38.15, 1443.74, 0.0637126, NaN, NaN, NaN, 0.0286883, "- N/A -   "
38.2, 1446, 0.06379587, NaN, NaN, NaN, 0.0299091, "- N/A -   "
38.25, 1447.79, 0.06386529, NaN, NaN, NaN, 0.0347922, "- N/A -   "
38.3, 1449.94, 0.06394304, NaN, NaN, NaN, 0.0372337, "- N/A -   "
38.35, 1451.728, 0.06401246, NaN, NaN, NaN, 0.0433376, "- N/A -   "
38.394, 1453.76, 0.06408188, NaN, NaN, NaN, 0.04577916, "- N/A -   "