File: 2_Tensile_Data/Hamel_ForceTest_Bolt10_Test6.csv
Time, Load (lb), Position (in), AxialStrain (in), TransverseStrain (in), Auxiliary (), Control Out (V), Stress (psi)
0.0, 11.0871, 0.0, NaN, NaN, NaN, -0.007935055, "- N/A -   "
0.01, 11.0871, 0.0, NaN, NaN, NaN, -6.103888E-4, "- N/A -   "
0.02, 11.0871, 0.0, NaN, NaN, NaN, 0.006714277, "- N/A -   "
0.03, 11.0871, 0.0, NaN, NaN, NaN, 0.01525972, "- N/A -   "
0.04, 11.0871, 2.776752E-6, NaN, NaN, NaN, 0.0335714, "- N/A -   "
0.05, 11.205, 1.1107e-05, NaN, NaN, NaN, 0.0494415, "- N/A -   "
0.06, 11.4409, 2.2214e-05, NaN, NaN, NaN, 0.0640908, "- N/A -   "
0.07, 11.6768, 4.16513e-05, NaN, NaN, NaN, 0.0762986, "- N/A -   "
0.08, 12.14859, 6.386529E-5, NaN, NaN, NaN, 0.08606482, "- N/A -   "
0.09, 12.7383, 8.885606E-5, NaN, NaN, NaN, 0.09461027, "- N/A -   "
0.1, 13.2101, 0.000116624, NaN, NaN, NaN, 0.100714, "- N/A -   "
0.11, 13.7999, 0.000147168, NaN, NaN, NaN, 0.095831, "- N/A -   "
0.12, 14.3896, 0.000174935, NaN, NaN, NaN, 0.09094793, "- N/A -   "
0.13, 14.7434, 0.000197149, NaN, NaN, NaN, 0.0872856, "- N/A -   "
0.14, 15.3332, 0.00022214, NaN, NaN, NaN, 0.08362327, "- N/A -   "
0.15, 15.687, 2.471309E-4, NaN, NaN, NaN, 0.08118171, "- N/A -   "
0.16, 16.1588, 0.000269345, NaN, NaN, NaN, 0.07751938, "- N/A -   "
0.17, 16.5126, 0.000291559, NaN, NaN, NaN, 0.0750778, "- N/A -   "
0.18, 16.86649, 3.165497E-4, NaN, NaN, NaN, 0.07263627, "- N/A -   "
0.19, 17.2203, 0.000335987, NaN, NaN, NaN, 0.07141549, "- N/A -   "
0.2, 17.6921, 0.000358201, NaN, NaN, NaN, 0.0689739, "- N/A -   "
0.21, 17.928, 0.000377638, NaN, NaN, NaN, 0.06653238, "- N/A -   "
0.22, 18.3998, 0.000394299, NaN, NaN, NaN, 0.06653238, "- N/A -   "
0.23, 18.6357, 4.13736E-4, NaN, NaN, NaN, 0.0653116, "- N/A -   "
0.24, 19.1075, 0.00043595, NaN, NaN, NaN, 0.0640908, "- N/A -   "
0.25, 19.57928, 4.553873E-4, NaN, NaN, NaN, 0.06287005, "- N/A -   "
0.26, 19.8152, 0.000474825, NaN, NaN, NaN, 0.06164927, "- N/A -   "
0.27, 20.169, 4.942618E-4, NaN, NaN, NaN, 0.0592077, "- N/A -   "
0.28, 20.52286, 5.164758E-4, NaN, NaN, NaN, 0.0579869, "- N/A -   "
0.29, 20.99465, 5.359131E-4, NaN, NaN, NaN, 0.0555454, "- N/A -   "
0.3, 21.3485, 5.553504E-4, NaN, NaN, NaN, 0.0543246, "- N/A -   "
0.31, 21.7023, 0.000577564, NaN, NaN, NaN, 0.05188305, "- N/A -   "
0.32, 22.0562, 0.000597002, NaN, NaN, NaN, 0.05066227, "- N/A -   "
0.33, 22.41, 0.000619216, NaN, NaN, NaN, 0.0482207, "- N/A -   "
0.34, 22.88181, 6.414297E-4, NaN, NaN, NaN, 0.04699994, "- N/A -   "
0.35, 23.2357, 6.608669E-4, NaN, NaN, NaN, 0.0445584, "- N/A -   "
0.36, 23.5895, 6.830809E-4, NaN, NaN, NaN, 0.0433376, "- N/A -   "
0.37, 23.9433, 7.025182E-4, NaN, NaN, NaN, 0.04089605, "- N/A -   "
0.38, 24.4151, 7.219555E-4, NaN, NaN, NaN, 0.0396753, "- N/A -   "
0.39, 24.65102, 7.413927E-4, NaN, NaN, NaN, 0.0384545, "- N/A -   "
0.4, 25.1228, 7.6083E-4, NaN, NaN, NaN, 0.0372337, "- N/A -   "
0.41, 25.3587, 7.774905E-4, NaN, NaN, NaN, 0.0372337, "- N/A -   "
0.42, 25.7125, 7.969278E-4, NaN, NaN, NaN, 0.03601294, "- N/A -   "
0.43, 26.0664, 8.16365E-4, NaN, NaN, NaN, 0.03601294, "- N/A -   "
0.44, 26.3023, 0.000833026, NaN, NaN, NaN, 0.0347922, "- N/A -   "
0.45, 26.7741, 0.000849686, NaN, NaN, NaN, 0.03601294, "- N/A -   "
0.46, 27.01, 8.663466E-4, NaN, NaN, NaN, 0.0347922, "- N/A -   "
0.47, 27.1279, 0.00088023, NaN, NaN, NaN, 0.03601294, "- N/A -   "
0.48, 27.4818, 8.968908E-4, NaN, NaN, NaN, 0.0372337, "- N/A -   "
0.49, 27.7177, 0.000913551, NaN, NaN, NaN, 0.0372337, "- N/A -   "
0.5, 28.0715, 9.274351E-4, NaN, NaN, NaN, 0.0372337, "- N/A -   "
0.51, 28.42534, 9.440956E-4, NaN, NaN, NaN, 0.0372337, "- N/A -   "
0.52, 28.7792, 9.635329E-4, NaN, NaN, NaN, 0.03601294, "- N/A -   "
0.53, 29.133, 9.829701E-4, NaN, NaN, NaN, 0.0347922, "- N/A -   "
0.54, 29.4869, 0.00100241, NaN, NaN, NaN, 0.0335714, "- N/A -   "
0.55, 29.7228, 0.00102184, NaN, NaN, NaN, 0.0335714, "- N/A -   "
0.56, 30.1946, 0.00103851, NaN, NaN, NaN, 0.0323506, "- N/A -   "
0.57, 30.4304, 0.00105794, NaN, NaN, NaN, 0.03112983, "- N/A -   "
0.58, 30.78429, 0.001074603, NaN, NaN, NaN, 0.03112983, "- N/A -   "
0.59, 31.1381, 0.00109126, NaN, NaN, NaN, 0.03112983, "- N/A -   "
0.6, 31.492, 0.00110792, NaN, NaN, NaN, 0.03112983, "- N/A -   "
0.61, 31.72787, 0.00112736, NaN, NaN, NaN, 0.03112983, "- N/A -   "
0.62, 32.08171, 0.00114402, NaN, NaN, NaN, 0.0299091, "- N/A -   "
0.63, 32.4356, 0.00116068, NaN, NaN, NaN, 0.0299091, "- N/A -   "
0.64, 32.67145, 0.00117734, NaN, NaN, NaN, 0.03112983, "- N/A -   "
0.65, 32.9073, 0.00119123, NaN, NaN, NaN, 0.03112983, "- N/A -   "
0.66, 33.2612, 0.00120511, NaN, NaN, NaN, 0.0323506, "- N/A -   "
0.67, 33.49708, 0.00122177, NaN, NaN, NaN, 0.0323506, "- N/A -   "
0.68, 33.8509, 0.00123565, NaN, NaN, NaN, 0.0335714, "- N/A -   "
0.69, 34.08682, 0.00124954, NaN, NaN, NaN, 0.0347922, "- N/A -   "
0.7, 34.3227, 0.00126342, NaN, NaN, NaN, 0.03601294, "- N/A -   "
0.71, 34.55861, 0.00127731, NaN, NaN, NaN, 0.0372337, "- N/A -   "
0.72, 34.7945, 0.00129397, NaN, NaN, NaN, 0.0372337, "- N/A -   "
0.73, 35.1483, 0.00131063, NaN, NaN, NaN, 0.0384545, "- N/A -   "
0.74, 35.3842, 0.00132451, NaN, NaN, NaN, 0.0396753, "- N/A -   "
0.75, 35.6201, 0.00133839, NaN, NaN, NaN, 0.0396753, "- N/A -   "
0.76, 35.85603, 0.00135228, NaN, NaN, NaN, 0.04089605, "- N/A -   "
0.77, 36.0919, 0.00136616, NaN, NaN, NaN, 0.04211683, "- N/A -   "
0.78, 36.32782, 0.00138282, NaN, NaN, NaN, 0.04211683, "- N/A -   "
0.79, 36.6817, 0.001399483, NaN, NaN, NaN, 0.0433376, "- N/A -   "
0.8, 36.9176, 0.00141337, NaN, NaN, NaN, 0.0445584, "- N/A -   "
0.81, 37.15345, 0.00142725, NaN, NaN, NaN, 0.04577916, "- N/A -   "
0.82, 37.5073, 0.00144113, NaN, NaN, NaN, 0.04577916, "- N/A -   "
0.83, 37.8611, 0.00145779, NaN, NaN, NaN, 0.04577916, "- N/A -   "
0.84, 37.9791, 0.00147168, NaN, NaN, NaN, 0.04699994, "- N/A -   "
0.85, 38.3329, 0.00148834, NaN, NaN, NaN, 0.04699994, "- N/A -   "
0.86, 38.68677, 0.001505, NaN, NaN, NaN, 0.04699994, "- N/A -   "
0.87, 38.9227, 0.00152166, NaN, NaN, NaN, 0.04699994, "- N/A -   "
0.88, 39.2765, 0.0015411, NaN, NaN, NaN, 0.04577916, "- N/A -   "
0.89, 39.7483, 0.00156053, NaN, NaN, NaN, 0.0445584, "- N/A -   "
0.9, 39.98419, 0.00157997, NaN, NaN, NaN, 0.0433376, "- N/A -   "
0.91, 40.456, 0.001599409, NaN, NaN, NaN, 0.04211683, "- N/A -   "
0.92, 40.69188, 0.001621623, NaN, NaN, NaN, 0.04089605, "- N/A -   "
0.93, 41.16367, 0.00163828, NaN, NaN, NaN, 0.0396753, "- N/A -   "
0.94, 41.51751, 0.00165772, NaN, NaN, NaN, 0.0396753, "- N/A -   "
0.95, 41.8714, 0.00167438, NaN, NaN, NaN, 0.0384545, "- N/A -   "
0.96, 42.1072, 0.00169382, NaN, NaN, NaN, 0.0384545, "- N/A -   "
0.97, 42.4611, 0.00171048, NaN, NaN, NaN, 0.0384545, "- N/A -   "
0.98, 42.8149, 0.00172714, NaN, NaN, NaN, 0.0372337, "- N/A -   "
0.99, 43.1688, 0.0017438, NaN, NaN, NaN, 0.0372337, "- N/A -   "
1, 43.40467, 0.00176324, NaN, NaN, NaN, 0.0372337, "- N/A -   "
1.01, 43.75851, 0.001779898, NaN, NaN, NaN, 0.0372337, "- N/A -   "
1.02, 44.1124, 0.00179656, NaN, NaN, NaN, 0.0372337, "- N/A -   "
1.03, 44.4662, 0.00181322, NaN, NaN, NaN, 0.03601294, "- N/A -   "
1.04, 44.82, 0.00183266, NaN, NaN, NaN, 0.03601294, "- N/A -   "
1.05, 45.17388, 0.00184932, NaN, NaN, NaN, 0.03601294, "- N/A -   "
1.06, 45.5277, 0.00186598, NaN, NaN, NaN, 0.0347922, "- N/A -   "
1.07, 45.76362, 0.00188264, NaN, NaN, NaN, 0.0347922, "- N/A -   "
1.08, 46.11746, 0.001902075, NaN, NaN, NaN, 0.0347922, "- N/A -   "
1.09, 46.4713, 0.00191874, NaN, NaN, NaN, 0.0335714, "- N/A -   "
1.1, 46.8251, 0.00193817, NaN, NaN, NaN, 0.0323506, "- N/A -   "
1.11, 47.179, 0.00195761, NaN, NaN, NaN, 0.0323506, "- N/A -   "
1.12, 47.5328, 0.00197705, NaN, NaN, NaN, 0.0299091, "- N/A -   "
1.13, 48.00462, 0.00199648, NaN, NaN, NaN, 0.0286883, "- N/A -   "
1.14, 48.2405, 0.00201592, NaN, NaN, NaN, 0.0286883, "- N/A -   "
1.15, 48.47641, 0.00203258, NaN, NaN, NaN, 0.0274675, "- N/A -   "
1.16, 48.9482, 0.00204924, NaN, NaN, NaN, 0.0286883, "- N/A -   "
1.17, 49.0661, 0.0020659, NaN, NaN, NaN, 0.0274675, "- N/A -   "
1.18, 49.5379, 0.002082564, NaN, NaN, NaN, 0.0286883, "- N/A -   "
1.19, 49.7738, 0.00209645, NaN, NaN, NaN, 0.0286883, "- N/A -   "
1.2, 50.1277, 0.002113108, NaN, NaN, NaN, 0.0286883, "- N/A -   "
1.21, 50.3636, 0.00212977, NaN, NaN, NaN, 0.0286883, "- N/A -   "
1.22, 50.7174, 0.00214643, NaN, NaN, NaN, 0.0299091, "- N/A -   "
1.23, 51.0713, 0.00216031, NaN, NaN, NaN, 0.0299091, "- N/A -   "
1.24, 51.30715, 0.00217697, NaN, NaN, NaN, 0.0299091, "- N/A -   "
1.25, 51.66099, 0.002193634, NaN, NaN, NaN, 0.0299091, "- N/A -   "
1.26, 52.01483, 0.002213071, NaN, NaN, NaN, 0.0299091, "- N/A -   "
1.27, 52.25073, 0.002226955, NaN, NaN, NaN, 0.0299091, "- N/A -   "
1.28, 52.48662, 0.00224362, NaN, NaN, NaN, 0.0299091, "- N/A -   "
1.29, 52.9584, 0.002260276, NaN, NaN, NaN, 0.0299091, "- N/A -   "
1.3, 53.0764, 0.00227416, NaN, NaN, NaN, 0.03112983, "- N/A -   "
1.31, 53.4302, 0.00228804, NaN, NaN, NaN, 0.0323506, "- N/A -   "
1.32, 53.54815, 0.00230193, NaN, NaN, NaN, 0.0335714, "- N/A -   "
1.33, 53.902, 0.002315811, NaN, NaN, NaN, 0.0347922, "- N/A -   "
1.34, 54.2558, 0.00233247, NaN, NaN, NaN, 0.03601294, "- N/A -   "
1.35, 54.4917, 0.00234358, NaN, NaN, NaN, 0.0372337, "- N/A -   "
1.36, 54.7276, 0.002360239, NaN, NaN, NaN, 0.0372337, "- N/A -   "
1.37, 55.0815, 0.00237412, NaN, NaN, NaN, 0.0384545, "- N/A -   "
1.38, 55.3174, 0.00239078, NaN, NaN, NaN, 0.0384545, "- N/A -   "
1.39, 55.6712, 0.002404667, NaN, NaN, NaN, 0.0396753, "- N/A -   "
1.4, 55.7892, 0.00242133, NaN, NaN, NaN, 0.04089605, "- N/A -   "
1.41, 56.02505, 0.00243521, NaN, NaN, NaN, 0.04089605, "- N/A -   "
1.42, 56.37889, 0.002449095, NaN, NaN, NaN, 0.04211683, "- N/A -   "
1.43, 56.73273, 0.00246576, NaN, NaN, NaN, 0.04211683, "- N/A -   "
1.44, 56.9686, 0.00247964, NaN, NaN, NaN, 0.0433376, "- N/A -   "
1.45, 57.32247, 0.0024963, NaN, NaN, NaN, 0.0433376, "- N/A -   "
1.46, 57.5584, 0.00251018, NaN, NaN, NaN, 0.0445584, "- N/A -   "
1.47, 57.91221, 0.00252962, NaN, NaN, NaN, 0.0445584, "- N/A -   "
1.48, 58.26605, 0.00254628, NaN, NaN, NaN, 0.0433376, "- N/A -   "
1.49, 58.6199, 0.002562942, NaN, NaN, NaN, 0.0433376, "- N/A -   "
1.5, 58.9737, 0.0025796, NaN, NaN, NaN, 0.0433376, "- N/A -   "
1.51, 59.3276, 0.002596263, NaN, NaN, NaN, 0.0433376, "- N/A -   "
1.52, 59.68142, 0.00261292, NaN, NaN, NaN, 0.0433376, "- N/A -   "
1.53, 59.9173, 0.00262958, NaN, NaN, NaN, 0.0445584, "- N/A -   "
1.54, 60.15321, 0.00264347, NaN, NaN, NaN, 0.0445584, "- N/A -   "
1.55, 60.5071, 0.00266013, NaN, NaN, NaN, 0.0445584, "- N/A -   "
1.56, 60.7429, 0.00267679, NaN, NaN, NaN, 0.0445584, "- N/A -   "
1.57, 61.09679, 0.00269345, NaN, NaN, NaN, 0.0445584, "- N/A -   "
1.58, 61.45063, 0.00271011, NaN, NaN, NaN, 0.04577916, "- N/A -   "
1.59, 61.8045, 0.00272677, NaN, NaN, NaN, 0.0445584, "- N/A -   "
1.6, 62.1583, 0.002743431, NaN, NaN, NaN, 0.0445584, "- N/A -   "
1.61, 62.5122, 0.00276287, NaN, NaN, NaN, 0.0433376, "- N/A -   "
1.62, 62.7481, 0.00277953, NaN, NaN, NaN, 0.0433376, "- N/A -   "
1.63, 63.2198, 0.002798966, NaN, NaN, NaN, 0.0433376, "- N/A -   "
1.64, 63.45574, 0.00281563, NaN, NaN, NaN, 0.04211683, "- N/A -   "
1.65, 63.92753, 0.00283506, NaN, NaN, NaN, 0.04089605, "- N/A -   "
1.66, 64.28137, 0.00285172, NaN, NaN, NaN, 0.04089605, "- N/A -   "
1.67, 64.6352, 0.00287394, NaN, NaN, NaN, 0.0396753, "- N/A -   "
1.68, 65.107, 0.00289338, NaN, NaN, NaN, 0.0384545, "- N/A -   "
1.69, 65.4608, 0.00291281, NaN, NaN, NaN, 0.0372337, "- N/A -   "
1.7, 65.81469, 0.00293225, NaN, NaN, NaN, 0.0347922, "- N/A -   "
1.71, 66.16853, 0.00295169, NaN, NaN, NaN, 0.0335714, "- N/A -   "
1.72, 66.52237, 0.00297112, NaN, NaN, NaN, 0.0323506, "- N/A -   "
1.73, 66.99416, 0.00299056, NaN, NaN, NaN, 0.03112983, "- N/A -   "
1.74, 67.23006, 0.003009999, NaN, NaN, NaN, 0.0299091, "- N/A -   "
1.75, 67.70185, 0.00302666, NaN, NaN, NaN, 0.0299091, "- N/A -   "
1.76, 67.9377, 0.0030461, NaN, NaN, NaN, 0.0299091, "- N/A -   "
1.77, 68.40953, 0.00306276, NaN, NaN, NaN, 0.0286883, "- N/A -   "
1.78, 68.6454, 0.00307942, NaN, NaN, NaN, 0.0286883, "- N/A -   "
1.79, 68.8813, 0.00309608, NaN, NaN, NaN, 0.0286883, "- N/A -   "
1.8, 69.35311, 0.00311552, NaN, NaN, NaN, 0.0274675, "- N/A -   "
1.81, 69.707, 0.00313218, NaN, NaN, NaN, 0.0286883, "- N/A -   "
1.82, 69.94285, 0.00314884, NaN, NaN, NaN, 0.0286883, "- N/A -   "
1.83, 70.29669, 0.00316272, NaN, NaN, NaN, 0.0286883, "- N/A -   "
1.84, 70.5326, 0.0031766, NaN, NaN, NaN, 0.0299091, "- N/A -   "
1.85, 70.88643, 0.00319326, NaN, NaN, NaN, 0.0299091, "- N/A -   "
1.86, 71.00438, 0.00320715, NaN, NaN, NaN, 0.03112983, "- N/A -   "
1.87, 71.3582, 0.003223809, NaN, NaN, NaN, 0.0323506, "- N/A -   "
1.88, 71.71206, 0.00323769, NaN, NaN, NaN, 0.0323506, "- N/A -   "
1.89, 71.83001, 0.00325158, NaN, NaN, NaN, 0.0335714, "- N/A -   "
1.9, 72.3018, 0.00326546, NaN, NaN, NaN, 0.0347922, "- N/A -   "
1.91, 72.65564, 0.0032849, NaN, NaN, NaN, 0.0335714, "- N/A -   "
1.92, 72.89154, 0.003301558, NaN, NaN, NaN, 0.0347922, "- N/A -   "
1.93, 73.12743, 0.00331544, NaN, NaN, NaN, 0.0347922, "- N/A -   "
1.94, 73.48127, 0.0033321, NaN, NaN, NaN, 0.0347922, "- N/A -   "
1.95, 73.83511, 0.00334599, NaN, NaN, NaN, 0.03601294, "- N/A -   "
1.96, 74.189, 0.00336265, NaN, NaN, NaN, 0.03601294, "- N/A -   "
1.97, 74.5428, 0.003379307, NaN, NaN, NaN, 0.03601294, "- N/A -   "
1.98, 74.7787, 0.00339597, NaN, NaN, NaN, 0.03601294, "- N/A -   "
1.99, 75.13254, 0.003412628, NaN, NaN, NaN, 0.03601294, "- N/A -   "
2, 75.48638, 0.00342929, NaN, NaN, NaN, 0.03601294, "- N/A -   "
2.01, 75.7223, 0.00344595, NaN, NaN, NaN, 0.0372337, "- N/A -   "
2.02, 76.07612, 0.00346261, NaN, NaN, NaN, 0.03601294, "- N/A -   "
2.03, 76.31202, 0.00347927, NaN, NaN, NaN, 0.03601294, "- N/A -   "
2.04, 76.7838, 0.00349593, NaN, NaN, NaN, 0.03601294, "- N/A -   "
2.05, 77.13765, 0.00351259, NaN, NaN, NaN, 0.0372337, "- N/A -   "
2.06, 77.49149, 0.00352647, NaN, NaN, NaN, 0.0372337, "- N/A -   "
2.07, 77.72738, 0.00354314, NaN, NaN, NaN, 0.0372337, "- N/A -   "
2.08, 78.08122, 0.003559796, NaN, NaN, NaN, 0.0372337, "- N/A -   "
2.09, 78.31712, 0.00357368, NaN, NaN, NaN, 0.0384545, "- N/A -   "
2.1, 78.55301, 0.00358756, NaN, NaN, NaN, 0.0396753, "- N/A -   "
2.11, 78.90686, 0.003604224, NaN, NaN, NaN, 0.0396753, "- N/A -   "
2.12, 79.14275, 0.00362088, NaN, NaN, NaN, 0.0396753, "- N/A -   "
2.13, 79.4966, 0.00363477, NaN, NaN, NaN, 0.04211683, "- N/A -   "
2.14, 79.73249, 0.00364865, NaN, NaN, NaN, 0.04211683, "- N/A -   "
2.15, 80.0863, 0.00366531, NaN, NaN, NaN, 0.0433376, "- N/A -   "
2.16, 80.32223, 0.0036792, NaN, NaN, NaN, 0.0433376, "- N/A -   "
2.17, 80.55813, 0.00369586, NaN, NaN, NaN, 0.0433376, "- N/A -   "
2.18, 80.912, 0.00371252, NaN, NaN, NaN, 0.0445584, "- N/A -   "
2.19, 81.26581, 0.003726401, NaN, NaN, NaN, 0.0445584, "- N/A -   "
2.2, 81.61965, 0.00374306, NaN, NaN, NaN, 0.0445584, "- N/A -   "
2.21, 81.97349, 0.003759722, NaN, NaN, NaN, 0.0445584, "- N/A -   "
2.22, 82.32734, 0.00377638, NaN, NaN, NaN, 0.0445584, "- N/A -   "
2.23, 82.68118, 0.003793043, NaN, NaN, NaN, 0.0445584, "- N/A -   "
2.24, 82.91707, 0.00381248, NaN, NaN, NaN, 0.0433376, "- N/A -   "
2.25, 83.38886, 0.00383192, NaN, NaN, NaN, 0.0433376, "- N/A -   "
2.26, 83.86065, 0.00385135, NaN, NaN, NaN, 0.04211683, "- N/A -   "
2.27, 84.09654, 0.003870792, NaN, NaN, NaN, 0.04089605, "- N/A -   "
2.28, 84.56834, 0.00389023, NaN, NaN, NaN, 0.0384545, "- N/A -   "
2.29, 84.92217, 0.00391244, NaN, NaN, NaN, 0.03601294, "- N/A -   "
2.3, 85.39397, 0.00393188, NaN, NaN, NaN, 0.0347922, "- N/A -   "
2.31, 85.86576, 0.003951318, NaN, NaN, NaN, 0.0335714, "- N/A -   "
2.32, 86.2196, 0.00397076, NaN, NaN, NaN, 0.0323506, "- N/A -   "
2.33, 86.57345, 0.00399019, NaN, NaN, NaN, 0.0323506, "- N/A -   "
2.34, 86.80934, 0.004006853, NaN, NaN, NaN, 0.03112983, "- N/A -   "
2.35, 87.16318, 0.00402351, NaN, NaN, NaN, 0.03112983, "- N/A -   "
2.36, 87.63497, 0.004040174, NaN, NaN, NaN, 0.03112983, "- N/A -   "
2.37, 87.75292, 0.00405683, NaN, NaN, NaN, 0.03112983, "- N/A -   "
2.38, 88.22471, 0.004073495, NaN, NaN, NaN, 0.03112983, "- N/A -   "
2.39, 88.57855, 0.00409016, NaN, NaN, NaN, 0.03112983, "- N/A -   "
2.4, 88.8144, 0.004106816, NaN, NaN, NaN, 0.03112983, "- N/A -   "
2.41, 89.16828, 0.004123477, NaN, NaN, NaN, 0.03112983, "- N/A -   "
2.42, 89.40418, 0.004140137, NaN, NaN, NaN, 0.0323506, "- N/A -   "
2.43, 89.758, 0.004154021, NaN, NaN, NaN, 0.0323506, "- N/A -   "
2.44, 90.11186, 0.00417068, NaN, NaN, NaN, 0.0323506, "- N/A -   "
2.45, 90.4657, 0.004187342, NaN, NaN, NaN, 0.0323506, "- N/A -   "
2.46, 90.70161, 0.004204002, NaN, NaN, NaN, 0.0323506, "- N/A -   "
2.47, 91.05545, 0.00422066, NaN, NaN, NaN, 0.0323506, "- N/A -   "
2.48, 91.40929, 0.004234547, NaN, NaN, NaN, 0.0335714, "- N/A -   "
2.49, 91.52724, 0.004251207, NaN, NaN, NaN, 0.0347922, "- N/A -   "
2.5, 91.99903, 0.00426787, NaN, NaN, NaN, 0.0347922, "- N/A -   "
2.51, 92.23492, 0.00428175, NaN, NaN, NaN, 0.0347922, "- N/A -   "
2.52, 92.58876, 0.00430119, NaN, NaN, NaN, 0.0347922, "- N/A -   "
2.53, 92.94261, 0.004315072, NaN, NaN, NaN, 0.0347922, "- N/A -   "
2.54, 93.2965, 0.00433173, NaN, NaN, NaN, 0.0347922, "- N/A -   "
2.55, 93.53234, 0.00434839, NaN, NaN, NaN, 0.0347922, "- N/A -   "
2.56, 93.8862, 0.004365054, NaN, NaN, NaN, 0.0347922, "- N/A -   "
2.57, 94.24, 0.00438171, NaN, NaN, NaN, 0.0347922, "- N/A -   "
2.58, 94.59387, 0.004398375, NaN, NaN, NaN, 0.0347922, "- N/A -   "
2.59, 94.8298, 0.00441781, NaN, NaN, NaN, 0.0347922, "- N/A -   "
2.6, 95.30156, 0.004434473, NaN, NaN, NaN, 0.0335714, "- N/A -   "
2.61, 95.6554, 0.00445113, NaN, NaN, NaN, 0.0335714, "- N/A -   "
2.62, 95.8913, 0.00447057, NaN, NaN, NaN, 0.0335714, "- N/A -   "
2.63, 96.36309, 0.004487231, NaN, NaN, NaN, 0.0323506, "- N/A -   "
2.64, 96.71693, 0.00450389, NaN, NaN, NaN, 0.0323506, "- N/A -   "
2.65, 97.07077, 0.004520552, NaN, NaN, NaN, 0.0335714, "- N/A -   "
2.66, 97.30666, 0.004534436, NaN, NaN, NaN, 0.0335714, "- N/A -   "
2.67, 97.54256, 0.00454832, NaN, NaN, NaN, 0.0347922, "- N/A -   "
2.68, 97.8964, 0.00456498, NaN, NaN, NaN, 0.03601294, "- N/A -   "
2.69, 98.13229, 0.00457886, NaN, NaN, NaN, 0.03601294, "- N/A -   "
2.7, 98.4861, 0.004595524, NaN, NaN, NaN, 0.03601294, "- N/A -   "
2.71, 98.72203, 0.004609408, NaN, NaN, NaN, 0.0372337, "- N/A -   "
2.72, 99.1938, 0.00462607, NaN, NaN, NaN, 0.0372337, "- N/A -   "
2.73, 99.54767, 0.004642729, NaN, NaN, NaN, 0.0372337, "- N/A -   "
2.74, 99.7836, 0.00465939, NaN, NaN, NaN, 0.0384545, "- N/A -   "
2.75, 100.019, 0.00467605, NaN, NaN, NaN, 0.0384545, "- N/A -   "
2.76, 100.3733, 0.00468993, NaN, NaN, NaN, 0.0384545, "- N/A -   "
2.77, 100.6092, 0.00470382, NaN, NaN, NaN, 0.0396753, "- N/A -   "
2.78, 100.845, 0.004720478, NaN, NaN, NaN, 0.04089605, "- N/A -   "
2.79, 101.199, 0.00473159, NaN, NaN, NaN, 0.04211683, "- N/A -   "
2.8, 101.553, 0.00475102, NaN, NaN, NaN, 0.04089605, "- N/A -   "
2.81, 101.907, 0.004767683, NaN, NaN, NaN, 0.04089605, "- N/A -   "
2.82, 102.26, 0.00478434, NaN, NaN, NaN, 0.04089605, "- N/A -   "
2.83, 102.496, 0.00480378, NaN, NaN, NaN, 0.0396753, "- N/A -   "
2.84, 102.85, 0.00482044, NaN, NaN, NaN, 0.0396753, "- N/A -   "
2.85, 103.322, 0.004839879, NaN, NaN, NaN, 0.0396753, "- N/A -   "
2.86, 103.558, 0.004856539, NaN, NaN, NaN, 0.0384545, "- N/A -   "
2.87, 103.912, 0.0048732, NaN, NaN, NaN, 0.0396753, "- N/A -   "
2.88, 104.384, 0.00488986, NaN, NaN, NaN, 0.0396753, "- N/A -   "
2.89, 104.737, 0.00490652, NaN, NaN, NaN, 0.0396753, "- N/A -   "
2.9, 104.973, 0.004923181, NaN, NaN, NaN, 0.0384545, "- N/A -   "
2.91, 105.209, 0.004939841, NaN, NaN, NaN, 0.0384545, "- N/A -   "
2.92, 105.563, 0.004959279, NaN, NaN, NaN, 0.0384545, "- N/A -   "
2.93, 106.035, 0.004975939, NaN, NaN, NaN, 0.0384545, "- N/A -   "
2.94, 106.389, 0.0049926, NaN, NaN, NaN, 0.0384545, "- N/A -   "
2.95, 106.625, 0.005009261, NaN, NaN, NaN, 0.0372337, "- N/A -   "
2.96, 106.978, 0.005025921, NaN, NaN, NaN, 0.0372337, "- N/A -   "
2.97, 107.45, 0.00504536, NaN, NaN, NaN, 0.0372337, "- N/A -   "
2.98, 107.804, 0.005062019, NaN, NaN, NaN, 0.0372337, "- N/A -   "
2.99, 108.04, 0.00507868, NaN, NaN, NaN, 0.0372337, "- N/A -   "
3, 108.394, 0.005092563, NaN, NaN, NaN, 0.0372337, "- N/A -   "
3.01, 108.748, 0.00510922, NaN, NaN, NaN, 0.0372337, "- N/A -   "
3.02, 108.983, 0.00512588, NaN, NaN, NaN, 0.0372337, "- N/A -   "
3.03, 109.3373, 0.005142545, NaN, NaN, NaN, 0.0372337, "- N/A -   "
3.04, 109.691, 0.00515921, NaN, NaN, NaN, 0.0372337, "- N/A -   "
3.05, 110.045, 0.00517587, NaN, NaN, NaN, 0.0372337, "- N/A -   "
3.06, 110.517, 0.005195303, NaN, NaN, NaN, 0.03601294, "- N/A -   "
3.07, 110.753, 0.00521196, NaN, NaN, NaN, 0.03601294, "- N/A -   "
3.08, 111.107, 0.00522862, NaN, NaN, NaN, 0.03601294, "- N/A -   "
3.09, 111.342, 0.00524528, NaN, NaN, NaN, 0.03601294, "- N/A -   "
3.1, 111.8142, 0.005259168, NaN, NaN, NaN, 0.0372337, "- N/A -   "
3.11, 112.0501, 0.005275829, NaN, NaN, NaN, 0.0372337, "- N/A -   "
3.12, 112.404, 0.00529527, NaN, NaN, NaN, 0.0372337, "- N/A -   "
3.13, 112.758, 0.005314703, NaN, NaN, NaN, 0.03601294, "- N/A -   "
3.14, 113.112, 0.00533136, NaN, NaN, NaN, 0.0347922, "- N/A -   "
3.15, 113.465, 0.00534802, NaN, NaN, NaN, 0.0347922, "- N/A -   "
3.16, 113.819, 0.00536746, NaN, NaN, NaN, 0.0335714, "- N/A -   "
3.17, 114.173, 0.00538412, NaN, NaN, NaN, 0.0347922, "- N/A -   "
3.18, 114.527, 0.005400782, NaN, NaN, NaN, 0.0335714, "- N/A -   "
3.19, 114.881, 0.00541744, NaN, NaN, NaN, 0.0335714, "- N/A -   "
3.2, 115.235, 0.00543688, NaN, NaN, NaN, 0.0323506, "- N/A -   "
3.21, 115.589, 0.005453541, NaN, NaN, NaN, 0.0323506, "- N/A -   "
3.22, 115.824, 0.0054702, NaN, NaN, NaN, 0.0335714, "- N/A -   "
3.23, 116.178, 0.005484085, NaN, NaN, NaN, 0.0335714, "- N/A -   "
3.24, 116.414, 0.00550075, NaN, NaN, NaN, 0.0347922, "- N/A -   "
3.25, 116.65, 0.005514629, NaN, NaN, NaN, 0.0347922, "- N/A -   "
3.26, 117.004, 0.00553129, NaN, NaN, NaN, 0.0347922, "- N/A -   "
3.27, 117.358, 0.00554795, NaN, NaN, NaN, 0.0347922, "- N/A -   "
3.28, 117.712, 0.00556461, NaN, NaN, NaN, 0.0347922, "- N/A -   "
3.29, 117.947, 0.00558127, NaN, NaN, NaN, 0.0347922, "- N/A -   "
3.3, 118.301, 0.005597932, NaN, NaN, NaN, 0.0347922, "- N/A -   "
3.31, 118.655, 0.00561737, NaN, NaN, NaN, 0.0347922, "- N/A -   "
3.32, 119.009, 0.00563403, NaN, NaN, NaN, 0.0347922, "- N/A -   "
3.33, 119.363, 0.00565069, NaN, NaN, NaN, 0.0347922, "- N/A -   "
3.34, 119.717, 0.00566735, NaN, NaN, NaN, 0.0335714, "- N/A -   "
3.35, 120.071, 0.00568401, NaN, NaN, NaN, 0.0335714, "- N/A -   "
3.36, 120.306, 0.00570067, NaN, NaN, NaN, 0.0335714, "- N/A -   "
3.37, 120.66, 0.005717332, NaN, NaN, NaN, 0.0335714, "- N/A -   "
3.38, 121.014, 0.005733992, NaN, NaN, NaN, 0.0335714, "- N/A -   "
3.39, 121.25, 0.00575065, NaN, NaN, NaN, 0.0335714, "- N/A -   "
3.4, 121.722, 0.00577009, NaN, NaN, NaN, 0.0335714, "- N/A -   "
3.41, 122.076, 0.00578675, NaN, NaN, NaN, 0.0335714, "- N/A -   "
3.42, 122.429, 0.00580341, NaN, NaN, NaN, 0.0335714, "- N/A -   "
3.43, 122.783, 0.0058173, NaN, NaN, NaN, 0.0335714, "- N/A -   "
3.44, 123.137, 0.00583396, NaN, NaN, NaN, 0.0335714, "- N/A -   "
3.45, 123.373, 0.00584784, NaN, NaN, NaN, 0.0347922, "- N/A -   "
3.46, 123.609, 0.00586172, NaN, NaN, NaN, 0.03601294, "- N/A -   "
3.47, 123.963, 0.00587838, NaN, NaN, NaN, 0.03601294, "- N/A -   "
3.48, 124.199, 0.00589504, NaN, NaN, NaN, 0.03601294, "- N/A -   "
3.49, 124.435, 0.005908928, NaN, NaN, NaN, 0.0372337, "- N/A -   "
3.5, 124.788, 0.00592559, NaN, NaN, NaN, 0.0372337, "- N/A -   "
3.51, 125.024, 0.00594225, NaN, NaN, NaN, 0.0372337, "- N/A -   "
3.52, 125.378, 0.00595891, NaN, NaN, NaN, 0.0384545, "- N/A -   "
3.53, 125.732, 0.005972794, NaN, NaN, NaN, 0.0384545, "- N/A -   "
3.54, 126.086, 0.00598945, NaN, NaN, NaN, 0.0384545, "- N/A -   "
3.55, 126.322, 0.006003338, NaN, NaN, NaN, 0.0396753, "- N/A -   "
3.56, 126.676, 0.006019998, NaN, NaN, NaN, 0.0396753, "- N/A -   "
3.57, 126.911, 0.00603666, NaN, NaN, NaN, 0.0396753, "- N/A -   "
3.58, 127.265, 0.00605332, NaN, NaN, NaN, 0.04089605, "- N/A -   "
3.59, 127.619, 0.0060672, NaN, NaN, NaN, 0.04089605, "- N/A -   "
3.6, 127.855, 0.006083864, NaN, NaN, NaN, 0.04089605, "- N/A -   "
3.61, 128.209, 0.00609775, NaN, NaN, NaN, 0.04211683, "- N/A -   "
3.62, 128.4448, 0.006114408, NaN, NaN, NaN, 0.0445584, "- N/A -   "
3.63, 128.799, 0.00612829, NaN, NaN, NaN, 0.0445584, "- N/A -   "
3.64, 129.152, 0.00614773, NaN, NaN, NaN, 0.0433376, "- N/A -   "
3.65, 129.506, 0.00616439, NaN, NaN, NaN, 0.0445584, "- N/A -   "
3.66, 129.86, 0.00618105, NaN, NaN, NaN, 0.0433376, "- N/A -   "
3.67, 130.214, 0.00620049, NaN, NaN, NaN, 0.04211683, "- N/A -   "
3.68, 130.568, 0.006219924, NaN, NaN, NaN, 0.04211683, "- N/A -   "
3.69, 130.922, 0.00623936, NaN, NaN, NaN, 0.04089605, "- N/A -   "
3.7, 131.393, 0.0062588, NaN, NaN, NaN, 0.0384545, "- N/A -   "
3.71, 131.747, 0.006278236, NaN, NaN, NaN, 0.0372337, "- N/A -   "
3.72, 132.101, 0.00629767, NaN, NaN, NaN, 0.03601294, "- N/A -   "
3.73, 132.573, 0.00631989, NaN, NaN, NaN, 0.0347922, "- N/A -   "
3.74, 132.9268, 0.006336548, NaN, NaN, NaN, 0.0335714, "- N/A -   "
3.75, 133.281, 0.00635598, NaN, NaN, NaN, 0.0335714, "- N/A -   "
3.76, 133.517, 0.006372646, NaN, NaN, NaN, 0.0323506, "- N/A -   "
3.77, 133.87, 0.006389306, NaN, NaN, NaN, 0.0323506, "- N/A -   "
3.78, 134.224, 0.00640597, NaN, NaN, NaN, 0.0323506, "- N/A -   "
3.79, 134.46, 0.00641985, NaN, NaN, NaN, 0.0335714, "- N/A -   "
3.8, 134.696, 0.00643651, NaN, NaN, NaN, 0.0335714, "- N/A -   "
3.81, 134.932, 0.006450394, NaN, NaN, NaN, 0.0347922, "- N/A -   "
3.82, 135.286, 0.00646705, NaN, NaN, NaN, 0.03601294, "- N/A -   "
3.83, 135.64, 0.006483716, NaN, NaN, NaN, 0.0347922, "- N/A -   "
3.84, 135.875, 0.0064976, NaN, NaN, NaN, 0.03601294, "- N/A -   "
3.85, 136.229, 0.00651426, NaN, NaN, NaN, 0.03601294, "- N/A -   "
3.86, 136.583, 0.006533697, NaN, NaN, NaN, 0.03601294, "- N/A -   "
3.87, 136.937, 0.006550358, NaN, NaN, NaN, 0.0347922, "- N/A -   "
3.88, 137.173, 0.006567018, NaN, NaN, NaN, 0.0347922, "- N/A -   "
3.89, 137.527, 0.0065809, NaN, NaN, NaN, 0.03601294, "- N/A -   "
3.9, 137.763, 0.006597562, NaN, NaN, NaN, 0.03601294, "- N/A -   "
3.91, 138.116, 0.00661422, NaN, NaN, NaN, 0.03601294, "- N/A -   "
3.92, 138.47, 0.00663366, NaN, NaN, NaN, 0.0347922, "- N/A -   "
3.93, 138.824, 0.006653098, NaN, NaN, NaN, 0.0335714, "- N/A -   "
3.94, 139.06, 0.00666976, NaN, NaN, NaN, 0.0335714, "- N/A -   "
3.95, 139.532, 0.006689196, NaN, NaN, NaN, 0.0323506, "- N/A -   "
3.96, 139.8857, 0.006708632, NaN, NaN, NaN, 0.0323506, "- N/A -   "
3.97, 140.1216, 0.00672529, NaN, NaN, NaN, 0.03112983, "- N/A -   "
3.98, 140.475, 0.00674473, NaN, NaN, NaN, 0.0299091, "- N/A -   "
3.99, 140.829, 0.006764168, NaN, NaN, NaN, 0.0299091, "- N/A -   "
4, 141.301, 0.00678083, NaN, NaN, NaN, 0.0286883, "- N/A -   "
4.01, 141.537, 0.00679749, NaN, NaN, NaN, 0.0299091, "- N/A -   "
4.02, 141.891, 0.00681137, NaN, NaN, NaN, 0.0299091, "- N/A -   "
4.03, 142.1267, 0.006825256, NaN, NaN, NaN, 0.03112983, "- N/A -   "
4.04, 142.3626, 0.00684192, NaN, NaN, NaN, 0.03112983, "- N/A -   "
4.05, 142.5985, 0.0068558, NaN, NaN, NaN, 0.0323506, "- N/A -   "
4.06, 142.952, 0.00687246, NaN, NaN, NaN, 0.0323506, "- N/A -   "
4.07, 143.188, 0.00688634, NaN, NaN, NaN, 0.0335714, "- N/A -   "
4.08, 143.542, 0.006903005, NaN, NaN, NaN, 0.0335714, "- N/A -   "
4.09, 143.778, 0.00691689, NaN, NaN, NaN, 0.0347922, "- N/A -   "
4.1, 144.132, 0.00693355, NaN, NaN, NaN, 0.03601294, "- N/A -   "
4.11, 144.25, 0.00694743, NaN, NaN, NaN, 0.03601294, "- N/A -   "
4.12, 144.604, 0.006964094, NaN, NaN, NaN, 0.03601294, "- N/A -   "
4.13, 144.8395, 0.00698075, NaN, NaN, NaN, 0.0372337, "- N/A -   "
4.14, 145.193, 0.006994638, NaN, NaN, NaN, 0.0384545, "- N/A -   "
4.15, 145.429, 0.00700852, NaN, NaN, NaN, 0.0384545, "- N/A -   "
4.16, 145.783, 0.007022406, NaN, NaN, NaN, 0.04089605, "- N/A -   "
4.17, 145.901, 0.00703629, NaN, NaN, NaN, 0.04089605, "- N/A -   "
4.18, 146.255, 0.00705295, NaN, NaN, NaN, 0.04089605, "- N/A -   "
4.19, 146.3728, 0.00706683, NaN, NaN, NaN, 0.04211683, "- N/A -   "
4.2, 146.8446, 0.007083494, NaN, NaN, NaN, 0.04211683, "- N/A -   "
4.21, 147.0805, 0.00709738, NaN, NaN, NaN, 0.0433376, "- N/A -   "
4.22, 147.434, 0.00711404, NaN, NaN, NaN, 0.0445584, "- N/A -   "
4.23, 147.552, 0.0071307, NaN, NaN, NaN, 0.0445584, "- N/A -   "
4.24, 147.906, 0.00714458, NaN, NaN, NaN, 0.0445584, "- N/A -   "
4.25, 148.26, 0.007161243, NaN, NaN, NaN, 0.04577916, "- N/A -   "
4.26, 148.496, 0.00717513, NaN, NaN, NaN, 0.04577916, "- N/A -   "
4.27, 148.8497, 0.007191787, NaN, NaN, NaN, 0.04699994, "- N/A -   "
4.28, 149.0856, 0.00720845, NaN, NaN, NaN, 0.04577916, "- N/A -   "
4.29, 149.439, 0.00722511, NaN, NaN, NaN, 0.04577916, "- N/A -   "
4.3, 149.911, 0.007244546, NaN, NaN, NaN, 0.0445584, "- N/A -   "
4.31, 150.265, 0.00726398, NaN, NaN, NaN, 0.0433376, "- N/A -   "
4.32, 150.501, 0.007280643, NaN, NaN, NaN, 0.0433376, "- N/A -   "
4.33, 150.855, 0.00730008, NaN, NaN, NaN, 0.0433376, "- N/A -   "
4.34, 151.209, 0.00731674, NaN, NaN, NaN, 0.04211683, "- N/A -   "
4.35, 151.5625, 0.007333402, NaN, NaN, NaN, 0.04211683, "- N/A -   "
4.36, 151.916, 0.00735284, NaN, NaN, NaN, 0.04089605, "- N/A -   "
4.37, 152.27, 0.007369499, NaN, NaN, NaN, 0.04089605, "- N/A -   "
4.38, 152.624, 0.007388937, NaN, NaN, NaN, 0.0396753, "- N/A -   "
4.39, 152.86, 0.007405597, NaN, NaN, NaN, 0.0396753, "- N/A -   "
4.4, 153.214, 0.00742503, NaN, NaN, NaN, 0.0384545, "- N/A -   "
4.41, 153.686, 0.00744447, NaN, NaN, NaN, 0.0372337, "- N/A -   "
4.42, 154.0394, 0.00746391, NaN, NaN, NaN, 0.0372337, "- N/A -   "
4.43, 154.2753, 0.007480569, NaN, NaN, NaN, 0.03601294, "- N/A -   "
4.44, 154.511, 0.00749723, NaN, NaN, NaN, 0.03601294, "- N/A -   "
4.45, 154.865, 0.00751389, NaN, NaN, NaN, 0.03601294, "- N/A -   "
4.46, 155.101, 0.007530551, NaN, NaN, NaN, 0.03601294, "- N/A -   "
4.47, 155.455, 0.007547211, NaN, NaN, NaN, 0.03601294, "- N/A -   "
4.48, 155.809, 0.00756387, NaN, NaN, NaN, 0.03601294, "- N/A -   "
4.49, 156.0445, 0.00758053, NaN, NaN, NaN, 0.03601294, "- N/A -   "
4.5, 156.5163, 0.00759997, NaN, NaN, NaN, 0.03601294, "- N/A -   "
4.51, 156.752, 0.00761663, NaN, NaN, NaN, 0.0347922, "- N/A -   "
4.52, 157.106, 0.007636067, NaN, NaN, NaN, 0.0335714, "- N/A -   "
4.53, 157.578, 0.007655505, NaN, NaN, NaN, 0.0323506, "- N/A -   "
4.54, 157.814, 0.00767494, NaN, NaN, NaN, 0.03112983, "- N/A -   "
4.55, 158.2855, 0.007694379, NaN, NaN, NaN, 0.0299091, "- N/A -   "
4.56, 158.521, 0.00771382, NaN, NaN, NaN, 0.0299091, "- N/A -   "
4.57, 158.875, 0.0077277, NaN, NaN, NaN, 0.0299091, "- N/A -   "
4.58, 159.229, 0.00774714, NaN, NaN, NaN, 0.0299091, "- N/A -   "
4.59, 159.465, 0.007761021, NaN, NaN, NaN, 0.0299091, "- N/A -   "
4.6, 159.819, 0.00777768, NaN, NaN, NaN, 0.0299091, "- N/A -   "
4.61, 160.055, 0.007794343, NaN, NaN, NaN, 0.03112983, "- N/A -   "
4.62, 160.2906, 0.00780823, NaN, NaN, NaN, 0.03112983, "- N/A -   "
4.63, 160.644, 0.007824887, NaN, NaN, NaN, 0.03112983, "- N/A -   "
4.64, 160.88, 0.007841547, NaN, NaN, NaN, 0.03112983, "- N/A -   "
4.65, 161.234, 0.007858207, NaN, NaN, NaN, 0.03112983, "- N/A -   "
4.66, 161.588, 0.007874869, NaN, NaN, NaN, 0.03112983, "- N/A -   "
4.67, 161.824, 0.007891529, NaN, NaN, NaN, 0.03112983, "- N/A -   "
4.68, 162.178, 0.007908189, NaN, NaN, NaN, 0.0323506, "- N/A -   "
4.69, 162.414, 0.007924849, NaN, NaN, NaN, 0.0323506, "- N/A -   "
4.7, 162.65, 0.007938733, NaN, NaN, NaN, 0.0323506, "- N/A -   "
4.71, 163.0034, 0.00795262, NaN, NaN, NaN, 0.0335714, "- N/A -   "
4.72, 163.2393, 0.007966501, NaN, NaN, NaN, 0.0347922, "- N/A -   "
4.73, 163.593, 0.007980385, NaN, NaN, NaN, 0.03601294, "- N/A -   "
4.74, 163.947, 0.007997045, NaN, NaN, NaN, 0.03601294, "- N/A -   "
4.75, 164.065, 0.008013706, NaN, NaN, NaN, 0.0372337, "- N/A -   "
4.76, 164.419, 0.008027589, NaN, NaN, NaN, 0.0372337, "- N/A -   "
4.77, 164.655, 0.008041473, NaN, NaN, NaN, 0.0384545, "- N/A -   "
4.78, 164.891, 0.008055357, NaN, NaN, NaN, 0.0396753, "- N/A -   "
4.79, 165.009, 0.008069241, NaN, NaN, NaN, 0.04089605, "- N/A -   "
4.8, 165.362, 0.008083125, NaN, NaN, NaN, 0.04211683, "- N/A -   "
4.81, 165.4803, 0.008099785, NaN, NaN, NaN, 0.0433376, "- N/A -   "
4.82, 165.7162, 0.008113669, NaN, NaN, NaN, 0.0433376, "- N/A -   "
4.83, 166.188, 0.008127553, NaN, NaN, NaN, 0.0445584, "- N/A -   "
4.84, 166.542, 0.008146989, NaN, NaN, NaN, 0.0433376, "- N/A -   "
4.85, 166.778, 0.008160873, NaN, NaN, NaN, 0.0445584, "- N/A -   "
4.86, 167.014, 0.008177535, NaN, NaN, NaN, 0.04577916, "- N/A -   "
4.87, 167.25, 0.008191418, NaN, NaN, NaN, 0.04577916, "- N/A -   "
4.88, 167.7213, 0.008208079, NaN, NaN, NaN, 0.04577916, "- N/A -   "
4.89, 167.9572, 0.008227515, NaN, NaN, NaN, 0.0445584, "- N/A -   "
4.9, 168.429, 0.008244176, NaN, NaN, NaN, 0.04577916, "- N/A -   "
4.91, 168.665, 0.008260837, NaN, NaN, NaN, 0.0445584, "- N/A -   "
4.92, 169.019, 0.00828027, NaN, NaN, NaN, 0.0445584, "- N/A -   "
4.93, 169.491, 0.008294158, NaN, NaN, NaN, 0.0445584, "- N/A -   "
4.94, 169.608, 0.008313595, NaN, NaN, NaN, 0.0445584, "- N/A -   "
4.95, 169.962, 0.008330256, NaN, NaN, NaN, 0.0433376, "- N/A -   "
4.96, 170.316, 0.008346915, NaN, NaN, NaN, 0.0433376, "- N/A -   "
4.97, 170.67, 0.008363577, NaN, NaN, NaN, 0.0433376, "- N/A -   "
4.98, 170.906, 0.008380237, NaN, NaN, NaN, 0.0433376, "- N/A -   "
4.99, 171.26, 0.008396897, NaN, NaN, NaN, 0.0433376, "- N/A -   "
5, 171.614, 0.008416335, NaN, NaN, NaN, 0.0433376, "- N/A -   "
5.01, 171.9674, 0.008433, NaN, NaN, NaN, 0.04211683, "- N/A -   "
5.02, 172.321, 0.008449656, NaN, NaN, NaN, 0.04211683, "- N/A -   "
5.03, 172.6751, 0.008469094, NaN, NaN, NaN, 0.04089605, "- N/A -   "
5.04, 173.029, 0.008485753, NaN, NaN, NaN, 0.04089605, "- N/A -   "
5.05, 173.383, 0.008505192, NaN, NaN, NaN, 0.0396753, "- N/A -   "
5.06, 173.737, 0.008524627, NaN, NaN, NaN, 0.0384545, "- N/A -   "
5.07, 174.09, 0.008544065, NaN, NaN, NaN, 0.0372337, "- N/A -   "
5.08, 174.562, 0.008563503, NaN, NaN, NaN, 0.03601294, "- N/A -   "
5.09, 174.9161, 0.008582939, NaN, NaN, NaN, 0.03601294, "- N/A -   "
5.1, 175.388, 0.008605153, NaN, NaN, NaN, 0.0335714, "- N/A -   "
5.11, 175.742, 0.008624592, NaN, NaN, NaN, 0.03112983, "- N/A -   "
5.12, 175.978, 0.00864403, NaN, NaN, NaN, 0.0299091, "- N/A -   "
5.13, 176.567, 0.008666243, NaN, NaN, NaN, 0.0286883, "- N/A -   "
5.14, 176.803, 0.008682903, NaN, NaN, NaN, 0.0274675, "- N/A -   "
5.15, 177.1571, 0.008699563, NaN, NaN, NaN, 0.0274675, "- N/A -   "
5.16, 177.393, 0.008716224, NaN, NaN, NaN, 0.0274675, "- N/A -   "
5.17, 177.629, 0.008732885, NaN, NaN, NaN, 0.0286883, "- N/A -   "
5.18, 177.983, 0.008746768, NaN, NaN, NaN, 0.0286883, "- N/A -   "
5.19, 178.337, 0.008760652, NaN, NaN, NaN, 0.0299091, "- N/A -   "
5.2, 178.455, 0.008774536, NaN, NaN, NaN, 0.03112983, "- N/A -   "
5.21, 178.808, 0.008791196, NaN, NaN, NaN, 0.03112983, "- N/A -   "
5.22, 179.162, 0.008805079, NaN, NaN, NaN, 0.0323506, "- N/A -   "
5.23, 179.3981, 0.008824518, NaN, NaN, NaN, 0.0323506, "- N/A -   "
5.24, 179.752, 0.008841177, NaN, NaN, NaN, 0.03112983, "- N/A -   "
5.25, 180.106, 0.008857838, NaN, NaN, NaN, 0.03112983, "- N/A -   "
5.26, 180.342, 0.008874499, NaN, NaN, NaN, 0.03112983, "- N/A -   "
5.27, 180.696, 0.008888383, NaN, NaN, NaN, 0.0323506, "- N/A -   "
5.28, 180.931, 0.008905044, NaN, NaN, NaN, 0.0323506, "- N/A -   "
5.29, 181.285, 0.008921703, NaN, NaN, NaN, 0.0323506, "- N/A -   "
5.3, 181.639, 0.008938364, NaN, NaN, NaN, 0.0323506, "- N/A -   "
5.31, 181.993, 0.008955025, NaN, NaN, NaN, 0.0323506, "- N/A -   "
5.32, 182.3468, 0.008971686, NaN, NaN, NaN, 0.0323506, "- N/A -   "
5.33, 182.701, 0.008988346, NaN, NaN, NaN, 0.0323506, "- N/A -   "
5.34, 182.937, 0.009005006, NaN, NaN, NaN, 0.0335714, "- N/A -   "
5.35, 183.172, 0.00901889, NaN, NaN, NaN, 0.0335714, "- N/A -   "
5.36, 183.526, 0.00903555, NaN, NaN, NaN, 0.0347922, "- N/A -   "
5.37, 183.762, 0.009049434, NaN, NaN, NaN, 0.0347922, "- N/A -   "
5.38, 184.116, 0.009066096, NaN, NaN, NaN, 0.0347922, "- N/A -   "
5.39, 184.47, 0.009082756, NaN, NaN, NaN, 0.0347922, "- N/A -   "
5.4, 184.706, 0.00909942, NaN, NaN, NaN, 0.03601294, "- N/A -   "
5.41, 184.942, 0.0091133, NaN, NaN, NaN, 0.03601294, "- N/A -   "
5.42, 185.295, 0.00912996, NaN, NaN, NaN, 0.0372337, "- N/A -   "
5.43, 185.531, 0.009143844, NaN, NaN, NaN, 0.0372337, "- N/A -   "
5.44, 185.885, 0.009160504, NaN, NaN, NaN, 0.0372337, "- N/A -   "
5.45, 186.121, 0.009174388, NaN, NaN, NaN, 0.0384545, "- N/A -   "
5.46, 186.593, 0.009193826, NaN, NaN, NaN, 0.0384545, "- N/A -   "
5.47, 186.829, 0.009210486, NaN, NaN, NaN, 0.0384545, "- N/A -   "
5.48, 187.183, 0.00922437, NaN, NaN, NaN, 0.0384545, "- N/A -   "
5.49, 187.419, 0.00924103, NaN, NaN, NaN, 0.0384545, "- N/A -   "
5.5, 187.772, 0.00925769, NaN, NaN, NaN, 0.0396753, "- N/A -   "
5.51, 188.008, 0.009271574, NaN, NaN, NaN, 0.0396753, "- N/A -   "
5.52, 188.3621, 0.009285458, NaN, NaN, NaN, 0.04089605, "- N/A -   "
5.53, 188.598, 0.009302118, NaN, NaN, NaN, 0.04211683, "- N/A -   "
5.54, 188.834, 0.009316002, NaN, NaN, NaN, 0.04211683, "- N/A -   "
5.55, 189.188, 0.009332663, NaN, NaN, NaN, 0.04211683, "- N/A -   "
5.56, 189.424, 0.009346547, NaN, NaN, NaN, 0.0433376, "- N/A -   "
5.57, 189.777, 0.009363208, NaN, NaN, NaN, 0.0433376, "- N/A -   "
5.58, 190.013, 0.009379867, NaN, NaN, NaN, 0.0433376, "- N/A -   "
5.59, 190.367, 0.009399306, NaN, NaN, NaN, 0.0433376, "- N/A -   "
5.6, 190.839, 0.009413188, NaN, NaN, NaN, 0.0433376, "- N/A -   "
5.61, 191.075, 0.009432626, NaN, NaN, NaN, 0.0433376, "- N/A -   "
5.62, 191.429, 0.009449286, NaN, NaN, NaN, 0.0433376, "- N/A -   "
5.63, 191.665, 0.009463171, NaN, NaN, NaN, 0.0433376, "- N/A -   "
5.64, 192.018, 0.00947983, NaN, NaN, NaN, 0.0433376, "- N/A -   "
5.65, 192.372, 0.009496491, NaN, NaN, NaN, 0.0433376, "- N/A -   "
5.66, 192.608, 0.009513152, NaN, NaN, NaN, 0.0433376, "- N/A -   "
5.67, 193.08, 0.009532589, NaN, NaN, NaN, 0.0433376, "- N/A -   "
5.68, 193.434, 0.009552026, NaN, NaN, NaN, 0.04211683, "- N/A -   "
5.69, 193.7877, 0.009568687, NaN, NaN, NaN, 0.04089605, "- N/A -   "
5.7, 194.259, 0.0095909, NaN, NaN, NaN, 0.0396753, "- N/A -   "
5.71, 194.495, 0.009610338, NaN, NaN, NaN, 0.0384545, "- N/A -   "
5.72, 195.085, 0.009629776, NaN, NaN, NaN, 0.0372337, "- N/A -   "
5.73, 195.321, 0.00964921, NaN, NaN, NaN, 0.03601294, "- N/A -   "
5.74, 195.7928, 0.00966865, NaN, NaN, NaN, 0.0347922, "- N/A -   "
5.75, 196.147, 0.009685311, NaN, NaN, NaN, 0.0335714, "- N/A -   "
5.76, 196.383, 0.009701971, NaN, NaN, NaN, 0.0335714, "- N/A -   "
5.77, 196.854, 0.00971863, NaN, NaN, NaN, 0.0335714, "- N/A -   "
5.78, 197.09, 0.009740844, NaN, NaN, NaN, 0.03112983, "- N/A -   "
5.79, 197.68, 0.009760283, NaN, NaN, NaN, 0.03112983, "- N/A -   "
5.8, 197.916, 0.009776942, NaN, NaN, NaN, 0.0299091, "- N/A -   "
5.81, 198.152, 0.00979638, NaN, NaN, NaN, 0.0299091, "- N/A -   "
5.82, 198.506, 0.009810264, NaN, NaN, NaN, 0.0299091, "- N/A -   "
5.83, 198.859, 0.009826925, NaN, NaN, NaN, 0.0299091, "- N/A -   "
5.84, 199.095, 0.009840809, NaN, NaN, NaN, 0.03112983, "- N/A -   "
5.85, 199.331, 0.009857468, NaN, NaN, NaN, 0.0323506, "- N/A -   "
5.86, 199.685, 0.009871352, NaN, NaN, NaN, 0.0323506, "- N/A -   "
5.87, 199.921, 0.009885237, NaN, NaN, NaN, 0.0335714, "- N/A -   "
5.88, 200.275, 0.009901897, NaN, NaN, NaN, 0.0335714, "- N/A -   "
5.89, 200.5107, 0.00991578, NaN, NaN, NaN, 0.0347922, "- N/A -   "
5.9, 200.865, 0.009932441, NaN, NaN, NaN, 0.03601294, "- N/A -   "
5.91, 201.1, 0.009949102, NaN, NaN, NaN, 0.03601294, "- N/A -   "
5.92, 201.454, 0.00996576, NaN, NaN, NaN, 0.03601294, "- N/A -   "
5.93, 201.808, 0.009982423, NaN, NaN, NaN, 0.03601294, "- N/A -   "
5.94, 202.044, 0.009996306, NaN, NaN, NaN, 0.03601294, "- N/A -   "
5.95, 202.516, 0.0100157, NaN, NaN, NaN, 0.03601294, "- N/A -   "
5.96, 202.7517, 0.0100296, NaN, NaN, NaN, 0.03601294, "- N/A -   "
[...]
32.97, 1315.18, 0.0550352, NaN, NaN, NaN, 0.04089605, "- N/A -   "
32.98, 1315.78, 0.05505466, NaN, NaN, NaN, 0.0396753, "- N/A -   "
32.99, 1316.26, 0.0550741, NaN, NaN, NaN, 0.0384545, "- N/A -   "
33, 1316.73, 0.0550935, NaN, NaN, NaN, 0.0372337, "- N/A -   "
33.01, 1317.09, 0.055113, NaN, NaN, NaN, 0.03601294, "- N/A -   "
33.02, 1317.57, 0.0551296, NaN, NaN, NaN, 0.03601294, "- N/A -   "
33.03, 1317.93, 0.0551491, NaN, NaN, NaN, 0.03601294, "- N/A -   "
33.04, 1318.52, 0.05516573, NaN, NaN, NaN, 0.0347922, "- N/A -   "
33.05, 1319, 0.0551852, NaN, NaN, NaN, 0.0347922, "- N/A -   "
33.06, 1319.6, 0.05520183, NaN, NaN, NaN, 0.0335714, "- N/A -   "
33.07, 1319.95, 0.05521849, NaN, NaN, NaN, 0.0335714, "- N/A -   "
33.08, 1320.43, 0.0552379, NaN, NaN, NaN, 0.0323506, "- N/A -   "
33.09, 1320.91, 0.05525736, NaN, NaN, NaN, 0.0323506, "- N/A -   "
33.1, 1321.39, 0.055274, NaN, NaN, NaN, 0.0323506, "- N/A -   "
33.11, 1321.86, 0.0552907, NaN, NaN, NaN, 0.0323506, "- N/A -   "
33.12, 1322.22, 0.0553073, NaN, NaN, NaN, 0.03112983, "- N/A -   "
33.13, 1322.58, 0.055324, NaN, NaN, NaN, 0.03112983, "- N/A -   "
33.14, 1323.055, 0.05534067, NaN, NaN, NaN, 0.03112983, "- N/A -   "
33.15, 1323.53, 0.05535733, NaN, NaN, NaN, 0.03112983, "- N/A -   "
33.16, 1323.89, 0.05537121, NaN, NaN, NaN, 0.0323506, "- N/A -   "
33.17, 1324.25, 0.0553851, NaN, NaN, NaN, 0.0335714, "- N/A -   "
33.18, 1324.72, 0.0554018, NaN, NaN, NaN, 0.0335714, "- N/A -   "
33.19, 1324.96, 0.0554184, NaN, NaN, NaN, 0.0347922, "- N/A -   "
33.2, 1325.32, 0.0554323, NaN, NaN, NaN, 0.0347922, "- N/A -   "
33.21, 1325.798, 0.0554462, NaN, NaN, NaN, 0.03601294, "- N/A -   "
33.22, 1326.04, 0.05546007, NaN, NaN, NaN, 0.0372337, "- N/A -   "
33.23, 1326.39, 0.05547395, NaN, NaN, NaN, 0.0384545, "- N/A -   "
33.24, 1326.752, 0.05549061, NaN, NaN, NaN, 0.0384545, "- N/A -   "
33.25, 1327.229, 0.0555073, NaN, NaN, NaN, 0.0384545, "- N/A -   "
33.26, 1327.71, 0.0555239, NaN, NaN, NaN, 0.0384545, "- N/A -   "
33.27, 1328.3, 0.0555434, NaN, NaN, NaN, 0.0372337, "- N/A -   "
33.28, 1328.66, 0.0555628, NaN, NaN, NaN, 0.03601294, "- N/A -   "
33.29, 1329.137, 0.0555795, NaN, NaN, NaN, 0.03601294, "- N/A -   "
33.3, 1329.61, 0.0555989, NaN, NaN, NaN, 0.0347922, "- N/A -   "
33.31, 1330.21, 0.0556183, NaN, NaN, NaN, 0.0335714, "- N/A -   "
33.32, 1330.69, 0.05563778, NaN, NaN, NaN, 0.0323506, "- N/A -   "
33.33, 1331.16, 0.05565444, NaN, NaN, NaN, 0.0323506, "- N/A -   "
33.34, 1331.522, 0.0556711, NaN, NaN, NaN, 0.0323506, "- N/A -   "
33.35, 1332.12, 0.05568776, NaN, NaN, NaN, 0.0323506, "- N/A -   "
33.36, 1332.48, 0.0557072, NaN, NaN, NaN, 0.03112983, "- N/A -   "
33.37, 1333.07, 0.0557239, NaN, NaN, NaN, 0.03112983, "- N/A -   "
33.38, 1333.55, 0.0557405, NaN, NaN, NaN, 0.03112983, "- N/A -   "
33.39, 1333.79, 0.0557544, NaN, NaN, NaN, 0.0323506, "- N/A -   "
33.4, 1334.15, 0.05577106, NaN, NaN, NaN, 0.0323506, "- N/A -   "
33.41, 1334.62, 0.05578495, NaN, NaN, NaN, 0.0335714, "- N/A -   "
33.42, 1334.86, 0.0557988, NaN, NaN, NaN, 0.0347922, "- N/A -   "
33.43, 1335.34, 0.05581549, NaN, NaN, NaN, 0.0347922, "- N/A -   "
33.44, 1335.7, 0.0558294, NaN, NaN, NaN, 0.03601294, "- N/A -   "
33.45, 1336.17, 0.0558433, NaN, NaN, NaN, 0.0372337, "- N/A -   "
33.46, 1336.41, 0.0558571, NaN, NaN, NaN, 0.0384545, "- N/A -   "
33.47, 1336.65, 0.05587103, NaN, NaN, NaN, 0.04089605, "- N/A -   "
33.48, 1337.01, 0.05588491, NaN, NaN, NaN, 0.04211683, "- N/A -   "
33.49, 1337.37, 0.0558988, NaN, NaN, NaN, 0.0433376, "- N/A -   "
33.5, 1337.72, 0.0559127, NaN, NaN, NaN, 0.0433376, "- N/A -   "
33.51, 1338.2, 0.05592934, NaN, NaN, NaN, 0.0433376, "- N/A -   "
33.52, 1338.56, 0.0559488, NaN, NaN, NaN, 0.0433376, "- N/A -   "
33.53, 1339.154, 0.0559654, NaN, NaN, NaN, 0.04211683, "- N/A -   "
33.54, 1339.75, 0.05598487, NaN, NaN, NaN, 0.04089605, "- N/A -   "
33.55, 1340.23, 0.05600431, NaN, NaN, NaN, 0.0396753, "- N/A -   "
33.56, 1340.7, 0.0560237, NaN, NaN, NaN, 0.0396753, "- N/A -   "
33.57, 1341.06, 0.0560404, NaN, NaN, NaN, 0.0384545, "- N/A -   "
33.58, 1341.54, 0.0560571, NaN, NaN, NaN, 0.0396753, "- N/A -   "
33.59, 1342.02, 0.056071, NaN, NaN, NaN, 0.0396753, "- N/A -   "
33.6, 1342.37, 0.0560876, NaN, NaN, NaN, 0.0396753, "- N/A -   "
33.61, 1342.851, 0.0561043, NaN, NaN, NaN, 0.0396753, "- N/A -   "
33.62, 1343.328, 0.0561209, NaN, NaN, NaN, 0.0396753, "- N/A -   "
33.63, 1343.69, 0.0561376, NaN, NaN, NaN, 0.0396753, "- N/A -   "
33.64, 1344.04, 0.05615148, NaN, NaN, NaN, 0.04089605, "- N/A -   "
33.65, 1344.4, 0.0561709, NaN, NaN, NaN, 0.04089605, "- N/A -   "
33.66, 1344.88, 0.0561904, NaN, NaN, NaN, 0.0396753, "- N/A -   "
33.67, 1345.36, 0.056207, NaN, NaN, NaN, 0.0384545, "- N/A -   "
33.68, 1345.95, 0.0562237, NaN, NaN, NaN, 0.0384545, "- N/A -   "
33.69, 1346.43, 0.05624311, NaN, NaN, NaN, 0.0384545, "- N/A -   "
33.7, 1346.91, 0.0562598, NaN, NaN, NaN, 0.0372337, "- N/A -   "
33.71, 1347.38, 0.0562764, NaN, NaN, NaN, 0.0372337, "- N/A -   "
33.72, 1347.74, 0.0562931, NaN, NaN, NaN, 0.0372337, "- N/A -   "
33.73, 1348.22, 0.05631253, NaN, NaN, NaN, 0.0372337, "- N/A -   "
33.74, 1348.69, 0.056332, NaN, NaN, NaN, 0.03601294, "- N/A -   "
33.75, 1349.17, 0.0563514, NaN, NaN, NaN, 0.0347922, "- N/A -   "
33.76, 1349.77, 0.0563681, NaN, NaN, NaN, 0.0335714, "- N/A -   "
33.77, 1350.24, 0.0563875, NaN, NaN, NaN, 0.0323506, "- N/A -   "
33.78, 1350.6, 0.0564042, NaN, NaN, NaN, 0.0323506, "- N/A -   "
33.79, 1351.08, 0.0564208, NaN, NaN, NaN, 0.0323506, "- N/A -   "
33.8, 1351.32, 0.0564375, NaN, NaN, NaN, 0.0335714, "- N/A -   "
33.81, 1351.68, 0.0564514, NaN, NaN, NaN, 0.0335714, "- N/A -   "
33.82, 1352.15, 0.05646803, NaN, NaN, NaN, 0.0335714, "- N/A -   "
33.83, 1352.63, 0.0564847, NaN, NaN, NaN, 0.0335714, "- N/A -   "
33.84, 1352.99, 0.0565013, NaN, NaN, NaN, 0.0335714, "- N/A -   "
33.85, 1353.46, 0.056518, NaN, NaN, NaN, 0.0335714, "- N/A -   "
33.86, 1353.94, 0.0565347, NaN, NaN, NaN, 0.0335714, "- N/A -   "
33.87, 1354.42, 0.0565541, NaN, NaN, NaN, 0.0323506, "- N/A -   "
33.88, 1354.9, 0.0565708, NaN, NaN, NaN, 0.0323506, "- N/A -   "
33.89, 1355.37, 0.0565874, NaN, NaN, NaN, 0.0323506, "- N/A -   "
33.9, 1355.73, 0.0566069, NaN, NaN, NaN, 0.0323506, "- N/A -   "
33.91, 1356.088, 0.05662075, NaN, NaN, NaN, 0.0323506, "- N/A -   "
33.92, 1356.565, 0.05663741, NaN, NaN, NaN, 0.0323506, "- N/A -   "
33.93, 1357.04, 0.0566541, NaN, NaN, NaN, 0.0323506, "- N/A -   "
33.94, 1357.4, 0.056668, NaN, NaN, NaN, 0.0335714, "- N/A -   "
33.95, 1357.88, 0.0566846, NaN, NaN, NaN, 0.0335714, "- N/A -   "
33.96, 1358.23, 0.0567013, NaN, NaN, NaN, 0.0335714, "- N/A -   "
33.97, 1358.71, 0.0567179, NaN, NaN, NaN, 0.0335714, "- N/A -   "
33.98, 1359.07, 0.0567346, NaN, NaN, NaN, 0.0335714, "- N/A -   "
33.99, 1359.55, 0.0567513, NaN, NaN, NaN, 0.0335714, "- N/A -   "
34, 1360.02, 0.0567679, NaN, NaN, NaN, 0.0347922, "- N/A -   "
34.01, 1360.381, 0.0567846, NaN, NaN, NaN, 0.0335714, "- N/A -   "
34.02, 1360.858, 0.0568012, NaN, NaN, NaN, 0.0335714, "- N/A -   "
34.03, 1361.22, 0.0568151, NaN, NaN, NaN, 0.0347922, "- N/A -   "
34.04, 1361.45, 0.0568318, NaN, NaN, NaN, 0.03601294, "- N/A -   "
34.05, 1361.93, 0.0568457, NaN, NaN, NaN, 0.03601294, "- N/A -   "
34.06, 1362.41, 0.0568651, NaN, NaN, NaN, 0.03601294, "- N/A -   "
34.07, 1362.766, 0.056879, NaN, NaN, NaN, 0.03601294, "- N/A -   "
34.08, 1363.36, 0.0568984, NaN, NaN, NaN, 0.03601294, "- N/A -   "
34.09, 1363.6, 0.0569123, NaN, NaN, NaN, 0.03601294, "- N/A -   "
34.1, 1363.96, 0.056929, NaN, NaN, NaN, 0.03601294, "- N/A -   "
34.11, 1364.55, 0.0569484, NaN, NaN, NaN, 0.03601294, "- N/A -   "
34.12, 1365.03, 0.0569651, NaN, NaN, NaN, 0.0347922, "- N/A -   "
34.13, 1365.628, 0.0569817, NaN, NaN, NaN, 0.0347922, "- N/A -   "
34.14, 1365.99, 0.0569984, NaN, NaN, NaN, 0.0347922, "- N/A -   "
34.15, 1366.34, 0.057015, NaN, NaN, NaN, 0.03601294, "- N/A -   "
34.16, 1366.7, 0.0570289, NaN, NaN, NaN, 0.03601294, "- N/A -   "
34.17, 1367.06, 0.0570456, NaN, NaN, NaN, 0.0372337, "- N/A -   "
34.18, 1367.54, 0.0570595, NaN, NaN, NaN, 0.0372337, "- N/A -   "
34.19, 1367.77, 0.05707336, NaN, NaN, NaN, 0.0384545, "- N/A -   "
34.2, 1368.37, 0.05709, NaN, NaN, NaN, 0.0384545, "- N/A -   "
34.21, 1368.73, 0.05710668, NaN, NaN, NaN, 0.0384545, "- N/A -   "
34.22, 1369.09, 0.05712334, NaN, NaN, NaN, 0.0384545, "- N/A -   "
34.23, 1369.56, 0.05714, NaN, NaN, NaN, 0.0396753, "- N/A -   "
34.24, 1370.04, 0.05715666, NaN, NaN, NaN, 0.0396753, "- N/A -   "
34.25, 1370.4, 0.0571705, NaN, NaN, NaN, 0.0396753, "- N/A -   "
34.26, 1370.76, 0.0571872, NaN, NaN, NaN, 0.0396753, "- N/A -   "
34.27, 1371.11, 0.0572039, NaN, NaN, NaN, 0.0396753, "- N/A -   "
34.28, 1371.59, 0.05722053, NaN, NaN, NaN, 0.0396753, "- N/A -   "
34.29, 1371.95, 0.05723441, NaN, NaN, NaN, 0.04089605, "- N/A -   "
34.3, 1372.31, 0.05725107, NaN, NaN, NaN, 0.04089605, "- N/A -   "
34.31, 1372.664, 0.057265, NaN, NaN, NaN, 0.04211683, "- N/A -   "
34.32, 1373.141, 0.05727884, NaN, NaN, NaN, 0.0433376, "- N/A -   "
34.33, 1373.5, 0.0572955, NaN, NaN, NaN, 0.0433376, "- N/A -   "
34.34, 1373.98, 0.05731216, NaN, NaN, NaN, 0.0433376, "- N/A -   "
34.35, 1374.45, 0.0573288, NaN, NaN, NaN, 0.0433376, "- N/A -   "
34.36, 1374.93, 0.05734826, NaN, NaN, NaN, 0.0433376, "- N/A -   "
34.37, 1375.29, 0.05736492, NaN, NaN, NaN, 0.04211683, "- N/A -   "
34.38, 1375.76, 0.05738158, NaN, NaN, NaN, 0.04211683, "- N/A -   "
34.39, 1376.24, 0.057401, NaN, NaN, NaN, 0.04211683, "- N/A -   "
34.4, 1376.72, 0.05741768, NaN, NaN, NaN, 0.04089605, "- N/A -   "
34.41, 1377.2, 0.0574371, NaN, NaN, NaN, 0.0396753, "- N/A -   "
34.42, 1377.79, 0.0574538, NaN, NaN, NaN, 0.0396753, "- N/A -   "
34.43, 1378.27, 0.0574732, NaN, NaN, NaN, 0.0384545, "- N/A -   "
34.44, 1378.75, 0.05749265, NaN, NaN, NaN, 0.0384545, "- N/A -   "
34.45, 1379.1, 0.05750931, NaN, NaN, NaN, 0.0372337, "- N/A -   "
34.46, 1379.7, 0.05752875, NaN, NaN, NaN, 0.03601294, "- N/A -   "
34.47, 1380.18, 0.0575482, NaN, NaN, NaN, 0.03601294, "- N/A -   "
34.48, 1380.77, 0.05756762, NaN, NaN, NaN, 0.0335714, "- N/A -   "
34.49, 1381.25, 0.0575871, NaN, NaN, NaN, 0.0323506, "- N/A -   "
34.5, 1381.727, 0.0576037, NaN, NaN, NaN, 0.0323506, "- N/A -   "
34.51, 1382.2, 0.05762038, NaN, NaN, NaN, 0.0323506, "- N/A -   "
34.52, 1382.56, 0.05763704, NaN, NaN, NaN, 0.0323506, "- N/A -   "
34.53, 1383.039, 0.0576537, NaN, NaN, NaN, 0.0323506, "- N/A -   "
34.54, 1383.4, 0.0576704, NaN, NaN, NaN, 0.0323506, "- N/A -   "
34.55, 1383.87, 0.057687, NaN, NaN, NaN, 0.0323506, "- N/A -   "
34.56, 1384.23, 0.0577037, NaN, NaN, NaN, 0.0323506, "- N/A -   "
34.57, 1384.71, 0.0577203, NaN, NaN, NaN, 0.0323506, "- N/A -   "
34.58, 1385.07, 0.057737, NaN, NaN, NaN, 0.0323506, "- N/A -   "
34.59, 1385.54, 0.0577537, NaN, NaN, NaN, 0.0323506, "- N/A -   "
34.6, 1386.02, 0.0577703, NaN, NaN, NaN, 0.0323506, "- N/A -   "
34.61, 1386.38, 0.057787, NaN, NaN, NaN, 0.0323506, "- N/A -   "
34.62, 1386.85, 0.0578036, NaN, NaN, NaN, 0.0335714, "- N/A -   "
34.63, 1387.21, 0.0578203, NaN, NaN, NaN, 0.0323506, "- N/A -   "
34.64, 1387.69, 0.057837, NaN, NaN, NaN, 0.0323506, "- N/A -   "
34.65, 1388.17, 0.0578536, NaN, NaN, NaN, 0.0323506, "- N/A -   "
34.66, 1388.64, 0.0578731, NaN, NaN, NaN, 0.03112983, "- N/A -   "
34.67, 1389.12, 0.0578925, NaN, NaN, NaN, 0.0299091, "- N/A -   "
34.68, 1389.72, 0.05790916, NaN, NaN, NaN, 0.0299091, "- N/A -   "
34.69, 1389.96, 0.0579286, NaN, NaN, NaN, 0.0299091, "- N/A -   "
34.7, 1390.55, 0.05794526, NaN, NaN, NaN, 0.0286883, "- N/A -   "
34.71, 1391.03, 0.05796192, NaN, NaN, NaN, 0.0286883, "- N/A -   "
34.72, 1391.39, 0.05797858, NaN, NaN, NaN, 0.0286883, "- N/A -   "
34.73, 1391.86, 0.05799524, NaN, NaN, NaN, 0.0299091, "- N/A -   "
34.74, 1392.102, 0.0580119, NaN, NaN, NaN, 0.0299091, "- N/A -   "
34.75, 1392.7, 0.05802856, NaN, NaN, NaN, 0.0299091, "- N/A -   "
34.76, 1393.056, 0.05804522, NaN, NaN, NaN, 0.0299091, "- N/A -   "
34.77, 1393.41, 0.0580619, NaN, NaN, NaN, 0.0299091, "- N/A -   "
34.78, 1393.89, 0.0580758, NaN, NaN, NaN, 0.0299091, "- N/A -   "
34.79, 1394.37, 0.05809243, NaN, NaN, NaN, 0.03112983, "- N/A -   "
34.8, 1394.73, 0.05810631, NaN, NaN, NaN, 0.03112983, "- N/A -   "
34.81, 1394.96, 0.05812297, NaN, NaN, NaN, 0.03112983, "- N/A -   "
34.82, 1395.44, 0.0581369, NaN, NaN, NaN, 0.0323506, "- N/A -   "
34.83, 1395.8, 0.0581507, NaN, NaN, NaN, 0.0335714, "- N/A -   "
34.84, 1396.16, 0.0581646, NaN, NaN, NaN, 0.0347922, "- N/A -   "
34.85, 1396.51, 0.0581785, NaN, NaN, NaN, 0.03601294, "- N/A -   "
34.86, 1396.75, 0.05819239, NaN, NaN, NaN, 0.0372337, "- N/A -   "
34.87, 1397.11, 0.0582035, NaN, NaN, NaN, 0.0396753, "- N/A -   "
34.88, 1397.349, 0.0582174, NaN, NaN, NaN, 0.04089605, "- N/A -   "
34.89, 1397.71, 0.0582313, NaN, NaN, NaN, 0.04211683, "- N/A -   "
34.9, 1398.06, 0.0582479, NaN, NaN, NaN, 0.0433376, "- N/A -   "
34.91, 1398.54, 0.0582618, NaN, NaN, NaN, 0.0433376, "- N/A -   "
34.92, 1398.9, 0.0582785, NaN, NaN, NaN, 0.0433376, "- N/A -   "
34.93, 1399.26, 0.0582924, NaN, NaN, NaN, 0.0445584, "- N/A -   "
34.94, 1399.61, 0.058309, NaN, NaN, NaN, 0.04577916, "- N/A -   "
34.95, 1400.09, 0.0583229, NaN, NaN, NaN, 0.04699994, "- N/A -   "
34.96, 1400.45, 0.0583368, NaN, NaN, NaN, 0.04699994, "- N/A -   "
34.97, 1400.93, 0.0583534, NaN, NaN, NaN, 0.0482207, "- N/A -   "
34.98, 1401.28, 0.0583701, NaN, NaN, NaN, 0.0482207, "- N/A -   "
34.99, 1401.76, 0.05838954, NaN, NaN, NaN, 0.04699994, "- N/A -   "
35, 1402.36, 0.0584062, NaN, NaN, NaN, 0.04577916, "- N/A -   "
35.01, 1402.83, 0.05842564, NaN, NaN, NaN, 0.0445584, "- N/A -   "
35.02, 1403.19, 0.0584451, NaN, NaN, NaN, 0.0445584, "- N/A -   "
35.03, 1403.79, 0.0584645, NaN, NaN, NaN, 0.0433376, "- N/A -   "
35.04, 1404.385, 0.05848395, NaN, NaN, NaN, 0.04089605, "- N/A -   "
35.05, 1404.862, 0.05850339, NaN, NaN, NaN, 0.0396753, "- N/A -   "
35.06, 1405.339, 0.0585228, NaN, NaN, NaN, 0.0396753, "- N/A -   "
35.07, 1405.816, 0.0585395, NaN, NaN, NaN, 0.0384545, "- N/A -   "
35.08, 1406.293, 0.0585589, NaN, NaN, NaN, 0.0372337, "- N/A -   "
35.09, 1406.77, 0.0585784, NaN, NaN, NaN, 0.0372337, "- N/A -   "
35.1, 1407.13, 0.05859502, NaN, NaN, NaN, 0.03601294, "- N/A -   "
35.11, 1407.724, 0.0586145, NaN, NaN, NaN, 0.03601294, "- N/A -   "
35.12, 1408.2, 0.0586311, NaN, NaN, NaN, 0.0347922, "- N/A -   "
35.13, 1408.678, 0.0586506, NaN, NaN, NaN, 0.0347922, "- N/A -   "
35.14, 1409.155, 0.0586672, NaN, NaN, NaN, 0.0347922, "- N/A -   "
35.15, 1409.63, 0.05868665, NaN, NaN, NaN, 0.0323506, "- N/A -   "
35.16, 1410.109, 0.05870331, NaN, NaN, NaN, 0.0323506, "- N/A -   "
35.17, 1410.47, 0.05871997, NaN, NaN, NaN, 0.0323506, "- N/A -   "
35.18, 1410.94, 0.0587366, NaN, NaN, NaN, 0.0323506, "- N/A -   "
35.19, 1411.3, 0.05875607, NaN, NaN, NaN, 0.0323506, "- N/A -   "
35.2, 1411.9, 0.0587727, NaN, NaN, NaN, 0.0323506, "- N/A -   "
35.21, 1412.37, 0.0587894, NaN, NaN, NaN, 0.03112983, "- N/A -   "
35.22, 1412.85, 0.0588061, NaN, NaN, NaN, 0.03112983, "- N/A -   "
35.23, 1413.21, 0.0588255, NaN, NaN, NaN, 0.0299091, "- N/A -   "
35.24, 1413.69, 0.0588449, NaN, NaN, NaN, 0.0299091, "- N/A -   "
35.25, 1414.283, 0.0588644, NaN, NaN, NaN, 0.0286883, "- N/A -   "
35.26, 1414.64, 0.058881, NaN, NaN, NaN, 0.0274675, "- N/A -   "
35.27, 1415.12, 0.0588977, NaN, NaN, NaN, 0.0286883, "- N/A -   "
35.28, 1415.59, 0.05891435, NaN, NaN, NaN, 0.0274675, "- N/A -   "
35.29, 1415.95, 0.058931, NaN, NaN, NaN, 0.0286883, "- N/A -   "
35.3, 1416.43, 0.0589477, NaN, NaN, NaN, 0.0299091, "- N/A -   "
35.31, 1416.79, 0.05896155, NaN, NaN, NaN, 0.0299091, "- N/A -   "
35.32, 1417.14, 0.05897821, NaN, NaN, NaN, 0.0299091, "- N/A -   "
35.33, 1417.622, 0.05899487, NaN, NaN, NaN, 0.0299091, "- N/A -   "
35.34, 1418.1, 0.0590115, NaN, NaN, NaN, 0.0299091, "- N/A -   "
35.35, 1418.46, 0.0590282, NaN, NaN, NaN, 0.0299091, "- N/A -   "
35.36, 1418.93, 0.0590449, NaN, NaN, NaN, 0.0299091, "- N/A -   "
35.37, 1419.41, 0.0590615, NaN, NaN, NaN, 0.0299091, "- N/A -   "
35.38, 1419.89, 0.05907817, NaN, NaN, NaN, 0.03112983, "- N/A -   "
35.39, 1420.13, 0.05909206, NaN, NaN, NaN, 0.03112983, "- N/A -   "
35.4, 1420.484, 0.05910872, NaN, NaN, NaN, 0.03112983, "- N/A -   "
35.41, 1420.96, 0.0591254, NaN, NaN, NaN, 0.0323506, "- N/A -   "
35.42, 1421.32, 0.0591393, NaN, NaN, NaN, 0.0335714, "- N/A -   "
35.43, 1421.56, 0.0591504, NaN, NaN, NaN, 0.0347922, "- N/A -   "
35.44, 1422.03, 0.059167, NaN, NaN, NaN, 0.0347922, "- N/A -   "
35.45, 1422.39, 0.0591809, NaN, NaN, NaN, 0.03601294, "- N/A -   "
35.46, 1422.75, 0.0591948, NaN, NaN, NaN, 0.0372337, "- N/A -   "
35.47, 1422.99, 0.0592087, NaN, NaN, NaN, 0.0384545, "- N/A -   "
35.48, 1423.47, 0.0592226, NaN, NaN, NaN, 0.0396753, "- N/A -   "
35.49, 1423.82, 0.0592392, NaN, NaN, NaN, 0.0396753, "- N/A -   "
35.5, 1424.3, 0.05925311, NaN, NaN, NaN, 0.04089605, "- N/A -   "
35.51, 1424.54, 0.05926977, NaN, NaN, NaN, 0.04211683, "- N/A -   "
35.52, 1424.78, 0.0592837, NaN, NaN, NaN, 0.0433376, "- N/A -   "
35.53, 1425.25, 0.05929754, NaN, NaN, NaN, 0.0433376, "- N/A -   "
35.54, 1425.61, 0.0593142, NaN, NaN, NaN, 0.0433376, "- N/A -   "
35.55, 1425.97, 0.0593281, NaN, NaN, NaN, 0.0445584, "- N/A -   "
35.56, 1426.45, 0.0593447, NaN, NaN, NaN, 0.04577916, "- N/A -   "
35.57, 1426.8, 0.05935863, NaN, NaN, NaN, 0.04577916, "- N/A -   "
35.58, 1427.28, 0.05937529, NaN, NaN, NaN, 0.04577916, "- N/A -   "
35.59, 1427.76, 0.05939473, NaN, NaN, NaN, 0.04577916, "- N/A -   "
35.6, 1428.12, 0.0594114, NaN, NaN, NaN, 0.0445584, "- N/A -   "
35.61, 1428.593, 0.0594308, NaN, NaN, NaN, 0.0433376, "- N/A -   "
35.62, 1429.19, 0.0594475, NaN, NaN, NaN, 0.0433376, "- N/A -   "
35.63, 1429.55, 0.0594641, NaN, NaN, NaN, 0.0433376, "- N/A -   "
35.64, 1430.024, 0.0594808, NaN, NaN, NaN, 0.0445584, "- N/A -   "
35.65, 1430.382, 0.05949469, NaN, NaN, NaN, 0.0445584, "- N/A -   "
35.66, 1430.86, 0.05951135, NaN, NaN, NaN, 0.04577916, "- N/A -   "
35.67, 1431.22, 0.059528, NaN, NaN, NaN, 0.0445584, "- N/A -   "
35.68, 1431.69, 0.0595447, NaN, NaN, NaN, 0.0445584, "- N/A -   "
35.69, 1432.17, 0.0595641, NaN, NaN, NaN, 0.0445584, "- N/A -   "
35.7, 1432.65, 0.0595808, NaN, NaN, NaN, 0.0433376, "- N/A -   "
35.71, 1433.01, 0.0595974, NaN, NaN, NaN, 0.0433376, "- N/A -   "
35.72, 1433.36, 0.05961409, NaN, NaN, NaN, 0.0433376, "- N/A -   "
35.73, 1433.96, 0.0596307, NaN, NaN, NaN, 0.0433376, "- N/A -   "
35.74, 1434.44, 0.0596502, NaN, NaN, NaN, 0.0433376, "- N/A -   "
35.75, 1434.91, 0.0596668, NaN, NaN, NaN, 0.0433376, "- N/A -   "
35.76, 1435.39, 0.0596835, NaN, NaN, NaN, 0.04211683, "- N/A -   "
35.77, 1435.75, 0.0597029, NaN, NaN, NaN, 0.04089605, "- N/A -   "
35.78, 1436.34, 0.0597224, NaN, NaN, NaN, 0.0396753, "- N/A -   "
35.79, 1436.82, 0.0597418, NaN, NaN, NaN, 0.0396753, "- N/A -   "
35.8, 1437.3, 0.0597585, NaN, NaN, NaN, 0.0384545, "- N/A -   "
35.81, 1437.78, 0.0597779, NaN, NaN, NaN, 0.0372337, "- N/A -   "
35.82, 1438.25, 0.0597974, NaN, NaN, NaN, 0.03601294, "- N/A -   "
35.83, 1438.85, 0.0598168, NaN, NaN, NaN, 0.0347922, "- N/A -   "
35.84, 1439.33, 0.05983623, NaN, NaN, NaN, 0.0335714, "- N/A -   "
35.85, 1439.922, 0.0598557, NaN, NaN, NaN, 0.0323506, "- N/A -   "
35.86, 1440.399, 0.0598779, NaN, NaN, NaN, 0.03112983, "- N/A -   "
35.87, 1440.88, 0.0598973, NaN, NaN, NaN, 0.0299091, "- N/A -   "
35.88, 1441.353, 0.0599168, NaN, NaN, NaN, 0.0286883, "- N/A -   "
35.89, 1441.95, 0.0599334, NaN, NaN, NaN, 0.0274675, "- N/A -   "
35.9, 1442.43, 0.05995285, NaN, NaN, NaN, 0.0274675, "- N/A -   "
35.91, 1442.784, 0.05996951, NaN, NaN, NaN, 0.0262467, "- N/A -   "
35.92, 1443.26, 0.05998617, NaN, NaN, NaN, 0.0262467, "- N/A -   "
35.93, 1443.5, 0.0600001, NaN, NaN, NaN, 0.0274675, "- N/A -   "
35.94, 1443.98, 0.0600195, NaN, NaN, NaN, 0.0274675, "- N/A -   "
35.95, 1444.45, 0.06003338, NaN, NaN, NaN, 0.0274675, "- N/A -   "
35.96, 1444.81, 0.06005004, NaN, NaN, NaN, 0.0274675, "- N/A -   "
35.966, 1445.05, 0.0600584, NaN, NaN, NaN, 0.0286883, "- N/A -   "