File: 2_Tensile_Data/Hamel_ForceTest_Bolt6_Test5.csv
Time, Load (lb), Position (in), AxialStrain (in), TransverseStrain (in), Auxiliary (), Control Out (V), Stress (psi)
0.0, 1.53332, 0.0, NaN, NaN, NaN, 0.0982726, "- N/A -   "
0.01, 2.241, 3.054427E-5, NaN, NaN, NaN, 0.105597, "- N/A -   "
0.02, 2.94869, 6.386529E-5, NaN, NaN, NaN, 0.106818, "- N/A -   "
0.03, 3.774319, 9.99631e-05, NaN, NaN, NaN, 0.0982726, "- N/A -   "
0.04, 4.36406, 0.000130507, NaN, NaN, NaN, 0.09094793, "- N/A -   "
0.05, 5.18969, 1.610516E-4, NaN, NaN, NaN, 0.084844, "- N/A -   "
0.06, 5.66148, 0.000191596, NaN, NaN, NaN, 0.0799609, "- N/A -   "
0.07, 6.369163, 2.193634E-4, NaN, NaN, NaN, 0.0750778, "- N/A -   "
0.08, 6.9589, 2.471309E-4, NaN, NaN, NaN, 0.0701947, "- N/A -   "
0.09, 7.430691, 0.000269345, NaN, NaN, NaN, 0.06653238, "- N/A -   "
0.1, 7.90248, 0.000297112, NaN, NaN, NaN, 0.06287005, "- N/A -   "
0.11, 8.492218, 0.000319326, NaN, NaN, NaN, 0.0604285, "- N/A -   "
0.12, 8.964007, 0.00034154, NaN, NaN, NaN, 0.0579869, "- N/A -   "
0.13, 9.435798, 3.637545E-4, NaN, NaN, NaN, 0.0555454, "- N/A -   "
0.14, 9.907588, 3.859685E-4, NaN, NaN, NaN, 0.05188305, "- N/A -   "
0.15, 10.3794, 4.081825E-4, NaN, NaN, NaN, 0.0494415, "- N/A -   "
0.16, 10.8512, 0.000430397, NaN, NaN, NaN, 0.04699994, "- N/A -   "
0.17, 11.323, 0.000452611, NaN, NaN, NaN, 0.0445584, "- N/A -   "
0.18, 11.6768, 4.720478E-4, NaN, NaN, NaN, 0.0433376, "- N/A -   "
0.19, 12.2665, 4.970386E-4, NaN, NaN, NaN, 0.04089605, "- N/A -   "
0.2, 12.6204, 5.164758E-4, NaN, NaN, NaN, 0.0396753, "- N/A -   "
0.21, 13.09217, 5.359131E-4, NaN, NaN, NaN, 0.0372337, "- N/A -   "
0.22, 13.446, 5.553504E-4, NaN, NaN, NaN, 0.0372337, "- N/A -   "
0.23, 13.7999, 5.720109E-4, NaN, NaN, NaN, 0.0372337, "- N/A -   "
0.24, 14.1537, 0.000588671, NaN, NaN, NaN, 0.03601294, "- N/A -   "
0.25, 14.5075, 0.000602555, NaN, NaN, NaN, 0.0372337, "- N/A -   "
0.26, 14.7434, 0.000619216, NaN, NaN, NaN, 0.0372337, "- N/A -   "
0.27, 15.0973, 0.000635876, NaN, NaN, NaN, 0.0384545, "- N/A -   "
0.28, 15.3332, 6.497599E-4, NaN, NaN, NaN, 0.0384545, "- N/A -   "
0.29, 15.687, 0.00066642, NaN, NaN, NaN, 0.0384545, "- N/A -   "
0.3, 16.0409, 6.858577E-4, NaN, NaN, NaN, 0.0384545, "- N/A -   "
0.31, 16.3947, 7.025182E-4, NaN, NaN, NaN, 0.0372337, "- N/A -   "
0.32, 16.6306, 7.191787E-4, NaN, NaN, NaN, 0.0372337, "- N/A -   "
0.33, 17.1024, 0.000733062, NaN, NaN, NaN, 0.0384545, "- N/A -   "
0.34, 17.4562, 0.000746946, NaN, NaN, NaN, 0.0396753, "- N/A -   "
0.35, 17.5742, 7.6083E-4, NaN, NaN, NaN, 0.04089605, "- N/A -   "
0.36, 17.8101, 0.000774714, NaN, NaN, NaN, 0.04211683, "- N/A -   "
0.38, 18.5178, 0.000805258, NaN, NaN, NaN, 0.0433376, "- N/A -   "
0.4, 18.9895, 0.000833026, NaN, NaN, NaN, 0.04577916, "- N/A -   "
0.42, 19.6972, 8.663466E-4, NaN, NaN, NaN, 0.04577916, "- N/A -   "
0.44, 20.4049, 0.000899668, NaN, NaN, NaN, 0.04699994, "- N/A -   "
0.46, 20.99465, 9.329886E-4, NaN, NaN, NaN, 0.04699994, "- N/A -   "
0.48, 21.7023, 9.663096E-4, NaN, NaN, NaN, 0.04699994, "- N/A -   "
0.5, 22.41, 0.00100241, NaN, NaN, NaN, 0.04577916, "- N/A -   "
0.52, 23.1177, 0.00103851, NaN, NaN, NaN, 0.0445584, "- N/A -   "
0.54, 23.9433, 0.00107183, NaN, NaN, NaN, 0.0433376, "- N/A -   "
0.56, 24.65102, 0.0011107, NaN, NaN, NaN, 0.04089605, "- N/A -   "
0.58, 25.3587, 0.0011468, NaN, NaN, NaN, 0.0396753, "- N/A -   "
0.6, 26.18434, 0.0011829, NaN, NaN, NaN, 0.0384545, "- N/A -   "
0.62, 26.892, 0.001218994, NaN, NaN, NaN, 0.0372337, "- N/A -   "
0.64, 27.5997, 0.00125509, NaN, NaN, NaN, 0.03601294, "- N/A -   "
0.66, 28.42534, 0.00128841, NaN, NaN, NaN, 0.03601294, "- N/A -   "
0.68, 29.0151, 0.00132451, NaN, NaN, NaN, 0.0347922, "- N/A -   "
0.7, 29.84071, 0.00136061, NaN, NaN, NaN, 0.0335714, "- N/A -   "
0.72, 30.5484, 0.00139671, NaN, NaN, NaN, 0.0323506, "- N/A -   "
0.74, 31.2561, 0.0014328, NaN, NaN, NaN, 0.03112983, "- N/A -   "
0.76, 31.9638, 0.00146612, NaN, NaN, NaN, 0.03112983, "- N/A -   "
0.78, 32.67145, 0.001499446, NaN, NaN, NaN, 0.03112983, "- N/A -   "
0.8, 33.3791, 0.00153554, NaN, NaN, NaN, 0.0299091, "- N/A -   "
0.82, 34.08682, 0.00157164, NaN, NaN, NaN, 0.0286883, "- N/A -   "
0.84, 34.7945, 0.00160496, NaN, NaN, NaN, 0.0286883, "- N/A -   "
0.86, 35.50219, 0.00164384, NaN, NaN, NaN, 0.0274675, "- N/A -   "
0.88, 36.2099, 0.00167438, NaN, NaN, NaN, 0.0286883, "- N/A -   "
0.9, 36.5637, 0.00170215, NaN, NaN, NaN, 0.03112983, "- N/A -   "
0.92, 37.2714, 0.00172992, NaN, NaN, NaN, 0.0323506, "- N/A -   "
0.94, 37.8611, 0.00176046, NaN, NaN, NaN, 0.0335714, "- N/A -   "
0.96, 38.3329, 0.001791, NaN, NaN, NaN, 0.0347922, "- N/A -   "
0.98, 39.04061, 0.00181877, NaN, NaN, NaN, 0.0372337, "- N/A -   "
1, 39.6304, 0.00184932, NaN, NaN, NaN, 0.0396753, "- N/A -   "
1.02, 40.22009, 0.00187708, NaN, NaN, NaN, 0.04089605, "- N/A -   "
1.04, 40.8098, 0.00190763, NaN, NaN, NaN, 0.04211683, "- N/A -   "
1.06, 41.51751, 0.00193817, NaN, NaN, NaN, 0.0433376, "- N/A -   "
1.08, 42.1072, 0.00197149, NaN, NaN, NaN, 0.0445584, "- N/A -   "
1.1, 42.8149, 0.00200481, NaN, NaN, NaN, 0.0433376, "- N/A -   "
1.12, 43.5226, 0.002038136, NaN, NaN, NaN, 0.0445584, "- N/A -   "
1.14, 44.2303, 0.00207146, NaN, NaN, NaN, 0.0445584, "- N/A -   "
1.16, 44.82, 0.002102001, NaN, NaN, NaN, 0.04577916, "- N/A -   "
1.18, 45.5277, 0.00213255, NaN, NaN, NaN, 0.04577916, "- N/A -   "
1.2, 46.23541, 0.002168643, NaN, NaN, NaN, 0.04577916, "- N/A -   "
1.22, 47.061, 0.002204741, NaN, NaN, NaN, 0.0445584, "- N/A -   "
1.24, 47.7687, 0.00224084, NaN, NaN, NaN, 0.04211683, "- N/A -   "
1.26, 48.7123, 0.00227971, NaN, NaN, NaN, 0.04089605, "- N/A -   "
1.28, 49.41999, 0.002315811, NaN, NaN, NaN, 0.0384545, "- N/A -   "
1.3, 50.1277, 0.00235469, NaN, NaN, NaN, 0.03601294, "- N/A -   "
1.32, 51.0713, 0.002396337, NaN, NaN, NaN, 0.0323506, "- N/A -   "
1.34, 51.89689, 0.00243521, NaN, NaN, NaN, 0.03112983, "- N/A -   "
1.36, 52.48662, 0.00247131, NaN, NaN, NaN, 0.0299091, "- N/A -   "
1.38, 53.19431, 0.00250185, NaN, NaN, NaN, 0.03112983, "- N/A -   "
1.4, 53.784, 0.0025324, NaN, NaN, NaN, 0.03112983, "- N/A -   "
1.42, 54.4917, 0.00256572, NaN, NaN, NaN, 0.03112983, "- N/A -   "
1.44, 55.0815, 0.002596263, NaN, NaN, NaN, 0.0323506, "- N/A -   "
1.46, 55.6712, 0.00262681, NaN, NaN, NaN, 0.0335714, "- N/A -   "
1.48, 56.2609, 0.00265735, NaN, NaN, NaN, 0.0347922, "- N/A -   "
1.5, 56.9686, 0.00269067, NaN, NaN, NaN, 0.03601294, "- N/A -   "
1.52, 57.6763, 0.00272122, NaN, NaN, NaN, 0.0372337, "- N/A -   "
1.54, 58.384, 0.002751761, NaN, NaN, NaN, 0.0372337, "- N/A -   "
1.56, 58.9737, 0.00278508, NaN, NaN, NaN, 0.0372337, "- N/A -   "
1.58, 59.79937, 0.0028184, NaN, NaN, NaN, 0.0372337, "- N/A -   "
1.6, 60.3891, 0.00285172, NaN, NaN, NaN, 0.0372337, "- N/A -   "
1.62, 61.2147, 0.00288505, NaN, NaN, NaN, 0.0384545, "- N/A -   "
1.64, 61.9224, 0.00291559, NaN, NaN, NaN, 0.0384545, "- N/A -   "
1.66, 62.6301, 0.00295169, NaN, NaN, NaN, 0.0384545, "- N/A -   "
1.68, 63.33779, 0.00298501, NaN, NaN, NaN, 0.0384545, "- N/A -   "
1.7, 63.92753, 0.00301555, NaN, NaN, NaN, 0.0384545, "- N/A -   "
1.72, 64.6352, 0.00304887, NaN, NaN, NaN, 0.0396753, "- N/A -   "
1.74, 65.22495, 0.00307664, NaN, NaN, NaN, 0.04089605, "- N/A -   "
1.76, 65.81469, 0.00310719, NaN, NaN, NaN, 0.04211683, "- N/A -   "
1.78, 66.40443, 0.00313773, NaN, NaN, NaN, 0.0433376, "- N/A -   "
1.8, 67.23006, 0.00317105, NaN, NaN, NaN, 0.0445584, "- N/A -   "
1.82, 67.9377, 0.00320437, NaN, NaN, NaN, 0.0445584, "- N/A -   "
1.84, 68.52748, 0.003234916, NaN, NaN, NaN, 0.0445584, "- N/A -   "
1.86, 69.35311, 0.00327101, NaN, NaN, NaN, 0.0433376, "- N/A -   "
1.88, 70.17874, 0.003309888, NaN, NaN, NaN, 0.04089605, "- N/A -   "
1.9, 71.12233, 0.00334876, NaN, NaN, NaN, 0.0384545, "- N/A -   "
1.92, 71.83001, 0.00338764, NaN, NaN, NaN, 0.0372337, "- N/A -   "
1.94, 72.65564, 0.003423735, NaN, NaN, NaN, 0.0347922, "- N/A -   "
1.96, 73.59922, 0.00346261, NaN, NaN, NaN, 0.0323506, "- N/A -   "
1.98, 74.3069, 0.00349871, NaN, NaN, NaN, 0.03112983, "- N/A -   "
2, 75.0146, 0.00353203, NaN, NaN, NaN, 0.03112983, "- N/A -   "
2.02, 75.7223, 0.00356813, NaN, NaN, NaN, 0.03112983, "- N/A -   "
2.04, 76.43, 0.00360145, NaN, NaN, NaN, 0.0299091, "- N/A -   "
2.06, 77.13765, 0.00363477, NaN, NaN, NaN, 0.0299091, "- N/A -   "
2.08, 77.84533, 0.00366531, NaN, NaN, NaN, 0.03112983, "- N/A -   "
2.1, 78.4351, 0.00369586, NaN, NaN, NaN, 0.0323506, "- N/A -   "
2.12, 79.14275, 0.003726401, NaN, NaN, NaN, 0.0335714, "- N/A -   "
2.14, 79.73249, 0.00375695, NaN, NaN, NaN, 0.0347922, "- N/A -   "
2.16, 80.44018, 0.00379027, NaN, NaN, NaN, 0.03601294, "- N/A -   "
2.18, 81.0299, 0.00382081, NaN, NaN, NaN, 0.03601294, "- N/A -   "
2.2, 81.8555, 0.003859685, NaN, NaN, NaN, 0.0347922, "- N/A -   "
2.22, 82.79912, 0.00389301, NaN, NaN, NaN, 0.0335714, "- N/A -   "
2.24, 83.50681, 0.0039291, NaN, NaN, NaN, 0.0323506, "- N/A -   "
2.26, 84.21449, 0.003962425, NaN, NaN, NaN, 0.0323506, "- N/A -   "
2.28, 84.92217, 0.003995746, NaN, NaN, NaN, 0.0335714, "- N/A -   "
2.3, 85.62987, 0.00402629, NaN, NaN, NaN, 0.0335714, "- N/A -   "
2.32, 86.2196, 0.00405961, NaN, NaN, NaN, 0.0347922, "- N/A -   "
2.34, 86.92729, 0.00409016, NaN, NaN, NaN, 0.03601294, "- N/A -   "
2.36, 87.51702, 0.0041207, NaN, NaN, NaN, 0.0372337, "- N/A -   "
2.38, 88.22471, 0.004148467, NaN, NaN, NaN, 0.0384545, "- N/A -   "
2.4, 88.9324, 0.00417901, NaN, NaN, NaN, 0.0396753, "- N/A -   "
2.42, 89.40418, 0.004206779, NaN, NaN, NaN, 0.04211683, "- N/A -   "
2.44, 90.11186, 0.004237323, NaN, NaN, NaN, 0.0433376, "- N/A -   "
2.46, 90.9375, 0.004273421, NaN, NaN, NaN, 0.04211683, "- N/A -   "
2.48, 91.64519, 0.00430952, NaN, NaN, NaN, 0.04211683, "- N/A -   "
2.5, 92.47082, 0.00434284, NaN, NaN, NaN, 0.04089605, "- N/A -   "
2.52, 93.1785, 0.00437894, NaN, NaN, NaN, 0.04089605, "- N/A -   "
2.54, 93.8862, 0.004412259, NaN, NaN, NaN, 0.04089605, "- N/A -   "
2.56, 94.59387, 0.004442803, NaN, NaN, NaN, 0.04089605, "- N/A -   "
2.58, 95.30156, 0.0044789, NaN, NaN, NaN, 0.0396753, "- N/A -   "
2.6, 96.12719, 0.004515, NaN, NaN, NaN, 0.0396753, "- N/A -   "
2.62, 96.95282, 0.0045511, NaN, NaN, NaN, 0.0372337, "- N/A -   "
2.64, 97.6605, 0.004587194, NaN, NaN, NaN, 0.0372337, "- N/A -   "
2.66, 98.4861, 0.004620515, NaN, NaN, NaN, 0.03601294, "- N/A -   "
2.68, 99.0759, 0.004653836, NaN, NaN, NaN, 0.03601294, "- N/A -   "
2.7, 99.9015, 0.004687157, NaN, NaN, NaN, 0.03601294, "- N/A -   "
2.72, 100.6092, 0.00472325, NaN, NaN, NaN, 0.03601294, "- N/A -   "
2.74, 101.435, 0.00475935, NaN, NaN, NaN, 0.0335714, "- N/A -   "
2.76, 102.143, 0.00479545, NaN, NaN, NaN, 0.0335714, "- N/A -   "
2.78, 102.968, 0.004831549, NaN, NaN, NaN, 0.0323506, "- N/A -   "
2.8, 103.676, 0.004862093, NaN, NaN, NaN, 0.0323506, "- N/A -   "
2.82, 104.384, 0.00489541, NaN, NaN, NaN, 0.0323506, "- N/A -   "
2.84, 105.091, 0.004928735, NaN, NaN, NaN, 0.0335714, "- N/A -   "
2.86, 105.681, 0.004959279, NaN, NaN, NaN, 0.0335714, "- N/A -   "
2.88, 106.271, 0.0049926, NaN, NaN, NaN, 0.0347922, "- N/A -   "
2.9, 107.0963, 0.005025921, NaN, NaN, NaN, 0.0335714, "- N/A -   "
2.92, 107.804, 0.00505924, NaN, NaN, NaN, 0.0335714, "- N/A -   "
2.94, 108.512, 0.005092563, NaN, NaN, NaN, 0.0335714, "- N/A -   "
2.96, 109.219, 0.00512588, NaN, NaN, NaN, 0.0335714, "- N/A -   "
2.98, 109.927, 0.00515921, NaN, NaN, NaN, 0.0335714, "- N/A -   "
3, 110.517, 0.00519253, NaN, NaN, NaN, 0.0347922, "- N/A -   "
3.02, 111.224, 0.00522307, NaN, NaN, NaN, 0.0347922, "- N/A -   "
3.04, 111.932, 0.005253615, NaN, NaN, NaN, 0.03601294, "- N/A -   "
3.06, 112.522, 0.00528694, NaN, NaN, NaN, 0.03601294, "- N/A -   "
3.08, 112.994, 0.00531748, NaN, NaN, NaN, 0.0384545, "- N/A -   "
3.1, 113.819, 0.00534802, NaN, NaN, NaN, 0.0384545, "- N/A -   "
3.12, 114.527, 0.00538135, NaN, NaN, NaN, 0.0384545, "- N/A -   "
3.14, 115.117, 0.00541189, NaN, NaN, NaN, 0.0396753, "- N/A -   "
3.16, 115.942, 0.00544521, NaN, NaN, NaN, 0.0396753, "- N/A -   "
3.18, 116.5321, 0.00547853, NaN, NaN, NaN, 0.04089605, "- N/A -   "
3.2, 117.122, 0.00550908, NaN, NaN, NaN, 0.04089605, "- N/A -   "
3.22, 117.712, 0.00553962, NaN, NaN, NaN, 0.0433376, "- N/A -   "
3.24, 118.419, 0.005572941, NaN, NaN, NaN, 0.0433376, "- N/A -   "
3.26, 119.245, 0.00560626, NaN, NaN, NaN, 0.04211683, "- N/A -   "
3.28, 120.071, 0.00564236, NaN, NaN, NaN, 0.04211683, "- N/A -   "
3.3, 120.66, 0.00567568, NaN, NaN, NaN, 0.04089605, "- N/A -   "
3.32, 121.368, 0.005709002, NaN, NaN, NaN, 0.04089605, "- N/A -   "
3.34, 122.312, 0.005747876, NaN, NaN, NaN, 0.0384545, "- N/A -   "
3.36, 123.137, 0.00578953, NaN, NaN, NaN, 0.03601294, "- N/A -   "
3.38, 123.845, 0.00582563, NaN, NaN, NaN, 0.0335714, "- N/A -   "
3.4, 124.67, 0.00586172, NaN, NaN, NaN, 0.0335714, "- N/A -   "
3.42, 125.26, 0.00589504, NaN, NaN, NaN, 0.0323506, "- N/A -   "
3.44, 125.9679, 0.005931142, NaN, NaN, NaN, 0.03112983, "- N/A -   "
3.46, 126.558, 0.00596446, NaN, NaN, NaN, 0.03112983, "- N/A -   "
3.48, 127.265, 0.005997784, NaN, NaN, NaN, 0.03112983, "- N/A -   "
3.5, 127.855, 0.006028328, NaN, NaN, NaN, 0.0323506, "- N/A -   "
3.52, 128.4448, 0.006058872, NaN, NaN, NaN, 0.0335714, "- N/A -   "
3.54, 129.152, 0.00609219, NaN, NaN, NaN, 0.03601294, "- N/A -   "
3.56, 129.86, 0.00612551, NaN, NaN, NaN, 0.0347922, "- N/A -   "
3.58, 130.568, 0.00616439, NaN, NaN, NaN, 0.0335714, "- N/A -   "
3.6, 131.511, 0.006203264, NaN, NaN, NaN, 0.0299091, "- N/A -   "
3.62, 132.219, 0.00623936, NaN, NaN, NaN, 0.0286883, "- N/A -   "
3.64, 132.809, 0.00626991, NaN, NaN, NaN, 0.0299091, "- N/A -   "
3.66, 133.399, 0.006303226, NaN, NaN, NaN, 0.0299091, "- N/A -   "
3.68, 133.988, 0.00633377, NaN, NaN, NaN, 0.03112983, "- N/A -   "
3.7, 134.578, 0.00636432, NaN, NaN, NaN, 0.0323506, "- N/A -   "
3.72, 135.1678, 0.00639486, NaN, NaN, NaN, 0.0335714, "- N/A -   "
3.74, 135.758, 0.00642263, NaN, NaN, NaN, 0.03601294, "- N/A -   "
3.76, 136.229, 0.006453172, NaN, NaN, NaN, 0.0372337, "- N/A -   "
3.78, 136.819, 0.00648094, NaN, NaN, NaN, 0.04089605, "- N/A -   "
3.8, 137.291, 0.006508706, NaN, NaN, NaN, 0.0433376, "- N/A -   "
3.82, 137.8806, 0.006536474, NaN, NaN, NaN, 0.0445584, "- N/A -   "
3.84, 138.47, 0.006567018, NaN, NaN, NaN, 0.04699994, "- N/A -   "
3.86, 139.06, 0.006597562, NaN, NaN, NaN, 0.04699994, "- N/A -   "
3.88, 139.65, 0.00662811, NaN, NaN, NaN, 0.0482207, "- N/A -   "
3.9, 140.24, 0.006661428, NaN, NaN, NaN, 0.0482207, "- N/A -   "
3.92, 141.065, 0.00669753, NaN, NaN, NaN, 0.04699994, "- N/A -   "
3.94, 141.773, 0.006733624, NaN, NaN, NaN, 0.04577916, "- N/A -   "
3.96, 142.5985, 0.006772498, NaN, NaN, NaN, 0.0445584, "- N/A -   "
3.98, 143.424, 0.00681137, NaN, NaN, NaN, 0.04089605, "- N/A -   "
4, 144.132, 0.006850247, NaN, NaN, NaN, 0.0384545, "- N/A -   "
4.02, 144.8395, 0.00688634, NaN, NaN, NaN, 0.0372337, "- N/A -   "
4.04, 145.665, 0.00692522, NaN, NaN, NaN, 0.0347922, "- N/A -   "
4.06, 146.3728, 0.006961317, NaN, NaN, NaN, 0.0335714, "- N/A -   "
4.08, 146.8446, 0.006994638, NaN, NaN, NaN, 0.0335714, "- N/A -   "
4.1, 147.552, 0.00702796, NaN, NaN, NaN, 0.0335714, "- N/A -   "
4.12, 148.26, 0.00706128, NaN, NaN, NaN, 0.0335714, "- N/A -   "
4.14, 148.968, 0.00710015, NaN, NaN, NaN, 0.03112983, "- N/A -   "
4.16, 149.793, 0.00713625, NaN, NaN, NaN, 0.0299091, "- N/A -   "
4.18, 150.265, 0.00717235, NaN, NaN, NaN, 0.0286883, "- N/A -   "
4.2, 150.973, 0.00720567, NaN, NaN, NaN, 0.0286883, "- N/A -   "
4.22, 151.68, 0.00723899, NaN, NaN, NaN, 0.0286883, "- N/A -   "
4.24, 152.27, 0.007272313, NaN, NaN, NaN, 0.0286883, "- N/A -   "
4.26, 152.86, 0.00730563, NaN, NaN, NaN, 0.0286883, "- N/A -   "
4.28, 153.568, 0.007338955, NaN, NaN, NaN, 0.0299091, "- N/A -   "
4.3, 154.2753, 0.007369499, NaN, NaN, NaN, 0.0299091, "- N/A -   "
4.32, 154.629, 0.00740004, NaN, NaN, NaN, 0.03112983, "- N/A -   "
4.34, 155.219, 0.00743059, NaN, NaN, NaN, 0.0335714, "- N/A -   "
4.36, 155.691, 0.00745836, NaN, NaN, NaN, 0.0347922, "- N/A -   "
4.38, 156.162, 0.00748612, NaN, NaN, NaN, 0.0372337, "- N/A -   "
4.4, 156.752, 0.00751944, NaN, NaN, NaN, 0.0384545, "- N/A -   "
4.42, 157.224, 0.007547211, NaN, NaN, NaN, 0.04089605, "- N/A -   "
4.44, 157.696, 0.00757498, NaN, NaN, NaN, 0.04211683, "- N/A -   "
4.46, 158.2855, 0.00760275, NaN, NaN, NaN, 0.0445584, "- N/A -   "
4.48, 158.875, 0.007636067, NaN, NaN, NaN, 0.0445584, "- N/A -   "
4.5, 159.583, 0.007669389, NaN, NaN, NaN, 0.0445584, "- N/A -   "
4.52, 160.173, 0.007702709, NaN, NaN, NaN, 0.0445584, "- N/A -   "
4.54, 160.7624, 0.007736031, NaN, NaN, NaN, 0.0445584, "- N/A -   "
4.56, 161.4701, 0.00776935, NaN, NaN, NaN, 0.0445584, "- N/A -   "
4.58, 162.06, 0.00780267, NaN, NaN, NaN, 0.0445584, "- N/A -   "
4.6, 162.768, 0.007838771, NaN, NaN, NaN, 0.0445584, "- N/A -   "
4.62, 163.357, 0.007872092, NaN, NaN, NaN, 0.0433376, "- N/A -   "
4.64, 164.183, 0.007908189, NaN, NaN, NaN, 0.04211683, "- N/A -   "
4.66, 164.773, 0.007944287, NaN, NaN, NaN, 0.04089605, "- N/A -   "
4.68, 165.362, 0.007980385, NaN, NaN, NaN, 0.0396753, "- N/A -   "
4.7, 166.07, 0.008019259, NaN, NaN, NaN, 0.0384545, "- N/A -   "
4.72, 166.896, 0.008058134, NaN, NaN, NaN, 0.03601294, "- N/A -   "
4.74, 167.603, 0.008097009, NaN, NaN, NaN, 0.0323506, "- N/A -   "
4.76, 168.429, 0.008135883, NaN, NaN, NaN, 0.0299091, "- N/A -   "
4.78, 168.901, 0.008171981, NaN, NaN, NaN, 0.0299091, "- N/A -   "
4.8, 169.608, 0.008205301, NaN, NaN, NaN, 0.0299091, "- N/A -   "
4.82, 170.1982, 0.008238623, NaN, NaN, NaN, 0.0299091, "- N/A -   "
4.84, 170.67, 0.008271944, NaN, NaN, NaN, 0.0299091, "- N/A -   "
4.86, 171.26, 0.008305265, NaN, NaN, NaN, 0.0286883, "- N/A -   "
4.88, 171.849, 0.008335809, NaN, NaN, NaN, 0.0299091, "- N/A -   "
4.9, 172.4392, 0.008366354, NaN, NaN, NaN, 0.03112983, "- N/A -   "
4.92, 173.029, 0.008396897, NaN, NaN, NaN, 0.0323506, "- N/A -   "
4.94, 173.619, 0.008430219, NaN, NaN, NaN, 0.0335714, "- N/A -   "
4.96, 174.09, 0.008460763, NaN, NaN, NaN, 0.0335714, "- N/A -   "
4.98, 174.6802, 0.008494084, NaN, NaN, NaN, 0.0335714, "- N/A -   "
5, 175.152, 0.008524627, NaN, NaN, NaN, 0.0347922, "- N/A -   "
5.02, 175.742, 0.008557949, NaN, NaN, NaN, 0.03601294, "- N/A -   "
5.04, 176.331, 0.008588494, NaN, NaN, NaN, 0.03601294, "- N/A -   "
5.06, 176.9212, 0.008621815, NaN, NaN, NaN, 0.0372337, "- N/A -   "
5.08, 177.393, 0.00865514, NaN, NaN, NaN, 0.03601294, "- N/A -   "
5.1, 178.1007, 0.00868568, NaN, NaN, NaN, 0.0372337, "- N/A -   "
5.12, 178.572, 0.008719001, NaN, NaN, NaN, 0.0384545, "- N/A -   "
5.14, 179.162, 0.008743991, NaN, NaN, NaN, 0.04089605, "- N/A -   "
5.16, 179.634, 0.008774536, NaN, NaN, NaN, 0.04211683, "- N/A -   "
5.18, 180.106, 0.00880786, NaN, NaN, NaN, 0.0433376, "- N/A -   "
5.2, 180.813, 0.008841177, NaN, NaN, NaN, 0.0433376, "- N/A -   "
5.22, 181.285, 0.008868946, NaN, NaN, NaN, 0.0445584, "- N/A -   "
5.24, 181.875, 0.008899489, NaN, NaN, NaN, 0.04577916, "- N/A -   "
5.26, 182.3468, 0.008932811, NaN, NaN, NaN, 0.04577916, "- N/A -   "
5.28, 183.054, 0.008968908, NaN, NaN, NaN, 0.04577916, "- N/A -   "
5.3, 183.762, 0.009002229, NaN, NaN, NaN, 0.0445584, "- N/A -   "
5.32, 184.5878, 0.009043882, NaN, NaN, NaN, 0.04211683, "- N/A -   "
5.34, 185.295, 0.009082756, NaN, NaN, NaN, 0.0384545, "- N/A -   "
5.36, 185.885, 0.009124407, NaN, NaN, NaN, 0.03601294, "- N/A -   "
5.38, 186.593, 0.009160504, NaN, NaN, NaN, 0.0347922, "- N/A -   "
5.4, 187.183, 0.009196602, NaN, NaN, NaN, 0.0323506, "- N/A -   "
5.42, 187.89, 0.0092327, NaN, NaN, NaN, 0.0323506, "- N/A -   "
5.44, 188.48, 0.009268798, NaN, NaN, NaN, 0.0299091, "- N/A -   "
5.46, 189.0698, 0.009304896, NaN, NaN, NaN, 0.0299091, "- N/A -   "
5.48, 189.5416, 0.009332663, NaN, NaN, NaN, 0.03112983, "- N/A -   "
5.5, 190.013, 0.009363208, NaN, NaN, NaN, 0.0323506, "- N/A -   "
5.52, 190.603, 0.009393752, NaN, NaN, NaN, 0.0347922, "- N/A -   "
5.54, 191.075, 0.009424296, NaN, NaN, NaN, 0.03601294, "- N/A -   "
5.56, 191.7826, 0.009457616, NaN, NaN, NaN, 0.03601294, "- N/A -   "
5.58, 192.254, 0.009490938, NaN, NaN, NaN, 0.03601294, "- N/A -   "
5.6, 192.962, 0.009527036, NaN, NaN, NaN, 0.0335714, "- N/A -   "
5.62, 193.5518, 0.009560358, NaN, NaN, NaN, 0.0335714, "- N/A -   "
5.64, 194.142, 0.009593678, NaN, NaN, NaN, 0.0335714, "- N/A -   "
5.66, 194.731, 0.009629776, NaN, NaN, NaN, 0.0335714, "- N/A -   "
5.68, 195.5569, 0.009665874, NaN, NaN, NaN, 0.0323506, "- N/A -   "
5.7, 196.0287, 0.00969642, NaN, NaN, NaN, 0.0323506, "- N/A -   "
5.72, 196.5, 0.009726962, NaN, NaN, NaN, 0.0335714, "- N/A -   "
5.74, 196.972, 0.009754729, NaN, NaN, NaN, 0.03601294, "- N/A -   "
5.76, 197.68, 0.00978805, NaN, NaN, NaN, 0.03601294, "- N/A -   "
5.78, 198.152, 0.009818594, NaN, NaN, NaN, 0.0372337, "- N/A -   "
5.8, 198.624, 0.00984914, NaN, NaN, NaN, 0.0396753, "- N/A -   "
5.82, 199.213, 0.009876906, NaN, NaN, NaN, 0.04089605, "- N/A -   "
5.84, 199.685, 0.00990745, NaN, NaN, NaN, 0.04211683, "- N/A -   "
5.86, 200.275, 0.009940772, NaN, NaN, NaN, 0.04211683, "- N/A -   "
5.88, 200.9825, 0.00997687, NaN, NaN, NaN, 0.04089605, "- N/A -   "
5.9, 201.69, 0.010013, NaN, NaN, NaN, 0.04089605, "- N/A -   "
5.92, 202.28, 0.0100463, NaN, NaN, NaN, 0.0396753, "- N/A -   "
5.94, 202.87, 0.01007961, NaN, NaN, NaN, 0.0396753, "- N/A -   "
5.96, 203.459, 0.01011293, NaN, NaN, NaN, 0.04089605, "- N/A -   "
5.98, 204.049, 0.0101463, NaN, NaN, NaN, 0.04089605, "- N/A -   "
6, 204.639, 0.0101796, NaN, NaN, NaN, 0.0396753, "- N/A -   "
6.02, 205.465, 0.0102184, NaN, NaN, NaN, 0.0372337, "- N/A -   "
6.04, 206.172, 0.0102545, NaN, NaN, NaN, 0.03601294, "- N/A -   "
6.06, 206.644, 0.0102879, NaN, NaN, NaN, 0.0372337, "- N/A -   "
6.08, 207.2337, 0.0103212, NaN, NaN, NaN, 0.03601294, "- N/A -   "
6.1, 207.941, 0.0103545, NaN, NaN, NaN, 0.03601294, "- N/A -   "
6.12, 208.531, 0.0103878, NaN, NaN, NaN, 0.03601294, "- N/A -   "
6.14, 209.121, 0.01042115, NaN, NaN, NaN, 0.03601294, "- N/A -   "
6.16, 209.711, 0.01045447, NaN, NaN, NaN, 0.0372337, "- N/A -   "
6.18, 210.3, 0.0104878, NaN, NaN, NaN, 0.03601294, "- N/A -   "
6.2, 211.008, 0.0105267, NaN, NaN, NaN, 0.0347922, "- N/A -   "
6.22, 211.716, 0.0105628, NaN, NaN, NaN, 0.0335714, "- N/A -   "
6.24, 212.305, 0.0105961, NaN, NaN, NaN, 0.0323506, "- N/A -   "
6.26, 212.895, 0.0106322, NaN, NaN, NaN, 0.03112983, "- N/A -   "
6.28, 213.485, 0.0106655, NaN, NaN, NaN, 0.0323506, "- N/A -   "
6.3, 214.075, 0.0106988, NaN, NaN, NaN, 0.03112983, "- N/A -   "
6.32, 214.782, 0.0107294, NaN, NaN, NaN, 0.0323506, "- N/A -   "
6.34, 215.372, 0.0107655, NaN, NaN, NaN, 0.0323506, "- N/A -   "
6.36, 215.844, 0.010796, NaN, NaN, NaN, 0.0323506, "- N/A -   "
6.38, 216.552, 0.0108293, NaN, NaN, NaN, 0.0323506, "- N/A -   "
6.4, 217.141, 0.0108627, NaN, NaN, NaN, 0.0323506, "- N/A -   "
6.42, 217.613, 0.010896, NaN, NaN, NaN, 0.0323506, "- N/A -   "
6.44, 218.321, 0.0109293, NaN, NaN, NaN, 0.0323506, "- N/A -   "
6.46, 218.793, 0.0109626, NaN, NaN, NaN, 0.0335714, "- N/A -   "
6.48, 219.3823, 0.0109932, NaN, NaN, NaN, 0.0347922, "- N/A -   "
6.5, 219.972, 0.0110209, NaN, NaN, NaN, 0.03601294, "- N/A -   "
6.52, 220.444, 0.0110515, NaN, NaN, NaN, 0.0372337, "- N/A -   "
6.54, 221.034, 0.0110792, NaN, NaN, NaN, 0.0396753, "- N/A -   "
6.56, 221.505, 0.0111126, NaN, NaN, NaN, 0.04089605, "- N/A -   "
6.58, 222.213, 0.0111459, NaN, NaN, NaN, 0.04089605, "- N/A -   "
6.6, 222.685, 0.0111764, NaN, NaN, NaN, 0.04211683, "- N/A -   "
6.62, 223.275, 0.011207, NaN, NaN, NaN, 0.0433376, "- N/A -   "
6.64, 223.8643, 0.0112375, NaN, NaN, NaN, 0.0433376, "- N/A -   "
6.66, 224.572, 0.0112681, NaN, NaN, NaN, 0.0445584, "- N/A -   "
6.68, 225.162, 0.0113014, NaN, NaN, NaN, 0.0445584, "- N/A -   "
6.7, 225.6335, 0.0113347, NaN, NaN, NaN, 0.0445584, "- N/A -   "
6.72, 226.459, 0.0113708, NaN, NaN, NaN, 0.0433376, "- N/A -   "
6.74, 227.167, 0.0114097, NaN, NaN, NaN, 0.04211683, "- N/A -   "
6.76, 227.875, 0.0114458, NaN, NaN, NaN, 0.0396753, "- N/A -   "
6.78, 228.5822, 0.0114846, NaN, NaN, NaN, 0.0372337, "- N/A -   "
6.8, 229.29, 0.0115235, NaN, NaN, NaN, 0.03601294, "- N/A -   "
6.82, 229.998, 0.0115596, NaN, NaN, NaN, 0.0335714, "- N/A -   "
6.84, 230.705, 0.0115957, NaN, NaN, NaN, 0.0335714, "- N/A -   "
6.86, 231.295, 0.011629, NaN, NaN, NaN, 0.0323506, "- N/A -   "
6.88, 231.885, 0.0116624, NaN, NaN, NaN, 0.0323506, "- N/A -   "
6.9, 232.71, 0.0116985, NaN, NaN, NaN, 0.03112983, "- N/A -   "
6.92, 233.3001, 0.0117318, NaN, NaN, NaN, 0.0323506, "- N/A -   "
6.94, 233.772, 0.0117623, NaN, NaN, NaN, 0.0323506, "- N/A -   "
6.96, 234.48, 0.0117984, NaN, NaN, NaN, 0.03112983, "- N/A -   "
6.98, 235.187, 0.0118345, NaN, NaN, NaN, 0.03112983, "- N/A -   "
7, 235.777, 0.0118678, NaN, NaN, NaN, 0.0299091, "- N/A -   "
7.02, 236.367, 0.0119012, NaN, NaN, NaN, 0.0299091, "- N/A -   "
7.04, 237.192, 0.01193448, NaN, NaN, NaN, 0.0299091, "- N/A -   "
7.06, 237.664, 0.0119706, NaN, NaN, NaN, 0.0286883, "- N/A -   "
7.08, 238.372, 0.0120011, NaN, NaN, NaN, 0.0299091, "- N/A -   "
7.1, 238.962, 0.0120344, NaN, NaN, NaN, 0.0299091, "- N/A -   "
7.12, 239.551, 0.012065, NaN, NaN, NaN, 0.03112983, "- N/A -   "
7.14, 240.0231, 0.0120955, NaN, NaN, NaN, 0.0323506, "- N/A -   "
7.16, 240.495, 0.0121233, NaN, NaN, NaN, 0.0347922, "- N/A -   "
7.18, 240.967, 0.0121511, NaN, NaN, NaN, 0.0384545, "- N/A -   "
7.2, 241.438, 0.0121788, NaN, NaN, NaN, 0.04089605, "- N/A -   "
7.22, 242.028, 0.0122038, NaN, NaN, NaN, 0.0433376, "- N/A -   "
7.24, 242.5, 0.0122344, NaN, NaN, NaN, 0.04577916, "- N/A -   "
7.26, 243.089, 0.0122649, NaN, NaN, NaN, 0.04699994, "- N/A -   "
7.28, 243.7961, 0.0122982, NaN, NaN, NaN, 0.04577916, "- N/A -   "
7.3, 244.385, 0.0123316, NaN, NaN, NaN, 0.04699994, "- N/A -   "
7.32, 245.092, 0.0123677, NaN, NaN, NaN, 0.04577916, "- N/A -   "
7.34, 245.799, 0.0124038, NaN, NaN, NaN, 0.0445584, "- N/A -   "
7.36, 246.506, 0.0124398, NaN, NaN, NaN, 0.04211683, "- N/A -   "
7.38, 247.213, 0.0124787, NaN, NaN, NaN, 0.04089605, "- N/A -   "
7.4, 247.92, 0.0125148, NaN, NaN, NaN, 0.0384545, "- N/A -   "
7.42, 248.745, 0.0125509, NaN, NaN, NaN, 0.0384545, "- N/A -   "
7.44, 249.334, 0.012587, NaN, NaN, NaN, 0.03601294, "- N/A -   "
7.46, 250.041, 0.0126231, NaN, NaN, NaN, 0.0347922, "- N/A -   "
7.48, 250.63, 0.0126592, NaN, NaN, NaN, 0.0347922, "- N/A -   "
7.5, 251.337, 0.0126925, NaN, NaN, NaN, 0.0347922, "- N/A -   "
7.52, 251.926, 0.0127286, NaN, NaN, NaN, 0.0335714, "- N/A -   "
7.54, 252.633, 0.012762, NaN, NaN, NaN, 0.0323506, "- N/A -   "
7.56, 253.34, 0.0128008, NaN, NaN, NaN, 0.0299091, "- N/A -   "
7.58, 254.047, 0.0128369, NaN, NaN, NaN, 0.0286883, "- N/A -   "
7.6, 254.7539, 0.0128702, NaN, NaN, NaN, 0.0286883, "- N/A -   "
7.62, 255.225, 0.0129036, NaN, NaN, NaN, 0.0286883, "- N/A -   "
7.64, 255.932, 0.0129369, NaN, NaN, NaN, 0.0286883, "- N/A -   "
7.66, 256.5213, 0.0129702, NaN, NaN, NaN, 0.0286883, "- N/A -   "
7.68, 257.228, 0.01300353, NaN, NaN, NaN, 0.0286883, "- N/A -   "
7.7, 257.817, 0.01303685, NaN, NaN, NaN, 0.0299091, "- N/A -   "
7.72, 258.407, 0.0130674, NaN, NaN, NaN, 0.0299091, "- N/A -   "
7.74, 259.113, 0.0131007, NaN, NaN, NaN, 0.0299091, "- N/A -   "
7.76, 259.585, 0.0131285, NaN, NaN, NaN, 0.0323506, "- N/A -   "
7.78, 260.292, 0.0131618, NaN, NaN, NaN, 0.0335714, "- N/A -   "
7.8, 260.6452, 0.0131896, NaN, NaN, NaN, 0.0347922, "- N/A -   "
7.82, 261.117, 0.01321734, NaN, NaN, NaN, 0.0372337, "- N/A -   "
7.84, 261.8235, 0.0132451, NaN, NaN, NaN, 0.0396753, "- N/A -   "
7.86, 262.295, 0.01327565, NaN, NaN, NaN, 0.04089605, "- N/A -   "
7.88, 262.8839, 0.0133062, NaN, NaN, NaN, 0.04211683, "- N/A -   "
7.9, 263.591, 0.0133395, NaN, NaN, NaN, 0.04211683, "- N/A -   "
7.92, 264.18, 0.0133728, NaN, NaN, NaN, 0.04211683, "- N/A -   "
7.94, 264.769, 0.0134034, NaN, NaN, NaN, 0.0433376, "- N/A -   "
7.96, 265.476, 0.0134367, NaN, NaN, NaN, 0.0433376, "- N/A -   "
7.98, 266.065, 0.0134672, NaN, NaN, NaN, 0.0445584, "- N/A -   "
8, 266.537, 0.01349779, NaN, NaN, NaN, 0.04699994, "- N/A -   "
8.02, 267.243, 0.0135311, NaN, NaN, NaN, 0.04699994, "- N/A -   "
8.04, 267.95, 0.0135644, NaN, NaN, NaN, 0.04577916, "- N/A -   "
8.06, 268.657, 0.0136005, NaN, NaN, NaN, 0.04577916, "- N/A -   "
8.08, 269.482, 0.0136394, NaN, NaN, NaN, 0.0445584, "- N/A -   "
8.1, 270.189, 0.0136783, NaN, NaN, NaN, 0.04089605, "- N/A -   "
8.12, 270.8961, 0.0137144, NaN, NaN, NaN, 0.0396753, "- N/A -   "
8.14, 271.603, 0.0137533, NaN, NaN, NaN, 0.0372337, "- N/A -   "
8.16, 272.428, 0.0137949, NaN, NaN, NaN, 0.0347922, "- N/A -   "
8.18, 273.253, 0.0138338, NaN, NaN, NaN, 0.0323506, "- N/A -   "
8.2, 273.96, 0.0138699, NaN, NaN, NaN, 0.0299091, "- N/A -   "
8.22, 274.667, 0.0139032, NaN, NaN, NaN, 0.0299091, "- N/A -   "
8.24, 275.256, 0.0139393, NaN, NaN, NaN, 0.0286883, "- N/A -   "
8.26, 275.8448, 0.0139726, NaN, NaN, NaN, 0.0286883, "- N/A -   "
8.28, 276.552, 0.0140059, NaN, NaN, NaN, 0.0286883, "- N/A -   "
8.3, 277.2587, 0.0140393, NaN, NaN, NaN, 0.0286883, "- N/A -   "
8.32, 277.73, 0.0140726, NaN, NaN, NaN, 0.0286883, "- N/A -   "
8.34, 278.437, 0.0141003, NaN, NaN, NaN, 0.03112983, "- N/A -   "
8.36, 279.0261, 0.0141337, NaN, NaN, NaN, 0.0323506, "- N/A -   "
8.38, 279.733, 0.0141642, NaN, NaN, NaN, 0.0323506, "- N/A -   "
8.4, 280.322, 0.014192, NaN, NaN, NaN, 0.0347922, "- N/A -   "
8.42, 280.676, 0.0142197, NaN, NaN, NaN, 0.0372337, "- N/A -   "
8.44, 281.2648, 0.0142503, NaN, NaN, NaN, 0.0384545, "- N/A -   "
8.46, 281.972, 0.0142836, NaN, NaN, NaN, 0.0384545, "- N/A -   "
8.48, 282.6787, 0.0143197, NaN, NaN, NaN, 0.0384545, "- N/A -   "
8.5, 283.386, 0.01435303, NaN, NaN, NaN, 0.0372337, "- N/A -   "
8.52, 283.9748, 0.0143836, NaN, NaN, NaN, 0.0384545, "- N/A -   "
8.54, 284.682, 0.0144169, NaN, NaN, NaN, 0.0384545, "- N/A -   "
8.56, 285.271, 0.01444744, NaN, NaN, NaN, 0.0396753, "- N/A -   "
8.58, 285.86, 0.014478, NaN, NaN, NaN, 0.04211683, "- N/A -   "
8.6, 286.3313, 0.0145058, NaN, NaN, NaN, 0.0433376, "- N/A -   "
8.62, 287.038, 0.0145363, NaN, NaN, NaN, 0.0445584, "- N/A -   "
8.64, 287.51, 0.0145668, NaN, NaN, NaN, 0.04577916, "- N/A -   "
8.66, 288.0987, 0.0146002, NaN, NaN, NaN, 0.04577916, "- N/A -   "
8.68, 288.806, 0.0146335, NaN, NaN, NaN, 0.04577916, "- N/A -   "
8.7, 289.748, 0.0146724, NaN, NaN, NaN, 0.0433376, "- N/A -   "
8.72, 290.573, 0.014714, NaN, NaN, NaN, 0.0396753, "- N/A -   "
8.74, 291.516, 0.0147584, NaN, NaN, NaN, 0.03601294, "- N/A -   "
8.76, 292.34, 0.0147973, NaN, NaN, NaN, 0.0323506, "- N/A -   "
8.78, 292.93, 0.0148362, NaN, NaN, NaN, 0.03112983, "- N/A -   "
8.8, 293.637, 0.0148723, NaN, NaN, NaN, 0.0286883, "- N/A -   "
8.82, 294.4613, 0.0149056, NaN, NaN, NaN, 0.0286883, "- N/A -   "
8.84, 295.05, 0.0149389, NaN, NaN, NaN, 0.0286883, "- N/A -   "
8.86, 295.6396, 0.0149695, NaN, NaN, NaN, 0.0299091, "- N/A -   "
8.87, 295.993, 0.0149834, NaN, NaN, NaN, 0.03112983, "- N/A -   "
8.88, 296.2287, 0.015, NaN, NaN, NaN, 0.0323506, "- N/A -   "
8.89, 296.464, 0.0150139, NaN, NaN, NaN, 0.0323506, "- N/A -   "
8.92, 297.407, 0.0150611, NaN, NaN, NaN, 0.0347922, "- N/A -   "
8.95, 298.232, 0.0151055, NaN, NaN, NaN, 0.03601294, "- N/A -   "
8.98, 299.174, 0.0151527, NaN, NaN, NaN, 0.0372337, "- N/A -   "
9.01, 300.117, 0.01519994, NaN, NaN, NaN, 0.0384545, "- N/A -   "
9.04, 301.295, 0.0152555, NaN, NaN, NaN, 0.0372337, "- N/A -   "
9.07, 302.473, 0.01531101, NaN, NaN, NaN, 0.0335714, "- N/A -   "
9.1, 303.416, 0.015361, NaN, NaN, NaN, 0.0335714, "- N/A -   "
9.13, 304.241, 0.0154054, NaN, NaN, NaN, 0.0372337, "- N/A -   "
9.16, 305.183, 0.0154498, NaN, NaN, NaN, 0.0396753, "- N/A -   "
9.19, 306.1261, 0.0154998, NaN, NaN, NaN, 0.0396753, "- N/A -   "
9.22, 307.187, 0.0155443, NaN, NaN, NaN, 0.04089605, "- N/A -   "
9.25, 308.011, 0.0155915, NaN, NaN, NaN, 0.04211683, "- N/A -   "
9.28, 309.19, 0.01564422, NaN, NaN, NaN, 0.04089605, "- N/A -   "
9.31, 310.132, 0.015697, NaN, NaN, NaN, 0.0396753, "- N/A -   "
9.34, 311.31, 0.0157497, NaN, NaN, NaN, 0.0384545, "- N/A -   "
9.37, 312.253, 0.0157969, NaN, NaN, NaN, 0.0396753, "- N/A -   "
9.4, 313.313, 0.0158497, NaN, NaN, NaN, 0.0384545, "- N/A -   "
9.43, 314.492, 0.0159052, NaN, NaN, NaN, 0.03601294, "- N/A -   "
9.46, 315.434, 0.0159552, NaN, NaN, NaN, 0.0372337, "- N/A -   "
9.49, 316.495, 0.0160052, NaN, NaN, NaN, 0.03601294, "- N/A -   "
9.52, 317.5552, 0.016058, NaN, NaN, NaN, 0.03601294, "- N/A -   "
9.55, 318.498, 0.0161052, NaN, NaN, NaN, 0.03601294, "- N/A -   "
9.58, 319.558, 0.0161551, NaN, NaN, NaN, 0.03601294, "- N/A -   "
9.61, 320.619, 0.0162079, NaN, NaN, NaN, 0.03601294, "- N/A -   "
9.64, 321.679, 0.01626066, NaN, NaN, NaN, 0.0335714, "- N/A -   "
9.67, 322.622, 0.01631064, NaN, NaN, NaN, 0.0347922, "- N/A -   "
9.7, 323.6822, 0.0163606, NaN, NaN, NaN, 0.0335714, "- N/A -   "
9.73, 324.7426, 0.01641338, NaN, NaN, NaN, 0.0323506, "- N/A -   "
9.76, 325.685, 0.0164606, NaN, NaN, NaN, 0.0335714, "- N/A -   "
9.79, 326.51, 0.016505, NaN, NaN, NaN, 0.03601294, "- N/A -   "
9.82, 327.57, 0.016555, NaN, NaN, NaN, 0.0372337, "- N/A -   "
9.85, 328.631, 0.0166022, NaN, NaN, NaN, 0.0372337, "- N/A -   "
9.88, 329.6913, 0.016655, NaN, NaN, NaN, 0.03601294, "- N/A -   "
9.91, 330.752, 0.01670494, NaN, NaN, NaN, 0.03601294, "- N/A -   "
9.94, 331.694, 0.0167521, NaN, NaN, NaN, 0.0384545, "- N/A -   "
9.97, 332.7548, 0.01679935, NaN, NaN, NaN, 0.0384545, "- N/A -   "
10, 333.58, 0.0168466, NaN, NaN, NaN, 0.04089605, "- N/A -   "
10.03, 334.404, 0.016891, NaN, NaN, NaN, 0.0433376, "- N/A -   "
10.06, 335.5826, 0.016941, NaN, NaN, NaN, 0.0433376, "- N/A -   "
10.09, 336.643, 0.0169909, NaN, NaN, NaN, 0.0433376, "- N/A -   "
10.12, 337.7035, 0.0170437, NaN, NaN, NaN, 0.04211683, "- N/A -   "
10.15, 338.764, 0.0170965, NaN, NaN, NaN, 0.04089605, "- N/A -   "
10.18, 339.942, 0.01715755, NaN, NaN, NaN, 0.03601294, "- N/A -   "
10.21, 341.238, 0.0172159, NaN, NaN, NaN, 0.0323506, "- N/A -   "
10.24, 342.299, 0.0172658, NaN, NaN, NaN, 0.03112983, "- N/A -   "
10.27, 343.2413, 0.017313, NaN, NaN, NaN, 0.0335714, "- N/A -   "
10.3, 344.1839, 0.0173603, NaN, NaN, NaN, 0.0335714, "- N/A -   "
10.33, 345.127, 0.0174102, NaN, NaN, NaN, 0.0335714, "- N/A -   "
10.36, 346.069, 0.0174574, NaN, NaN, NaN, 0.0347922, "- N/A -   "
10.39, 347.247, 0.0175102, NaN, NaN, NaN, 0.0347922, "- N/A -   "
10.42, 348.5435, 0.01756851, NaN, NaN, NaN, 0.03112983, "- N/A -   "
10.45, 349.6039, 0.017624, NaN, NaN, NaN, 0.0286883, "- N/A -   "
10.48, 350.664, 0.01767125, NaN, NaN, NaN, 0.0299091, "- N/A -   "
10.51, 351.489, 0.0177157, NaN, NaN, NaN, 0.03112983, "- N/A -   "
10.54, 352.432, 0.01776288, NaN, NaN, NaN, 0.0323506, "- N/A -   "
10.57, 353.374, 0.0178101, NaN, NaN, NaN, 0.0335714, "- N/A -   "
10.6, 354.317, 0.0178517, NaN, NaN, NaN, 0.0372337, "- N/A -   "
10.63, 355.142, 0.0178962, NaN, NaN, NaN, 0.04089605, "- N/A -   "
10.66, 355.967, 0.0179406, NaN, NaN, NaN, 0.0433376, "- N/A -   "
10.69, 357.027, 0.017985, NaN, NaN, NaN, 0.0445584, "- N/A -   "
10.72, 357.97, 0.0180322, NaN, NaN, NaN, 0.04577916, "- N/A -   "
10.75, 359.03, 0.018085, NaN, NaN, NaN, 0.04577916, "- N/A -   "
10.78, 360.4439, 0.0181433, NaN, NaN, NaN, 0.04089605, "- N/A -   "
10.81, 361.504, 0.0181988, NaN, NaN, NaN, 0.0384545, "- N/A -   "
10.84, 362.5648, 0.01825159, NaN, NaN, NaN, 0.0372337, "- N/A -   "
10.87, 363.743, 0.0183071, NaN, NaN, NaN, 0.03601294, "- N/A -   "
10.9, 364.8035, 0.0183599, NaN, NaN, NaN, 0.0347922, "- N/A -   "
10.93, 365.982, 0.0184099, NaN, NaN, NaN, 0.0335714, "- N/A -   "
10.96, 367.042, 0.0184626, NaN, NaN, NaN, 0.0323506, "- N/A -   "
10.99, 368.22, 0.0185154, NaN, NaN, NaN, 0.03112983, "- N/A -   "
11.02, 369.3987, 0.01856814, NaN, NaN, NaN, 0.0299091, "- N/A -   "
11.05, 370.3413, 0.0186153, NaN, NaN, NaN, 0.03112983, "- N/A -   "
11.08, 371.52, 0.01867088, NaN, NaN, NaN, 0.0299091, "- N/A -   "
11.11, 372.4622, 0.0187181, NaN, NaN, NaN, 0.0299091, "- N/A -   "
11.14, 373.5226, 0.0187681, NaN, NaN, NaN, 0.0299091, "- N/A -   "
11.17, 374.465, 0.0188125, NaN, NaN, NaN, 0.0335714, "- N/A -   "
11.2, 375.172, 0.0188541, NaN, NaN, NaN, 0.03601294, "- N/A -   "
11.23, 376.1148, 0.0188986, NaN, NaN, NaN, 0.0384545, "- N/A -   "
11.26, 377.057, 0.0189402, NaN, NaN, NaN, 0.04211683, "- N/A -   "
11.29, 378.0, 0.01898743, NaN, NaN, NaN, 0.0433376, "- N/A -   "
11.32, 379.06, 0.0190402, NaN, NaN, NaN, 0.0433376, "- N/A -   "
11.35, 380.2387, 0.01909017, NaN, NaN, NaN, 0.04211683, "- N/A -   "
11.38, 381.1813, 0.01914015, NaN, NaN, NaN, 0.04211683, "- N/A -   "
11.41, 382.242, 0.0191874, NaN, NaN, NaN, 0.0433376, "- N/A -   "
11.44, 383.184, 0.0192346, NaN, NaN, NaN, 0.0445584, "- N/A -   "
11.47, 384.3626, 0.0192901, NaN, NaN, NaN, 0.0433376, "- N/A -   "
11.5, 385.6587, 0.01934563, NaN, NaN, NaN, 0.0396753, "- N/A -   "
11.53, 386.837, 0.0194039, NaN, NaN, NaN, 0.0372337, "- N/A -   "
11.56, 388.2509, 0.0194678, NaN, NaN, NaN, 0.03112983, "- N/A -   "
11.59, 389.4291, 0.0195233, NaN, NaN, NaN, 0.0274675, "- N/A -   "
11.62, 390.725, 0.0195761, NaN, NaN, NaN, 0.0262467, "- N/A -   "
11.65, 391.55, 0.0196233, NaN, NaN, NaN, 0.0274675, "- N/A -   "
11.68, 392.61, 0.0196733, NaN, NaN, NaN, 0.0274675, "- N/A -   "
11.71, 393.671, 0.01972049, NaN, NaN, NaN, 0.0286883, "- N/A -   "
11.74, 394.613, 0.0197677, NaN, NaN, NaN, 0.0299091, "- N/A -   "
11.77, 395.674, 0.0198121, NaN, NaN, NaN, 0.0335714, "- N/A -   "
11.8, 396.499, 0.0198566, NaN, NaN, NaN, 0.0347922, "- N/A -   "
11.83, 397.677, 0.0199065, NaN, NaN, NaN, 0.03601294, "- N/A -   "
11.86, 398.62, 0.0199565, NaN, NaN, NaN, 0.0347922, "- N/A -   "
11.89, 399.68, 0.0200037, NaN, NaN, NaN, 0.03601294, "- N/A -   "
11.92, 400.74, 0.0200537, NaN, NaN, NaN, 0.0372337, "- N/A -   "
11.95, 401.801, 0.0201009, NaN, NaN, NaN, 0.0384545, "- N/A -   "
11.98, 402.743, 0.0201453, NaN, NaN, NaN, 0.0396753, "- N/A -   "
12.01, 403.568, 0.0201898, NaN, NaN, NaN, 0.04211683, "- N/A -   "
12.04, 404.747, 0.0202397, NaN, NaN, NaN, 0.04211683, "- N/A -   "
12.07, 405.689, 0.02028695, NaN, NaN, NaN, 0.0433376, "- N/A -   "
12.1, 406.75, 0.02033693, NaN, NaN, NaN, 0.0445584, "- N/A -   "
12.13, 408.046, 0.0203897, NaN, NaN, NaN, 0.0433376, "- N/A -   "
12.16, 409.2239, 0.020448, NaN, NaN, NaN, 0.0384545, "- N/A -   "
12.19, 410.638, 0.0205063, NaN, NaN, NaN, 0.0347922, "- N/A -   "
12.22, 412.052, 0.0205646, NaN, NaN, NaN, 0.03112983, "- N/A -   "
12.25, 413.112, 0.0206202, NaN, NaN, NaN, 0.0286883, "- N/A -   "
12.28, 414.29, 0.02067014, NaN, NaN, NaN, 0.0286883, "- N/A -   "
12.31, 415.1152, 0.02071179, NaN, NaN, NaN, 0.0323506, "- N/A -   "
12.34, 415.94, 0.020759, NaN, NaN, NaN, 0.0335714, "- N/A -   "
12.37, 417, 0.0208062, NaN, NaN, NaN, 0.0347922, "- N/A -   "
12.4, 418.2965, 0.0208562, NaN, NaN, NaN, 0.03601294, "- N/A -   "
12.43, 419.357, 0.02090894, NaN, NaN, NaN, 0.0347922, "- N/A -   "
12.46, 420.4174, 0.0209589, NaN, NaN, NaN, 0.0335714, "- N/A -   "
12.49, 421.713, 0.0210145, NaN, NaN, NaN, 0.0323506, "- N/A -   "
12.52, 422.892, 0.0210644, NaN, NaN, NaN, 0.0323506, "- N/A -   "
12.55, 423.834, 0.0211116, NaN, NaN, NaN, 0.0335714, "- N/A -   "
12.58, 424.8948, 0.0211561, NaN, NaN, NaN, 0.0372337, "- N/A -   "
12.61, 425.72, 0.0211949, NaN, NaN, NaN, 0.04089605, "- N/A -   "
12.64, 426.662, 0.0212422, NaN, NaN, NaN, 0.04211683, "- N/A -   "
12.67, 427.7226, 0.0212894, NaN, NaN, NaN, 0.0445584, "- N/A -   "
12.7, 428.901, 0.0213421, NaN, NaN, NaN, 0.04211683, "- N/A -   "
12.73, 430.079, 0.0213949, NaN, NaN, NaN, 0.04089605, "- N/A -   "
12.76, 431.14, 0.02144763, NaN, NaN, NaN, 0.04089605, "- N/A -   "
12.79, 432.2, 0.0214948, NaN, NaN, NaN, 0.04089605, "- N/A -   "
12.82, 433.378, 0.0215448, NaN, NaN, NaN, 0.04089605, "- N/A -   "
12.85, 434.4387, 0.0216004, NaN, NaN, NaN, 0.0396753, "- N/A -   "
12.88, 435.735, 0.02165311, NaN, NaN, NaN, 0.0372337, "- N/A -   "
12.91, 436.7952, 0.02170309, NaN, NaN, NaN, 0.0372337, "- N/A -   "
12.94, 437.973, 0.02175585, NaN, NaN, NaN, 0.03601294, "- N/A -   "
12.97, 439.152, 0.0218086, NaN, NaN, NaN, 0.0347922, "- N/A -   "
13, 440.33, 0.0218614, NaN, NaN, NaN, 0.0335714, "- N/A -   "
[...]
17.92, 632.7271, 0.0300722, NaN, NaN, NaN, 0.0299091, "- N/A -   "
17.95, 633.9099, 0.0301222, NaN, NaN, NaN, 0.0286883, "- N/A -   "
17.98, 635.0927, 0.0301666, NaN, NaN, NaN, 0.03112983, "- N/A -   "
18.01, 636.039, 0.0302083, NaN, NaN, NaN, 0.0347922, "- N/A -   "
18.04, 637.103, 0.03025271, NaN, NaN, NaN, 0.0384545, "- N/A -   "
18.07, 638.168, 0.0302971, NaN, NaN, NaN, 0.0396753, "- N/A -   "
18.1, 639.233, 0.0303443, NaN, NaN, NaN, 0.04211683, "- N/A -   "
18.13, 640.2971, 0.0303888, NaN, NaN, NaN, 0.0433376, "- N/A -   "
18.16, 641.598, 0.030436, NaN, NaN, NaN, 0.0445584, "- N/A -   "
18.19, 642.781, 0.030486, NaN, NaN, NaN, 0.0445584, "- N/A -   "
18.22, 644.2003, 0.0305359, NaN, NaN, NaN, 0.0445584, "- N/A -   "
18.25, 645.3832, 0.0305887, NaN, NaN, NaN, 0.0445584, "- N/A -   "
18.28, 646.6842, 0.0306415, NaN, NaN, NaN, 0.04211683, "- N/A -   "
18.31, 648.3402, 0.0306998, NaN, NaN, NaN, 0.0384545, "- N/A -   "
18.34, 649.641, 0.0307553, NaN, NaN, NaN, 0.03601294, "- N/A -   "
18.37, 651.061, 0.0308108, NaN, NaN, NaN, 0.0347922, "- N/A -   "
18.4, 652.48, 0.0308636, NaN, NaN, NaN, 0.0323506, "- N/A -   "
18.43, 653.899, 0.0309219, NaN, NaN, NaN, 0.0299091, "- N/A -   "
18.46, 655.2, 0.0309719, NaN, NaN, NaN, 0.0286883, "- N/A -   "
18.49, 656.5015, 0.0310219, NaN, NaN, NaN, 0.0286883, "- N/A -   "
18.52, 657.6843, 0.0310719, NaN, NaN, NaN, 0.0286883, "- N/A -   "
18.55, 658.9855, 0.0311218, NaN, NaN, NaN, 0.0286883, "- N/A -   "
18.58, 660.0499, 0.0311663, NaN, NaN, NaN, 0.03112983, "- N/A -   "
18.61, 661.2328, 0.0312107, NaN, NaN, NaN, 0.0335714, "- N/A -   "
18.64, 662.4156, 0.0312607, NaN, NaN, NaN, 0.0335714, "- N/A -   "
18.67, 663.7167, 0.03131065, NaN, NaN, NaN, 0.0347922, "- N/A -   "
18.7, 664.8995, 0.03135508, NaN, NaN, NaN, 0.03601294, "- N/A -   "
18.73, 666.0823, 0.0314051, NaN, NaN, NaN, 0.0372337, "- N/A -   "
18.76, 667.2651, 0.0314495, NaN, NaN, NaN, 0.0384545, "- N/A -   "
18.79, 668.4479, 0.03149947, NaN, NaN, NaN, 0.0396753, "- N/A -   "
18.82, 669.631, 0.0315439, NaN, NaN, NaN, 0.04089605, "- N/A -   "
18.85, 670.695, 0.0315883, NaN, NaN, NaN, 0.0433376, "- N/A -   "
18.88, 671.878, 0.03163831, NaN, NaN, NaN, 0.0445584, "- N/A -   "
18.91, 673.179, 0.03168829, NaN, NaN, NaN, 0.0445584, "- N/A -   "
18.94, 674.7168, 0.03174105, NaN, NaN, NaN, 0.0433376, "- N/A -   "
18.97, 676.1361, 0.0317966, NaN, NaN, NaN, 0.0396753, "- N/A -   "
19, 677.6738, 0.0318549, NaN, NaN, NaN, 0.0372337, "- N/A -   "
19.03, 678.975, 0.0319077, NaN, NaN, NaN, 0.03601294, "- N/A -   "
19.06, 680.276, 0.0319604, NaN, NaN, NaN, 0.0335714, "- N/A -   "
19.09, 681.6953, 0.03201317, NaN, NaN, NaN, 0.0323506, "- N/A -   "
19.12, 682.996, 0.0320632, NaN, NaN, NaN, 0.0335714, "- N/A -   "
19.15, 684.061, 0.03210758, NaN, NaN, NaN, 0.0347922, "- N/A -   "
19.18, 685.2438, 0.03215201, NaN, NaN, NaN, 0.0372337, "- N/A -   "
19.21, 686.4266, 0.03220199, NaN, NaN, NaN, 0.0384545, "- N/A -   "
19.24, 687.7277, 0.0322492, NaN, NaN, NaN, 0.0384545, "- N/A -   "
19.27, 689.029, 0.032302, NaN, NaN, NaN, 0.0384545, "- N/A -   "
19.3, 690.5664, 0.0323575, NaN, NaN, NaN, 0.03601294, "- N/A -   "
19.33, 691.8675, 0.0324102, NaN, NaN, NaN, 0.0335714, "- N/A -   "
19.36, 693.1686, 0.0324602, NaN, NaN, NaN, 0.0335714, "- N/A -   "
19.39, 694.3514, 0.03251021, NaN, NaN, NaN, 0.0335714, "- N/A -   "
19.42, 695.416, 0.03255186, NaN, NaN, NaN, 0.0372337, "- N/A -   "
19.45, 696.599, 0.0325991, NaN, NaN, NaN, 0.0384545, "- N/A -   "
19.48, 698.0181, 0.0326463, NaN, NaN, NaN, 0.0396753, "- N/A -   "
19.51, 699.2009, 0.03269625, NaN, NaN, NaN, 0.04089605, "- N/A -   "
19.54, 700.502, 0.03274901, NaN, NaN, NaN, 0.0396753, "- N/A -   "
19.57, 701.6848, 0.0327962, NaN, NaN, NaN, 0.0396753, "- N/A -   "
19.6, 702.8677, 0.0328434, NaN, NaN, NaN, 0.04089605, "- N/A -   "
19.63, 704.4053, 0.032899, NaN, NaN, NaN, 0.0384545, "- N/A -   "
19.66, 705.7064, 0.0329517, NaN, NaN, NaN, 0.0372337, "- N/A -   "
19.69, 707.007, 0.0330045, NaN, NaN, NaN, 0.03601294, "- N/A -   "
19.72, 708.1903, 0.0330517, NaN, NaN, NaN, 0.0372337, "- N/A -   "
19.75, 709.491, 0.03310166, NaN, NaN, NaN, 0.0372337, "- N/A -   "
19.78, 710.6742, 0.03315164, NaN, NaN, NaN, 0.0372337, "- N/A -   "
19.81, 712.0935, 0.0332044, NaN, NaN, NaN, 0.0372337, "- N/A -   "
19.84, 713.395, 0.0332544, NaN, NaN, NaN, 0.03601294, "- N/A -   "
19.87, 714.932, 0.0333099, NaN, NaN, NaN, 0.0335714, "- N/A -   "
19.9, 716.2334, 0.03336267, NaN, NaN, NaN, 0.0323506, "- N/A -   "
19.93, 717.6527, 0.03341543, NaN, NaN, NaN, 0.03112983, "- N/A -   "
19.96, 718.954, 0.0334654, NaN, NaN, NaN, 0.03112983, "- N/A -   "
19.99, 720.2549, 0.0335154, NaN, NaN, NaN, 0.03112983, "- N/A -   "
20.02, 721.438, 0.0335626, NaN, NaN, NaN, 0.0323506, "- N/A -   "
20.05, 722.502, 0.0336098, NaN, NaN, NaN, 0.0335714, "- N/A -   "
20.08, 723.922, 0.0336626, NaN, NaN, NaN, 0.0323506, "- N/A -   "
20.11, 725.341, 0.0337153, NaN, NaN, NaN, 0.03112983, "- N/A -   "
20.14, 726.5238, 0.03375975, NaN, NaN, NaN, 0.0347922, "- N/A -   "
20.17, 727.5883, 0.03380418, NaN, NaN, NaN, 0.03601294, "- N/A -   "
20.2, 728.7712, 0.03385138, NaN, NaN, NaN, 0.0372337, "- N/A -   "
20.23, 729.9539, 0.0338986, NaN, NaN, NaN, 0.0384545, "- N/A -   "
20.26, 731.018, 0.033943, NaN, NaN, NaN, 0.04089605, "- N/A -   "
20.29, 732.3196, 0.03399022, NaN, NaN, NaN, 0.0433376, "- N/A -   "
20.32, 733.6206, 0.0340374, NaN, NaN, NaN, 0.0433376, "- N/A -   "
20.35, 734.922, 0.03409018, NaN, NaN, NaN, 0.04211683, "- N/A -   "
20.38, 736.341, 0.0341402, NaN, NaN, NaN, 0.04211683, "- N/A -   "
20.41, 737.7605, 0.0341957, NaN, NaN, NaN, 0.0396753, "- N/A -   "
20.44, 739.416, 0.03425401, NaN, NaN, NaN, 0.03601294, "- N/A -   "
20.47, 740.717, 0.03430677, NaN, NaN, NaN, 0.0347922, "- N/A -   "
20.5, 742.0186, 0.0343595, NaN, NaN, NaN, 0.0347922, "- N/A -   "
20.53, 743.32, 0.0344067, NaN, NaN, NaN, 0.03601294, "- N/A -   "
20.56, 744.3842, 0.0344539, NaN, NaN, NaN, 0.03601294, "- N/A -   "
20.59, 745.6853, 0.03450114, NaN, NaN, NaN, 0.0372337, "- N/A -   "
20.62, 747.223, 0.0345567, NaN, NaN, NaN, 0.0347922, "- N/A -   "
20.65, 748.524, 0.0346122, NaN, NaN, NaN, 0.0323506, "- N/A -   "
20.68, 750.0617, 0.0346677, NaN, NaN, NaN, 0.03112983, "- N/A -   "
20.71, 751.363, 0.0347177, NaN, NaN, NaN, 0.0299091, "- N/A -   "
20.74, 752.6639, 0.03476771, NaN, NaN, NaN, 0.0299091, "- N/A -   "
20.77, 753.965, 0.0348177, NaN, NaN, NaN, 0.0299091, "- N/A -   "
20.8, 755.0295, 0.03486212, NaN, NaN, NaN, 0.0323506, "- N/A -   "
20.83, 755.9757, 0.0348982, NaN, NaN, NaN, 0.0384545, "- N/A -   "
20.86, 757.0402, 0.03494264, NaN, NaN, NaN, 0.04089605, "- N/A -   "
20.89, 758.2231, 0.0349871, NaN, NaN, NaN, 0.0433376, "- N/A -   "
20.92, 759.2876, 0.0350315, NaN, NaN, NaN, 0.04577916, "- N/A -   "
20.95, 760.5887, 0.0350787, NaN, NaN, NaN, 0.04699994, "- N/A -   "
20.98, 762.008, 0.0351287, NaN, NaN, NaN, 0.04699994, "- N/A -   "
21.01, 763.4274, 0.0351842, NaN, NaN, NaN, 0.0445584, "- N/A -   "
21.04, 765.0833, 0.0352481, NaN, NaN, NaN, 0.0384545, "- N/A -   "
21.07, 766.621, 0.0353036, NaN, NaN, NaN, 0.03601294, "- N/A -   "
21.1, 768.1587, 0.03535916, NaN, NaN, NaN, 0.0335714, "- N/A -   "
21.13, 769.4597, 0.0354119, NaN, NaN, NaN, 0.0335714, "- N/A -   "
21.16, 770.6426, 0.03545912, NaN, NaN, NaN, 0.0335714, "- N/A -   "
21.19, 772.0619, 0.0355119, NaN, NaN, NaN, 0.0323506, "- N/A -   "
21.22, 773.5996, 0.03557019, NaN, NaN, NaN, 0.0299091, "- N/A -   "
21.25, 775.1372, 0.0356257, NaN, NaN, NaN, 0.0262467, "- N/A -   "
21.28, 776.438, 0.0356785, NaN, NaN, NaN, 0.0262467, "- N/A -   "
21.31, 777.6211, 0.0357257, NaN, NaN, NaN, 0.0274675, "- N/A -   "
21.34, 778.922, 0.0357729, NaN, NaN, NaN, 0.0274675, "- N/A -   "
21.37, 780.105, 0.0358201, NaN, NaN, NaN, 0.0286883, "- N/A -   "
21.4, 781.17, 0.03586453, NaN, NaN, NaN, 0.03112983, "- N/A -   "
21.43, 782.2341, 0.035909, NaN, NaN, NaN, 0.0347922, "- N/A -   "
21.46, 783.2986, 0.0359506, NaN, NaN, NaN, 0.0384545, "- N/A -   "
21.49, 784.5997, 0.035995, NaN, NaN, NaN, 0.04089605, "- N/A -   "
21.52, 785.6642, 0.03603946, NaN, NaN, NaN, 0.0433376, "- N/A -   "
21.55, 786.965, 0.0360867, NaN, NaN, NaN, 0.0445584, "- N/A -   "
21.58, 788.385, 0.03613665, NaN, NaN, NaN, 0.0433376, "- N/A -   "
21.61, 789.8041, 0.0361922, NaN, NaN, NaN, 0.04211683, "- N/A -   "
21.64, 790.9868, 0.03623939, NaN, NaN, NaN, 0.0445584, "- N/A -   "
21.67, 792.288, 0.0362866, NaN, NaN, NaN, 0.0445584, "- N/A -   "
21.7, 793.7073, 0.03634213, NaN, NaN, NaN, 0.0433376, "- N/A -   "
21.73, 795.1267, 0.0363949, NaN, NaN, NaN, 0.04089605, "- N/A -   "
21.76, 796.664, 0.0364532, NaN, NaN, NaN, 0.0384545, "- N/A -   "
21.79, 798.202, 0.03650873, NaN, NaN, NaN, 0.0347922, "- N/A -   "
21.82, 799.6214, 0.03656427, NaN, NaN, NaN, 0.0323506, "- N/A -   "
21.85, 801.0407, 0.036617, NaN, NaN, NaN, 0.03112983, "- N/A -   "
21.88, 802.2236, 0.036667, NaN, NaN, NaN, 0.0323506, "- N/A -   "
21.91, 803.6429, 0.03671699, NaN, NaN, NaN, 0.03112983, "- N/A -   "
21.94, 804.944, 0.03676697, NaN, NaN, NaN, 0.03112983, "- N/A -   "
21.97, 806.1268, 0.0368114, NaN, NaN, NaN, 0.0335714, "- N/A -   "
22, 807.31, 0.0368586, NaN, NaN, NaN, 0.03601294, "- N/A -   "
22.03, 808.6107, 0.03690303, NaN, NaN, NaN, 0.0372337, "- N/A -   "
22.06, 809.7935, 0.0369502, NaN, NaN, NaN, 0.0384545, "- N/A -   "
22.09, 811.2129, 0.0370002, NaN, NaN, NaN, 0.0384545, "- N/A -   "
22.12, 812.514, 0.0370558, NaN, NaN, NaN, 0.0372337, "- N/A -   "
22.15, 813.933, 0.037103, NaN, NaN, NaN, 0.0372337, "- N/A -   "
22.18, 815.234, 0.03715294, NaN, NaN, NaN, 0.0372337, "- N/A -   "
22.21, 816.299, 0.03719459, NaN, NaN, NaN, 0.04211683, "- N/A -   "
22.24, 817.3635, 0.03723624, NaN, NaN, NaN, 0.0445584, "- N/A -   "
22.27, 818.665, 0.0372834, NaN, NaN, NaN, 0.04577916, "- N/A -   "
22.3, 820.084, 0.0373362, NaN, NaN, NaN, 0.04577916, "- N/A -   "
22.33, 821.2667, 0.0373862, NaN, NaN, NaN, 0.04577916, "- N/A -   "
22.36, 822.686, 0.0374389, NaN, NaN, NaN, 0.0445584, "- N/A -   "
22.39, 824.342, 0.0375, NaN, NaN, NaN, 0.0384545, "- N/A -   "
22.42, 826.1163, 0.0375611, NaN, NaN, NaN, 0.0335714, "- N/A -   "
22.45, 827.5356, 0.0376194, NaN, NaN, NaN, 0.0299091, "- N/A -   "
22.48, 828.955, 0.03767219, NaN, NaN, NaN, 0.0286883, "- N/A -   "
22.51, 830.256, 0.0377222, NaN, NaN, NaN, 0.0286883, "- N/A -   "
22.54, 831.3206, 0.0377666, NaN, NaN, NaN, 0.03112983, "- N/A -   "
22.57, 832.5034, 0.03781103, NaN, NaN, NaN, 0.0335714, "- N/A -   "
22.6, 833.805, 0.0378582, NaN, NaN, NaN, 0.03601294, "- N/A -   "
22.63, 834.9873, 0.03790544, NaN, NaN, NaN, 0.0372337, "- N/A -   "
22.66, 836.407, 0.03795542, NaN, NaN, NaN, 0.03601294, "- N/A -   "
22.69, 837.944, 0.038011, NaN, NaN, NaN, 0.0335714, "- N/A -   "
22.72, 839.2454, 0.0380637, NaN, NaN, NaN, 0.0323506, "- N/A -   "
22.75, 840.7831, 0.03811647, NaN, NaN, NaN, 0.0323506, "- N/A -   "
22.78, 841.9659, 0.0381637, NaN, NaN, NaN, 0.0335714, "- N/A -   "
22.81, 843.1487, 0.0382053, NaN, NaN, NaN, 0.03601294, "- N/A -   "
22.84, 844.213, 0.0382525, NaN, NaN, NaN, 0.0384545, "- N/A -   "
22.87, 845.2778, 0.0382942, NaN, NaN, NaN, 0.04089605, "- N/A -   "
22.9, 846.579, 0.0383414, NaN, NaN, NaN, 0.04211683, "- N/A -   "
22.93, 847.88, 0.03839137, NaN, NaN, NaN, 0.04211683, "- N/A -   "
22.96, 849.2993, 0.0384441, NaN, NaN, NaN, 0.04211683, "- N/A -   "
22.99, 850.4821, 0.03849411, NaN, NaN, NaN, 0.04211683, "- N/A -   "
23.02, 851.9015, 0.0385441, NaN, NaN, NaN, 0.04089605, "- N/A -   "
23.05, 853.321, 0.0385969, NaN, NaN, NaN, 0.04089605, "- N/A -   "
23.08, 854.74, 0.0386524, NaN, NaN, NaN, 0.0384545, "- N/A -   "
23.11, 856.278, 0.0387051, NaN, NaN, NaN, 0.03601294, "- N/A -   "
23.14, 857.579, 0.03875513, NaN, NaN, NaN, 0.03601294, "- N/A -   "
23.17, 858.9983, 0.0388079, NaN, NaN, NaN, 0.03601294, "- N/A -   "
23.2, 860.299, 0.03885509, NaN, NaN, NaN, 0.03601294, "- N/A -   "
23.23, 861.7188, 0.03890785, NaN, NaN, NaN, 0.0347922, "- N/A -   "
23.26, 863.1382, 0.0389606, NaN, NaN, NaN, 0.0335714, "- N/A -   "
23.29, 864.558, 0.0390134, NaN, NaN, NaN, 0.0323506, "- N/A -   "
23.32, 865.74, 0.03906057, NaN, NaN, NaN, 0.0335714, "- N/A -   "
23.35, 866.8049, 0.03910222, NaN, NaN, NaN, 0.0372337, "- N/A -   "
23.38, 868.106, 0.03914943, NaN, NaN, NaN, 0.0384545, "- N/A -   "
23.41, 869.407, 0.03919941, NaN, NaN, NaN, 0.0384545, "- N/A -   "
23.44, 870.7081, 0.03924939, NaN, NaN, NaN, 0.0384545, "- N/A -   "
23.47, 872.0092, 0.03929937, NaN, NaN, NaN, 0.0384545, "- N/A -   "
23.5, 873.4286, 0.0393549, NaN, NaN, NaN, 0.03601294, "- N/A -   "
23.53, 874.848, 0.0394077, NaN, NaN, NaN, 0.0347922, "- N/A -   "
23.56, 876.267, 0.0394549, NaN, NaN, NaN, 0.03601294, "- N/A -   "
23.59, 877.4502, 0.0395021, NaN, NaN, NaN, 0.0372337, "- N/A -   "
23.62, 878.633, 0.03954928, NaN, NaN, NaN, 0.0396753, "- N/A -   "
23.65, 879.9341, 0.0395965, NaN, NaN, NaN, 0.0396753, "- N/A -   "
23.68, 880.9986, 0.03964091, NaN, NaN, NaN, 0.04211683, "- N/A -   "
23.71, 882.181, 0.0396881, NaN, NaN, NaN, 0.0433376, "- N/A -   "
23.74, 883.837, 0.03974087, NaN, NaN, NaN, 0.04211683, "- N/A -   "
23.77, 885.2567, 0.0397936, NaN, NaN, NaN, 0.04089605, "- N/A -   "
23.8, 886.676, 0.0398492, NaN, NaN, NaN, 0.0384545, "- N/A -   "
23.83, 888.214, 0.0399103, NaN, NaN, NaN, 0.0335714, "- N/A -   "
23.86, 889.751, 0.0399658, NaN, NaN, NaN, 0.03112983, "- N/A -   "
23.89, 891.289, 0.04001855, NaN, NaN, NaN, 0.0299091, "- N/A -   "
23.92, 892.4718, 0.0400685, NaN, NaN, NaN, 0.0299091, "- N/A -   "
23.95, 893.773, 0.0401157, NaN, NaN, NaN, 0.03112983, "- N/A -   "
23.98, 894.9557, 0.0401602, NaN, NaN, NaN, 0.0335714, "- N/A -   "
24.01, 896.257, 0.04021292, NaN, NaN, NaN, 0.0335714, "- N/A -   "
24.04, 897.676, 0.0402657, NaN, NaN, NaN, 0.03112983, "- N/A -   "
24.07, 899.2138, 0.04032399, NaN, NaN, NaN, 0.0274675, "- N/A -   "
24.1, 900.751, 0.04037675, NaN, NaN, NaN, 0.0262467, "- N/A -   "
24.13, 901.934, 0.040424, NaN, NaN, NaN, 0.0286883, "- N/A -   "
24.16, 902.9988, 0.0404684, NaN, NaN, NaN, 0.0299091, "- N/A -   "
24.19, 904.182, 0.04051, NaN, NaN, NaN, 0.0335714, "- N/A -   "
24.22, 905.246, 0.04055169, NaN, NaN, NaN, 0.0372337, "- N/A -   "
24.25, 906.3107, 0.0405933, NaN, NaN, NaN, 0.04089605, "- N/A -   "
24.28, 907.3752, 0.0406378, NaN, NaN, NaN, 0.0433376, "- N/A -   "
24.31, 908.558, 0.0406822, NaN, NaN, NaN, 0.04699994, "- N/A -   "
24.34, 909.859, 0.0407294, NaN, NaN, NaN, 0.0482207, "- N/A -   "
24.37, 911.16, 0.0407766, NaN, NaN, NaN, 0.0482207, "- N/A -   "
24.4, 912.5796, 0.04082936, NaN, NaN, NaN, 0.04699994, "- N/A -   "
24.43, 914.236, 0.0408877, NaN, NaN, NaN, 0.0433376, "- N/A -   "
24.46, 915.537, 0.0409404, NaN, NaN, NaN, 0.04211683, "- N/A -   "
24.49, 917.3108, 0.0410015, NaN, NaN, NaN, 0.0372337, "- N/A -   "
24.52, 918.848, 0.0410598, NaN, NaN, NaN, 0.0347922, "- N/A -   "
24.55, 920.15, 0.04111259, NaN, NaN, NaN, 0.0323506, "- N/A -   "
24.58, 921.4506, 0.04116257, NaN, NaN, NaN, 0.0323506, "- N/A -   "
24.61, 922.7517, 0.0412098, NaN, NaN, NaN, 0.0335714, "- N/A -   "
24.64, 924.1711, 0.04126531, NaN, NaN, NaN, 0.0323506, "- N/A -   "
24.67, 925.709, 0.04131807, NaN, NaN, NaN, 0.0299091, "- N/A -   "
24.7, 926.8916, 0.0413653, NaN, NaN, NaN, 0.03112983, "- N/A -   "
24.73, 928.3109, 0.0414153, NaN, NaN, NaN, 0.03112983, "- N/A -   "
24.76, 929.612, 0.04146246, NaN, NaN, NaN, 0.0323506, "- N/A -   "
24.79, 930.7948, 0.0415124, NaN, NaN, NaN, 0.0323506, "- N/A -   "
24.82, 931.9776, 0.04155687, NaN, NaN, NaN, 0.0347922, "- N/A -   "
24.85, 933.16, 0.0416013, NaN, NaN, NaN, 0.0372337, "- N/A -   "
24.88, 934.2249, 0.0416457, NaN, NaN, NaN, 0.0396753, "- N/A -   "
24.91, 935.526, 0.0416929, NaN, NaN, NaN, 0.04089605, "- N/A -   "
24.94, 936.5906, 0.04173458, NaN, NaN, NaN, 0.0445584, "- N/A -   "
24.97, 937.892, 0.0417846, NaN, NaN, NaN, 0.0445584, "- N/A -   "
25, 939.4293, 0.04183732, NaN, NaN, NaN, 0.0445584, "- N/A -   "
25.03, 940.6121, 0.0418873, NaN, NaN, NaN, 0.0433376, "- N/A -   "
25.06, 942.0315, 0.04194284, NaN, NaN, NaN, 0.04211683, "- N/A -   "
25.09, 943.3326, 0.04199, NaN, NaN, NaN, 0.04211683, "- N/A -   "
25.12, 944.8702, 0.0420428, NaN, NaN, NaN, 0.04211683, "- N/A -   "
25.15, 946.2896, 0.04209556, NaN, NaN, NaN, 0.04089605, "- N/A -   "
25.18, 947.8273, 0.04215387, NaN, NaN, NaN, 0.0372337, "- N/A -   "
25.21, 949.601, 0.04221496, NaN, NaN, NaN, 0.03112983, "- N/A -   "
25.24, 951.139, 0.04227605, NaN, NaN, NaN, 0.0262467, "- N/A -   "
25.27, 952.5585, 0.04232881, NaN, NaN, NaN, 0.0250259, "- N/A -   "
25.3, 953.86, 0.04237601, NaN, NaN, NaN, 0.0262467, "- N/A -   "
25.33, 955.042, 0.0424204, NaN, NaN, NaN, 0.0286883, "- N/A -   "
25.36, 956.107, 0.0424676, NaN, NaN, NaN, 0.0299091, "- N/A -   "
25.39, 957.526, 0.0425176, NaN, NaN, NaN, 0.0299091, "- N/A -   "
25.42, 958.9457, 0.0425648, NaN, NaN, NaN, 0.03112983, "- N/A -   "
25.45, 960.1284, 0.04261204, NaN, NaN, NaN, 0.0323506, "- N/A -   "
25.48, 961.548, 0.042662, NaN, NaN, NaN, 0.0323506, "- N/A -   "
25.51, 962.8489, 0.042712, NaN, NaN, NaN, 0.0323506, "- N/A -   "
25.54, 964.032, 0.0427592, NaN, NaN, NaN, 0.0335714, "- N/A -   "
25.57, 965.3328, 0.04280919, NaN, NaN, NaN, 0.0335714, "- N/A -   "
25.6, 966.5156, 0.0428508, NaN, NaN, NaN, 0.0384545, "- N/A -   "
25.63, 967.462, 0.04289249, NaN, NaN, NaN, 0.04211683, "- N/A -   "
25.66, 968.763, 0.0429397, NaN, NaN, NaN, 0.04211683, "- N/A -   "
25.69, 970.064, 0.0429869, NaN, NaN, NaN, 0.0445584, "- N/A -   "
25.72, 971.2469, 0.0430341, NaN, NaN, NaN, 0.0445584, "- N/A -   "
25.75, 972.7845, 0.04308686, NaN, NaN, NaN, 0.0445584, "- N/A -   "
25.78, 974.2039, 0.0431396, NaN, NaN, NaN, 0.04211683, "- N/A -   "
25.81, 975.7415, 0.04319793, NaN, NaN, NaN, 0.0396753, "- N/A -   "
25.84, 977.2792, 0.04325069, NaN, NaN, NaN, 0.0372337, "- N/A -   "
25.87, 978.817, 0.043309, NaN, NaN, NaN, 0.0347922, "- N/A -   "
25.9, 980.2362, 0.0433645, NaN, NaN, NaN, 0.0323506, "- N/A -   "
25.93, 981.6556, 0.04341452, NaN, NaN, NaN, 0.0323506, "- N/A -   "
25.96, 982.7201, 0.0434589, NaN, NaN, NaN, 0.0335714, "- N/A -   "
25.99, 984.0212, 0.04350615, NaN, NaN, NaN, 0.0347922, "- N/A -   "
26.02, 985.322, 0.0435534, NaN, NaN, NaN, 0.03601294, "- N/A -   "
26.05, 986.623, 0.04360056, NaN, NaN, NaN, 0.0372337, "- N/A -   "
26.08, 987.924, 0.0436561, NaN, NaN, NaN, 0.03601294, "- N/A -   "
26.11, 989.3438, 0.0437089, NaN, NaN, NaN, 0.0335714, "- N/A -   "
26.14, 990.8815, 0.04376439, NaN, NaN, NaN, 0.0323506, "- N/A -   "
26.17, 992.1826, 0.0438116, NaN, NaN, NaN, 0.0335714, "- N/A -   "
26.2, 993.484, 0.0438588, NaN, NaN, NaN, 0.0347922, "- N/A -   "
26.23, 994.6665, 0.043906, NaN, NaN, NaN, 0.03601294, "- N/A -   "
26.26, 995.9675, 0.0439504, NaN, NaN, NaN, 0.0384545, "- N/A -   "
26.29, 996.914, 0.04399208, NaN, NaN, NaN, 0.04211683, "- N/A -   "
26.32, 998.3332, 0.0440421, NaN, NaN, NaN, 0.04211683, "- N/A -   "
26.35, 999.7525, 0.04409482, NaN, NaN, NaN, 0.04089605, "- N/A -   "
26.38, 1001.05, 0.0441476, NaN, NaN, NaN, 0.0396753, "- N/A -   "
26.41, 1002.473, 0.04419756, NaN, NaN, NaN, 0.0396753, "- N/A -   "
26.44, 1004.13, 0.0442531, NaN, NaN, NaN, 0.0384545, "- N/A -   "
26.47, 1005.43, 0.0443059, NaN, NaN, NaN, 0.03601294, "- N/A -   "
26.5, 1006.73, 0.04435584, NaN, NaN, NaN, 0.0372337, "- N/A -   "
26.53, 1008.03, 0.044403, NaN, NaN, NaN, 0.0372337, "- N/A -   "
26.56, 1009.33, 0.0444502, NaN, NaN, NaN, 0.0384545, "- N/A -   "
26.59, 1010.75, 0.044503, NaN, NaN, NaN, 0.0372337, "- N/A -   "
26.62, 1012.05, 0.04455298, NaN, NaN, NaN, 0.0372337, "- N/A -   "
26.65, 1013.477, 0.04460852, NaN, NaN, NaN, 0.0347922, "- N/A -   "
26.68, 1015.15, 0.04466683, NaN, NaN, NaN, 0.0323506, "- N/A -   "
26.71, 1016.34, 0.044714, NaN, NaN, NaN, 0.0323506, "- N/A -   "
26.74, 1017.77, 0.0447612, NaN, NaN, NaN, 0.0335714, "- N/A -   "
26.77, 1019.2, 0.044814, NaN, NaN, NaN, 0.0335714, "- N/A -   "
26.8, 1020.51, 0.04486398, NaN, NaN, NaN, 0.0323506, "- N/A -   "
26.83, 1021.82, 0.044914, NaN, NaN, NaN, 0.0323506, "- N/A -   "