File: 2_Tensile_Data/Hamel_ForceTest_Bolt8_Test5.csv
Time, Load (lb), Position (in), AxialStrain (in), TransverseStrain (in), Auxiliary (), Control Out (V), Stress (psi)
0.0, 1.53332, 0.0, NaN, NaN, NaN, 0.101935, "- N/A -   "
0.01, 2.005107, 3.054427E-5, NaN, NaN, NaN, 0.1092596, "- N/A -   "
0.02, 2.83074, 5.83118e-05, NaN, NaN, NaN, 0.112922, "- N/A -   "
0.03, 3.53842, 8.885606E-5, NaN, NaN, NaN, 0.106818, "- N/A -   "
0.04, 4.010214, 0.0001194, NaN, NaN, NaN, 0.100714, "- N/A -   "
0.05, 4.717899, 1.499446E-4, NaN, NaN, NaN, 0.095831, "- N/A -   "
0.06, 5.425584, 0.000180489, NaN, NaN, NaN, 0.0897272, "- N/A -   "
0.07, 6.13327, 0.000211033, NaN, NaN, NaN, 0.08362327, "- N/A -   "
0.08, 6.84095, 2.415774E-4, NaN, NaN, NaN, 0.07751938, "- N/A -   "
0.09, 7.430691, 0.000269345, NaN, NaN, NaN, 0.07141549, "- N/A -   "
0.1, 8.020428, 0.000294336, NaN, NaN, NaN, 0.06775316, "- N/A -   "
0.11, 8.610166, 3.221032E-4, NaN, NaN, NaN, 0.06287005, "- N/A -   "
0.12, 9.081955, 0.000347094, NaN, NaN, NaN, 0.0592077, "- N/A -   "
0.13, 9.671693, 0.000372085, NaN, NaN, NaN, 0.05676616, "- N/A -   "
0.14, 10.0255, 0.000394299, NaN, NaN, NaN, 0.0531038, "- N/A -   "
0.15, 10.6153, 4.192895E-4, NaN, NaN, NaN, 0.05066227, "- N/A -   "
0.16, 10.9691, 4.387268E-4, NaN, NaN, NaN, 0.0482207, "- N/A -   "
0.17, 11.4409, 4.609408E-4, NaN, NaN, NaN, 0.04699994, "- N/A -   "
0.18, 11.7947, 0.000480378, NaN, NaN, NaN, 0.0445584, "- N/A -   "
0.19, 12.2665, 0.000502592, NaN, NaN, NaN, 0.04211683, "- N/A -   "
0.2, 12.7383, 0.000522029, NaN, NaN, NaN, 0.04211683, "- N/A -   "
0.21, 13.09217, 5.414666E-4, NaN, NaN, NaN, 0.0396753, "- N/A -   "
0.22, 13.564, 0.000560904, NaN, NaN, NaN, 0.0396753, "- N/A -   "
0.23, 13.7999, 0.000580341, NaN, NaN, NaN, 0.0384545, "- N/A -   "
0.24, 14.2716, 0.000597002, NaN, NaN, NaN, 0.0372337, "- N/A -   "
0.25, 14.5075, 6.164389E-4, NaN, NaN, NaN, 0.03601294, "- N/A -   "
0.26, 15.2152, 0.000635876, NaN, NaN, NaN, 0.0347922, "- N/A -   "
0.27, 15.4511, 0.000655313, NaN, NaN, NaN, 0.0335714, "- N/A -   "
0.28, 15.805, 6.747507E-4, NaN, NaN, NaN, 0.0323506, "- N/A -   "
0.29, 16.1588, 0.000694188, NaN, NaN, NaN, 0.0323506, "- N/A -   "
0.3, 16.6306, 7.080717E-4, NaN, NaN, NaN, 0.0323506, "- N/A -   "
0.31, 16.86649, 7.27509E-4, NaN, NaN, NaN, 0.0323506, "- N/A -   "
0.33, 17.5742, 0.000758053, NaN, NaN, NaN, 0.0323506, "- N/A -   "
0.35, 18.16391, 0.000791374, NaN, NaN, NaN, 0.0323506, "- N/A -   "
0.37, 18.8716, 0.000821919, NaN, NaN, NaN, 0.0335714, "- N/A -   "
0.39, 19.3434, 0.000849686, NaN, NaN, NaN, 0.0372337, "- N/A -   "
0.41, 19.8152, 8.746768E-4, NaN, NaN, NaN, 0.0396753, "- N/A -   "
0.43, 20.4049, 0.000902444, NaN, NaN, NaN, 0.04211683, "- N/A -   "
0.45, 20.99465, 9.329886E-4, NaN, NaN, NaN, 0.0445584, "- N/A -   "
0.47, 21.5844, 0.000960756, NaN, NaN, NaN, 0.04577916, "- N/A -   "
0.49, 22.1741, 9.940772E-4, NaN, NaN, NaN, 0.04577916, "- N/A -   "
0.51, 22.9998, 0.0010274, NaN, NaN, NaN, 0.04577916, "- N/A -   "
0.53, 23.7074, 0.00106072, NaN, NaN, NaN, 0.04577916, "- N/A -   "
0.55, 24.29718, 0.00109126, NaN, NaN, NaN, 0.04699994, "- N/A -   "
0.57, 25.0049, 0.00112736, NaN, NaN, NaN, 0.04699994, "- N/A -   "
0.59, 25.7125, 0.001163459, NaN, NaN, NaN, 0.0445584, "- N/A -   "
0.61, 26.5382, 0.00120233, NaN, NaN, NaN, 0.04211683, "- N/A -   "
0.63, 27.3638, 0.001241208, NaN, NaN, NaN, 0.0396753, "- N/A -   "
0.65, 28.1894, 0.00128008, NaN, NaN, NaN, 0.0372337, "- N/A -   "
0.67, 28.89713, 0.0013134, NaN, NaN, NaN, 0.0372337, "- N/A -   "
0.69, 29.4869, 0.00134672, NaN, NaN, NaN, 0.0372337, "- N/A -   "
0.71, 30.3125, 0.00138282, NaN, NaN, NaN, 0.0372337, "- N/A -   "
0.73, 30.9022, 0.00141892, NaN, NaN, NaN, 0.0347922, "- N/A -   "
0.75, 31.72787, 0.001455018, NaN, NaN, NaN, 0.0335714, "- N/A -   "
0.77, 32.4356, 0.00149112, NaN, NaN, NaN, 0.0323506, "- N/A -   "
0.79, 33.02529, 0.00152166, NaN, NaN, NaN, 0.0335714, "- N/A -   "
0.81, 33.73298, 0.00155776, NaN, NaN, NaN, 0.0335714, "- N/A -   "
0.83, 34.55861, 0.00159663, NaN, NaN, NaN, 0.0299091, "- N/A -   "
0.85, 35.3842, 0.00163273, NaN, NaN, NaN, 0.0286883, "- N/A -   "
0.87, 36.0919, 0.00166883, NaN, NaN, NaN, 0.0274675, "- N/A -   "
0.89, 36.6817, 0.00170215, NaN, NaN, NaN, 0.0274675, "- N/A -   "
0.91, 37.3893, 0.00173269, NaN, NaN, NaN, 0.0286883, "- N/A -   "
0.93, 37.9791, 0.00176324, NaN, NaN, NaN, 0.0299091, "- N/A -   "
0.95, 38.68677, 0.00179656, NaN, NaN, NaN, 0.03112983, "- N/A -   "
0.97, 39.3945, 0.0018271, NaN, NaN, NaN, 0.03112983, "- N/A -   "
0.99, 39.98419, 0.001857647, NaN, NaN, NaN, 0.0323506, "- N/A -   "
1.01, 40.57393, 0.00188819, NaN, NaN, NaN, 0.0335714, "- N/A -   "
1.03, 41.16367, 0.00191596, NaN, NaN, NaN, 0.03601294, "- N/A -   "
1.05, 41.7534, 0.0019465, NaN, NaN, NaN, 0.0372337, "- N/A -   "
1.07, 42.3431, 0.00197705, NaN, NaN, NaN, 0.0384545, "- N/A -   "
1.09, 42.93288, 0.00200481, NaN, NaN, NaN, 0.04089605, "- N/A -   "
1.11, 43.5226, 0.00203536, NaN, NaN, NaN, 0.0433376, "- N/A -   "
1.13, 44.2303, 0.0020659, NaN, NaN, NaN, 0.0445584, "- N/A -   "
1.15, 44.93799, 0.00209645, NaN, NaN, NaN, 0.0445584, "- N/A -   "
1.17, 45.6457, 0.00212977, NaN, NaN, NaN, 0.0445584, "- N/A -   "
1.19, 46.3534, 0.00216309, NaN, NaN, NaN, 0.0445584, "- N/A -   "
1.21, 46.9431, 0.00219641, NaN, NaN, NaN, 0.0445584, "- N/A -   "
1.23, 47.65078, 0.002226955, NaN, NaN, NaN, 0.04577916, "- N/A -   "
1.25, 48.3585, 0.002260276, NaN, NaN, NaN, 0.04699994, "- N/A -   "
1.27, 49.0661, 0.002293597, NaN, NaN, NaN, 0.04699994, "- N/A -   "
1.29, 49.7738, 0.00232969, NaN, NaN, NaN, 0.04577916, "- N/A -   "
1.31, 50.5995, 0.00236579, NaN, NaN, NaN, 0.0433376, "- N/A -   "
1.33, 51.4251, 0.002404667, NaN, NaN, NaN, 0.04089605, "- N/A -   "
1.35, 52.1328, 0.002440765, NaN, NaN, NaN, 0.0396753, "- N/A -   "
1.37, 52.9584, 0.00247964, NaN, NaN, NaN, 0.0384545, "- N/A -   "
1.39, 53.902, 0.002518514, NaN, NaN, NaN, 0.0347922, "- N/A -   "
1.41, 54.7276, 0.00255739, NaN, NaN, NaN, 0.0323506, "- N/A -   "
1.43, 55.43531, 0.002596263, NaN, NaN, NaN, 0.03112983, "- N/A -   "
1.45, 56.2609, 0.00262681, NaN, NaN, NaN, 0.03112983, "- N/A -   "
1.47, 56.85068, 0.002662905, NaN, NaN, NaN, 0.03112983, "- N/A -   "
1.49, 57.6763, 0.00269623, NaN, NaN, NaN, 0.0299091, "- N/A -   "
1.51, 58.384, 0.00272955, NaN, NaN, NaN, 0.0299091, "- N/A -   "
1.53, 58.9737, 0.00276009, NaN, NaN, NaN, 0.03112983, "- N/A -   "
1.55, 59.5635, 0.00279064, NaN, NaN, NaN, 0.0323506, "- N/A -   "
1.57, 60.3891, 0.00282396, NaN, NaN, NaN, 0.0335714, "- N/A -   "
1.59, 60.97884, 0.002854501, NaN, NaN, NaN, 0.0335714, "- N/A -   "
1.61, 61.56858, 0.00288505, NaN, NaN, NaN, 0.0347922, "- N/A -   "
1.63, 62.2763, 0.00291281, NaN, NaN, NaN, 0.0372337, "- N/A -   "
1.65, 62.98395, 0.00294613, NaN, NaN, NaN, 0.0372337, "- N/A -   "
1.67, 63.6916, 0.00297945, NaN, NaN, NaN, 0.0384545, "- N/A -   "
1.69, 64.3993, 0.003012776, NaN, NaN, NaN, 0.0372337, "- N/A -   "
1.71, 65.22495, 0.00304887, NaN, NaN, NaN, 0.03601294, "- N/A -   "
1.73, 65.81469, 0.00308497, NaN, NaN, NaN, 0.0347922, "- N/A -   "
1.75, 66.64032, 0.00311829, NaN, NaN, NaN, 0.0347922, "- N/A -   "
1.77, 67.23006, 0.00314884, NaN, NaN, NaN, 0.0372337, "- N/A -   "
1.79, 67.9377, 0.0031766, NaN, NaN, NaN, 0.0384545, "- N/A -   "
1.81, 68.52748, 0.00320437, NaN, NaN, NaN, 0.04089605, "- N/A -   "
1.83, 69.11722, 0.003234916, NaN, NaN, NaN, 0.04211683, "- N/A -   "
1.85, 69.8249, 0.00326546, NaN, NaN, NaN, 0.0445584, "- N/A -   "
1.87, 70.5326, 0.003296, NaN, NaN, NaN, 0.0445584, "- N/A -   "
1.89, 71.24027, 0.00332933, NaN, NaN, NaN, 0.0445584, "- N/A -   "
1.91, 71.94796, 0.00336265, NaN, NaN, NaN, 0.0445584, "- N/A -   "
1.93, 72.77359, 0.00339597, NaN, NaN, NaN, 0.0445584, "- N/A -   "
1.95, 73.59922, 0.00343484, NaN, NaN, NaN, 0.04211683, "- N/A -   "
1.97, 74.5428, 0.00347372, NaN, NaN, NaN, 0.0396753, "- N/A -   "
1.99, 75.36844, 0.00351537, NaN, NaN, NaN, 0.0372337, "- N/A -   "
2.01, 76.31202, 0.00355424, NaN, NaN, NaN, 0.0335714, "- N/A -   "
2.03, 77.0197, 0.00359312, NaN, NaN, NaN, 0.0323506, "- N/A -   "
2.05, 77.84533, 0.00362644, NaN, NaN, NaN, 0.0323506, "- N/A -   "
2.07, 78.55301, 0.00366254, NaN, NaN, NaN, 0.03112983, "- N/A -   "
2.09, 79.37865, 0.00369863, NaN, NaN, NaN, 0.0299091, "- N/A -   "
2.11, 79.96838, 0.00373195, NaN, NaN, NaN, 0.0299091, "- N/A -   "
2.13, 80.67606, 0.003759722, NaN, NaN, NaN, 0.03112983, "- N/A -   "
2.15, 81.26581, 0.00379027, NaN, NaN, NaN, 0.0323506, "- N/A -   "
2.17, 81.8555, 0.00382081, NaN, NaN, NaN, 0.0335714, "- N/A -   "
2.19, 82.56323, 0.00385135, NaN, NaN, NaN, 0.0347922, "- N/A -   "
2.21, 83.15297, 0.003881899, NaN, NaN, NaN, 0.03601294, "- N/A -   "
2.23, 83.9786, 0.00391522, NaN, NaN, NaN, 0.03601294, "- N/A -   "
2.25, 84.68629, 0.003951318, NaN, NaN, NaN, 0.0347922, "- N/A -   "
2.27, 85.62987, 0.00398742, NaN, NaN, NaN, 0.0335714, "- N/A -   "
2.29, 86.2196, 0.00402351, NaN, NaN, NaN, 0.0323506, "- N/A -   "
2.31, 87.04523, 0.00405683, NaN, NaN, NaN, 0.0323506, "- N/A -   "
2.33, 87.75292, 0.00408738, NaN, NaN, NaN, 0.0335714, "- N/A -   "
2.35, 88.4606, 0.004117923, NaN, NaN, NaN, 0.0347922, "- N/A -   "
2.37, 89.16828, 0.004154021, NaN, NaN, NaN, 0.0347922, "- N/A -   "
2.39, 89.99392, 0.004187342, NaN, NaN, NaN, 0.0335714, "- N/A -   "
2.41, 90.58366, 0.00421789, NaN, NaN, NaN, 0.0347922, "- N/A -   "
2.43, 91.1734, 0.004251207, NaN, NaN, NaN, 0.03601294, "- N/A -   "
2.45, 91.76313, 0.00427897, NaN, NaN, NaN, 0.0384545, "- N/A -   "
2.47, 92.35287, 0.004306742, NaN, NaN, NaN, 0.04089605, "- N/A -   "
2.49, 93.0606, 0.004337286, NaN, NaN, NaN, 0.04089605, "- N/A -   "
2.51, 93.65029, 0.00437061, NaN, NaN, NaN, 0.04211683, "- N/A -   "
2.53, 94.47592, 0.00440393, NaN, NaN, NaN, 0.04089605, "- N/A -   "
2.55, 95.18361, 0.00443725, NaN, NaN, NaN, 0.04089605, "- N/A -   "
2.57, 95.8913, 0.00447057, NaN, NaN, NaN, 0.04211683, "- N/A -   "
2.59, 96.599, 0.00450111, NaN, NaN, NaN, 0.04211683, "- N/A -   "
2.61, 97.30666, 0.004534436, NaN, NaN, NaN, 0.04211683, "- N/A -   "
2.63, 98.01435, 0.00457053, NaN, NaN, NaN, 0.04211683, "- N/A -   "
2.65, 98.72203, 0.00460385, NaN, NaN, NaN, 0.04089605, "- N/A -   "
2.67, 99.42972, 0.00463995, NaN, NaN, NaN, 0.04089605, "- N/A -   "
2.69, 100.255, 0.00467327, NaN, NaN, NaN, 0.0396753, "- N/A -   "
2.71, 101.081, 0.004712148, NaN, NaN, NaN, 0.0372337, "- N/A -   "
2.73, 101.671, 0.00474547, NaN, NaN, NaN, 0.0384545, "- N/A -   "
2.75, 102.496, 0.00477879, NaN, NaN, NaN, 0.0372337, "- N/A -   "
2.77, 103.086, 0.00481489, NaN, NaN, NaN, 0.03601294, "- N/A -   "
2.79, 103.912, 0.00485099, NaN, NaN, NaN, 0.0347922, "- N/A -   "
2.81, 104.619, 0.004887083, NaN, NaN, NaN, 0.0347922, "- N/A -   "
2.83, 105.327, 0.004923181, NaN, NaN, NaN, 0.0335714, "- N/A -   "
2.85, 106.035, 0.0049565, NaN, NaN, NaN, 0.0323506, "- N/A -   "
2.87, 106.742, 0.0049926, NaN, NaN, NaN, 0.0323506, "- N/A -   "
2.89, 107.3322, 0.00502314, NaN, NaN, NaN, 0.0323506, "- N/A -   "
2.91, 108.158, 0.00505924, NaN, NaN, NaN, 0.03112983, "- N/A -   "
2.93, 108.748, 0.00509534, NaN, NaN, NaN, 0.03112983, "- N/A -   "
2.95, 109.5732, 0.005128661, NaN, NaN, NaN, 0.0299091, "- N/A -   "
2.97, 110.045, 0.00515921, NaN, NaN, NaN, 0.03112983, "- N/A -   "
2.99, 110.517, 0.005186973, NaN, NaN, NaN, 0.0335714, "- N/A -   "
3.01, 111.224, 0.00522029, NaN, NaN, NaN, 0.0335714, "- N/A -   "
3.03, 111.932, 0.00525084, NaN, NaN, NaN, 0.0347922, "- N/A -   "
3.05, 112.522, 0.005284159, NaN, NaN, NaN, 0.0347922, "- N/A -   "
3.07, 112.994, 0.00531748, NaN, NaN, NaN, 0.0347922, "- N/A -   "
3.09, 113.701, 0.00535358, NaN, NaN, NaN, 0.0335714, "- N/A -   "
3.11, 114.527, 0.005386899, NaN, NaN, NaN, 0.0335714, "- N/A -   "
3.13, 115.117, 0.00542022, NaN, NaN, NaN, 0.0347922, "- N/A -   "
3.15, 115.706, 0.005453541, NaN, NaN, NaN, 0.0335714, "- N/A -   "
3.17, 116.178, 0.005481308, NaN, NaN, NaN, 0.03601294, "- N/A -   "
3.19, 116.768, 0.00550908, NaN, NaN, NaN, 0.0384545, "- N/A -   "
3.21, 117.24, 0.00553962, NaN, NaN, NaN, 0.0396753, "- N/A -   "
3.23, 117.83, 0.005570164, NaN, NaN, NaN, 0.04089605, "- N/A -   "
3.25, 118.419, 0.005600708, NaN, NaN, NaN, 0.04211683, "- N/A -   "
3.27, 119.009, 0.00563403, NaN, NaN, NaN, 0.04211683, "- N/A -   "
3.29, 119.717, 0.00566735, NaN, NaN, NaN, 0.04211683, "- N/A -   "
3.31, 120.306, 0.00570067, NaN, NaN, NaN, 0.0433376, "- N/A -   "
3.33, 121.014, 0.005733992, NaN, NaN, NaN, 0.04211683, "- N/A -   "
3.35, 121.486, 0.00576731, NaN, NaN, NaN, 0.04211683, "- N/A -   "
3.37, 122.194, 0.00580341, NaN, NaN, NaN, 0.04089605, "- N/A -   "
3.39, 122.901, 0.005845062, NaN, NaN, NaN, 0.0384545, "- N/A -   "
3.41, 123.609, 0.00588394, NaN, NaN, NaN, 0.0347922, "- N/A -   "
3.43, 124.199, 0.00592004, NaN, NaN, NaN, 0.0335714, "- N/A -   "
3.45, 125.024, 0.00595613, NaN, NaN, NaN, 0.0323506, "- N/A -   "
3.47, 125.496, 0.00598945, NaN, NaN, NaN, 0.0323506, "- N/A -   "
3.49, 126.086, 0.006022774, NaN, NaN, NaN, 0.0335714, "- N/A -   "
3.51, 126.676, 0.006056096, NaN, NaN, NaN, 0.0323506, "- N/A -   "
3.53, 127.383, 0.00608942, NaN, NaN, NaN, 0.0335714, "- N/A -   "
3.55, 127.855, 0.00612274, NaN, NaN, NaN, 0.0335714, "- N/A -   "
3.57, 128.4448, 0.00615328, NaN, NaN, NaN, 0.0347922, "- N/A -   "
3.59, 128.917, 0.0061866, NaN, NaN, NaN, 0.03601294, "- N/A -   "
3.61, 129.624, 0.006219924, NaN, NaN, NaN, 0.0347922, "- N/A -   "
3.63, 130.332, 0.006256022, NaN, NaN, NaN, 0.0335714, "- N/A -   "
3.65, 131.04, 0.0062949, NaN, NaN, NaN, 0.03112983, "- N/A -   "
3.67, 131.629, 0.006330994, NaN, NaN, NaN, 0.0299091, "- N/A -   "
3.69, 132.219, 0.006361538, NaN, NaN, NaN, 0.03112983, "- N/A -   "
3.71, 132.6909, 0.006392082, NaN, NaN, NaN, 0.0323506, "- N/A -   "
3.73, 133.281, 0.006425404, NaN, NaN, NaN, 0.0323506, "- N/A -   "
3.75, 133.988, 0.00645872, NaN, NaN, NaN, 0.0323506, "- N/A -   "
3.77, 134.46, 0.00648927, NaN, NaN, NaN, 0.0335714, "- N/A -   "
3.79, 135.05, 0.00652259, NaN, NaN, NaN, 0.0347922, "- N/A -   "
3.81, 135.522, 0.006550358, NaN, NaN, NaN, 0.03601294, "- N/A -   "
3.83, 135.993, 0.00657813, NaN, NaN, NaN, 0.0396753, "- N/A -   "
3.85, 136.465, 0.006603116, NaN, NaN, NaN, 0.04211683, "- N/A -   "
3.87, 136.937, 0.00663366, NaN, NaN, NaN, 0.0445584, "- N/A -   "
3.89, 137.527, 0.006661428, NaN, NaN, NaN, 0.04577916, "- N/A -   "
3.91, 138.116, 0.00669475, NaN, NaN, NaN, 0.04577916, "- N/A -   "
3.93, 138.588, 0.00672529, NaN, NaN, NaN, 0.04699994, "- N/A -   "
3.95, 139.296, 0.006758614, NaN, NaN, NaN, 0.04699994, "- N/A -   "
3.97, 140.004, 0.006794712, NaN, NaN, NaN, 0.04699994, "- N/A -   "
3.99, 140.593, 0.00682803, NaN, NaN, NaN, 0.04577916, "- N/A -   "
4.01, 141.183, 0.00686413, NaN, NaN, NaN, 0.0445584, "- N/A -   "
4.03, 141.891, 0.006903005, NaN, NaN, NaN, 0.04211683, "- N/A -   "
4.05, 142.5985, 0.0069391, NaN, NaN, NaN, 0.04089605, "- N/A -   "
4.07, 143.188, 0.00698075, NaN, NaN, NaN, 0.0384545, "- N/A -   "
4.09, 143.896, 0.007014075, NaN, NaN, NaN, 0.0372337, "- N/A -   "
4.11, 144.486, 0.007050173, NaN, NaN, NaN, 0.03601294, "- N/A -   "
4.13, 145.193, 0.00708627, NaN, NaN, NaN, 0.0347922, "- N/A -   "
4.15, 145.901, 0.00712237, NaN, NaN, NaN, 0.0347922, "- N/A -   "
4.17, 146.6087, 0.00715569, NaN, NaN, NaN, 0.0335714, "- N/A -   "
4.19, 147.198, 0.007191787, NaN, NaN, NaN, 0.0335714, "- N/A -   "
4.21, 147.788, 0.00722788, NaN, NaN, NaN, 0.03112983, "- N/A -   "
4.23, 148.496, 0.00726398, NaN, NaN, NaN, 0.0299091, "- N/A -   "
4.25, 149.204, 0.00730008, NaN, NaN, NaN, 0.0286883, "- N/A -   "
4.27, 149.675, 0.007333402, NaN, NaN, NaN, 0.0286883, "- N/A -   "
4.29, 150.383, 0.007366723, NaN, NaN, NaN, 0.0286883, "- N/A -   "
4.31, 150.973, 0.00740004, NaN, NaN, NaN, 0.0286883, "- N/A -   "
4.33, 151.5625, 0.00743336, NaN, NaN, NaN, 0.0286883, "- N/A -   "
4.35, 152.034, 0.00746669, NaN, NaN, NaN, 0.0299091, "- N/A -   "
4.37, 152.624, 0.007494453, NaN, NaN, NaN, 0.03112983, "- N/A -   "
4.39, 153.096, 0.007524997, NaN, NaN, NaN, 0.0323506, "- N/A -   "
4.41, 153.686, 0.00755554, NaN, NaN, NaN, 0.0347922, "- N/A -   "
4.43, 154.2753, 0.007583309, NaN, NaN, NaN, 0.03601294, "- N/A -   "
4.45, 154.747, 0.007613853, NaN, NaN, NaN, 0.0372337, "- N/A -   "
4.47, 155.219, 0.007641621, NaN, NaN, NaN, 0.0396753, "- N/A -   "
4.49, 155.691, 0.007669389, NaN, NaN, NaN, 0.04211683, "- N/A -   "
4.51, 156.162, 0.00769716, NaN, NaN, NaN, 0.0445584, "- N/A -   "
4.53, 156.87, 0.0077277, NaN, NaN, NaN, 0.04577916, "- N/A -   "
4.55, 157.342, 0.007761021, NaN, NaN, NaN, 0.04577916, "- N/A -   "
4.57, 158.0496, 0.007797119, NaN, NaN, NaN, 0.0445584, "- N/A -   "
4.59, 158.7573, 0.007833217, NaN, NaN, NaN, 0.0433376, "- N/A -   "
4.61, 159.465, 0.007869315, NaN, NaN, NaN, 0.04211683, "- N/A -   "
4.63, 160.055, 0.007902635, NaN, NaN, NaN, 0.0433376, "- N/A -   "
4.65, 160.644, 0.007933181, NaN, NaN, NaN, 0.0445584, "- N/A -   "
4.67, 161.234, 0.007966501, NaN, NaN, NaN, 0.0445584, "- N/A -   "
4.69, 161.824, 0.00799982, NaN, NaN, NaN, 0.0433376, "- N/A -   "
4.71, 162.532, 0.00803592, NaN, NaN, NaN, 0.04211683, "- N/A -   "
4.73, 163.2393, 0.008072018, NaN, NaN, NaN, 0.04089605, "- N/A -   "
4.75, 164.065, 0.008110893, NaN, NaN, NaN, 0.0384545, "- N/A -   "
4.77, 164.773, 0.008149767, NaN, NaN, NaN, 0.03601294, "- N/A -   "
4.79, 165.598, 0.008194195, NaN, NaN, NaN, 0.0323506, "- N/A -   "
4.81, 166.424, 0.008233069, NaN, NaN, NaN, 0.0286883, "- N/A -   "
4.83, 167.014, 0.00826917, NaN, NaN, NaN, 0.0286883, "- N/A -   "
4.85, 167.485, 0.008299711, NaN, NaN, NaN, 0.0286883, "- N/A -   "
4.87, 168.193, 0.008333033, NaN, NaN, NaN, 0.0286883, "- N/A -   "
4.89, 168.783, 0.008366354, NaN, NaN, NaN, 0.0286883, "- N/A -   "
4.91, 169.373, 0.008399675, NaN, NaN, NaN, 0.0286883, "- N/A -   "
4.93, 169.962, 0.008435772, NaN, NaN, NaN, 0.0286883, "- N/A -   "
4.95, 170.552, 0.008463539, NaN, NaN, NaN, 0.03112983, "- N/A -   "
4.97, 171.024, 0.008494084, NaN, NaN, NaN, 0.0323506, "- N/A -   "
4.99, 171.614, 0.008524627, NaN, NaN, NaN, 0.0323506, "- N/A -   "
5.01, 172.203, 0.008557949, NaN, NaN, NaN, 0.0335714, "- N/A -   "
5.03, 172.793, 0.008588494, NaN, NaN, NaN, 0.0335714, "- N/A -   "
5.05, 173.383, 0.008619037, NaN, NaN, NaN, 0.0347922, "- N/A -   "
5.07, 173.855, 0.008649582, NaN, NaN, NaN, 0.03601294, "- N/A -   "
5.09, 174.562, 0.008682903, NaN, NaN, NaN, 0.0372337, "- N/A -   "
5.11, 175.152, 0.008716224, NaN, NaN, NaN, 0.0372337, "- N/A -   "
5.13, 175.86, 0.008749546, NaN, NaN, NaN, 0.03601294, "- N/A -   "
5.15, 176.449, 0.008785644, NaN, NaN, NaN, 0.03601294, "- N/A -   "
5.17, 177.039, 0.008816187, NaN, NaN, NaN, 0.03601294, "- N/A -   "
5.19, 177.629, 0.008843956, NaN, NaN, NaN, 0.0384545, "- N/A -   "
5.21, 178.1007, 0.008871722, NaN, NaN, NaN, 0.04089605, "- N/A -   "
5.23, 178.69, 0.008902266, NaN, NaN, NaN, 0.04211683, "- N/A -   "
5.25, 179.28, 0.00893559, NaN, NaN, NaN, 0.0433376, "- N/A -   "
5.27, 179.87, 0.008966132, NaN, NaN, NaN, 0.0433376, "- N/A -   "
5.29, 180.46, 0.008996676, NaN, NaN, NaN, 0.0445584, "- N/A -   "
5.31, 180.931, 0.00902722, NaN, NaN, NaN, 0.04577916, "- N/A -   "
5.33, 181.639, 0.009060541, NaN, NaN, NaN, 0.04577916, "- N/A -   "
5.35, 182.465, 0.009096639, NaN, NaN, NaN, 0.0445584, "- N/A -   "
5.37, 183.172, 0.009135514, NaN, NaN, NaN, 0.04211683, "- N/A -   "
5.39, 183.998, 0.009177165, NaN, NaN, NaN, 0.0384545, "- N/A -   "
5.41, 184.706, 0.009216039, NaN, NaN, NaN, 0.03601294, "- N/A -   "
5.43, 185.531, 0.00925214, NaN, NaN, NaN, 0.0347922, "- N/A -   "
5.45, 186.121, 0.009288236, NaN, NaN, NaN, 0.0335714, "- N/A -   "
5.47, 186.829, 0.009324333, NaN, NaN, NaN, 0.0323506, "- N/A -   "
5.49, 187.536, 0.00936043, NaN, NaN, NaN, 0.03112983, "- N/A -   "
5.51, 188.008, 0.009393752, NaN, NaN, NaN, 0.03112983, "- N/A -   "
5.53, 188.716, 0.00942707, NaN, NaN, NaN, 0.03112983, "- N/A -   "
5.55, 189.3057, 0.009460394, NaN, NaN, NaN, 0.03112983, "- N/A -   "
5.57, 190.013, 0.009493714, NaN, NaN, NaN, 0.03112983, "- N/A -   "
5.59, 190.603, 0.009524259, NaN, NaN, NaN, 0.0323506, "- N/A -   "
5.61, 191.193, 0.009554803, NaN, NaN, NaN, 0.0335714, "- N/A -   "
5.63, 191.665, 0.009582572, NaN, NaN, NaN, 0.03601294, "- N/A -   "
5.65, 192.254, 0.009615892, NaN, NaN, NaN, 0.0372337, "- N/A -   "
5.67, 192.844, 0.009646436, NaN, NaN, NaN, 0.0372337, "- N/A -   "
5.69, 193.67, 0.009688088, NaN, NaN, NaN, 0.0347922, "- N/A -   "
5.71, 194.495, 0.009726962, NaN, NaN, NaN, 0.03112983, "- N/A -   "
5.73, 195.203, 0.009760284, NaN, NaN, NaN, 0.03112983, "- N/A -   "
5.75, 195.675, 0.00979083, NaN, NaN, NaN, 0.0323506, "- N/A -   "
5.77, 196.265, 0.009824148, NaN, NaN, NaN, 0.0335714, "- N/A -   "
5.79, 196.854, 0.009854692, NaN, NaN, NaN, 0.0347922, "- N/A -   "
5.81, 197.444, 0.00988246, NaN, NaN, NaN, 0.03601294, "- N/A -   "
5.83, 198.034, 0.009913004, NaN, NaN, NaN, 0.0372337, "- N/A -   "
5.85, 198.506, 0.009943549, NaN, NaN, NaN, 0.0384545, "- N/A -   "
5.87, 199.095, 0.00996854, NaN, NaN, NaN, 0.04211683, "- N/A -   "
5.89, 199.685, 0.009999084, NaN, NaN, NaN, 0.0433376, "- N/A -   "
5.91, 200.275, 0.0100324, NaN, NaN, NaN, 0.0433376, "- N/A -   "
5.93, 200.9825, 0.0100657, NaN, NaN, NaN, 0.0433376, "- N/A -   "
5.95, 201.69, 0.0101046, NaN, NaN, NaN, 0.04089605, "- N/A -   "
5.97, 202.516, 0.0101379, NaN, NaN, NaN, 0.04089605, "- N/A -   "
5.99, 202.9876, 0.0101712, NaN, NaN, NaN, 0.04089605, "- N/A -   "
6.01, 203.695, 0.0102046, NaN, NaN, NaN, 0.04089605, "- N/A -   "
6.03, 204.403, 0.0102379, NaN, NaN, NaN, 0.04089605, "- N/A -   "
6.05, 204.9927, 0.0102768, NaN, NaN, NaN, 0.0396753, "- N/A -   "
6.07, 205.818, 0.0103129, NaN, NaN, NaN, 0.0384545, "- N/A -   "
6.09, 206.526, 0.010349, NaN, NaN, NaN, 0.03601294, "- N/A -   "
6.11, 207.2337, 0.0103851, NaN, NaN, NaN, 0.03601294, "- N/A -   "
6.13, 207.941, 0.0104156, NaN, NaN, NaN, 0.03601294, "- N/A -   "
6.15, 208.531, 0.0104489, NaN, NaN, NaN, 0.03601294, "- N/A -   "
6.17, 209.239, 0.010485, NaN, NaN, NaN, 0.0347922, "- N/A -   "
6.19, 209.829, 0.0105183, NaN, NaN, NaN, 0.0347922, "- N/A -   "
6.21, 210.536, 0.0105517, NaN, NaN, NaN, 0.0347922, "- N/A -   "
6.23, 211.244, 0.0105878, NaN, NaN, NaN, 0.0335714, "- N/A -   "
6.25, 211.834, 0.0106239, NaN, NaN, NaN, 0.0323506, "- N/A -   "
6.27, 212.541, 0.0106572, NaN, NaN, NaN, 0.0323506, "- N/A -   "
6.29, 213.249, 0.0106933, NaN, NaN, NaN, 0.0323506, "- N/A -   "
6.31, 213.839, 0.0107266, NaN, NaN, NaN, 0.03112983, "- N/A -   "
6.33, 214.4285, 0.0107599, NaN, NaN, NaN, 0.0323506, "- N/A -   "
6.35, 215.018, 0.0107905, NaN, NaN, NaN, 0.0335714, "- N/A -   "
6.37, 215.726, 0.010821, NaN, NaN, NaN, 0.0335714, "- N/A -   "
6.39, 216.316, 0.0108571, NaN, NaN, NaN, 0.0335714, "- N/A -   "
6.41, 217.141, 0.0108904, NaN, NaN, NaN, 0.0323506, "- N/A -   "
6.43, 217.731, 0.010921, NaN, NaN, NaN, 0.0335714, "- N/A -   "
6.45, 218.4387, 0.0109543, NaN, NaN, NaN, 0.0335714, "- N/A -   "
6.47, 219.028, 0.0109876, NaN, NaN, NaN, 0.0335714, "- N/A -   "
6.49, 219.6182, 0.0110209, NaN, NaN, NaN, 0.0335714, "- N/A -   "
6.51, 220.326, 0.0110542, NaN, NaN, NaN, 0.0335714, "- N/A -   "
6.53, 221.034, 0.01108757, NaN, NaN, NaN, 0.0335714, "- N/A -   "
6.55, 221.623, 0.0111181, NaN, NaN, NaN, 0.0347922, "- N/A -   "
6.57, 222.213, 0.0111487, NaN, NaN, NaN, 0.03601294, "- N/A -   "
6.59, 222.685, 0.0111764, NaN, NaN, NaN, 0.0384545, "- N/A -   "
6.61, 223.3925, 0.0112097, NaN, NaN, NaN, 0.0384545, "- N/A -   "
6.63, 223.8643, 0.0112403, NaN, NaN, NaN, 0.0396753, "- N/A -   "
6.65, 224.572, 0.0112708, NaN, NaN, NaN, 0.04089605, "- N/A -   "
6.67, 225.162, 0.0113042, NaN, NaN, NaN, 0.04211683, "- N/A -   "
6.69, 225.751, 0.0113319, NaN, NaN, NaN, 0.0433376, "- N/A -   "
6.71, 226.3412, 0.0113625, NaN, NaN, NaN, 0.0445584, "- N/A -   "
6.73, 227.167, 0.01139579, NaN, NaN, NaN, 0.0445584, "- N/A -   "
6.75, 227.875, 0.0114347, NaN, NaN, NaN, 0.0433376, "- N/A -   "
6.77, 228.5822, 0.011468, NaN, NaN, NaN, 0.04211683, "- N/A -   "
6.79, 229.408, 0.0115041, NaN, NaN, NaN, 0.04089605, "- N/A -   "
6.81, 230.116, 0.011543, NaN, NaN, NaN, 0.0384545, "- N/A -   "
6.83, 230.941, 0.0115818, NaN, NaN, NaN, 0.03601294, "- N/A -   "
6.85, 231.649, 0.01161793, NaN, NaN, NaN, 0.0347922, "- N/A -   "
6.87, 232.474, 0.011654, NaN, NaN, NaN, 0.0335714, "- N/A -   "
6.89, 233.182, 0.0116901, NaN, NaN, NaN, 0.0323506, "- N/A -   "
6.91, 233.772, 0.0117207, NaN, NaN, NaN, 0.0335714, "- N/A -   "
6.93, 234.362, 0.011754, NaN, NaN, NaN, 0.0335714, "- N/A -   "
6.95, 235.187, 0.0117901, NaN, NaN, NaN, 0.0335714, "- N/A -   "
6.97, 235.777, 0.0118234, NaN, NaN, NaN, 0.0335714, "- N/A -   "
6.99, 236.367, 0.011854, NaN, NaN, NaN, 0.0347922, "- N/A -   "
7.01, 237.074, 0.0118873, NaN, NaN, NaN, 0.0347922, "- N/A -   "
7.03, 237.9, 0.0119234, NaN, NaN, NaN, 0.0323506, "- N/A -   "
7.05, 238.726, 0.0119622, NaN, NaN, NaN, 0.03112983, "- N/A -   "
7.07, 239.433, 0.0120011, NaN, NaN, NaN, 0.0274675, "- N/A -   "
7.09, 240.259, 0.01204, NaN, NaN, NaN, 0.0250259, "- N/A -   "
7.11, 240.967, 0.0120733, NaN, NaN, NaN, 0.0250259, "- N/A -   "
7.13, 241.556, 0.0121039, NaN, NaN, NaN, 0.0274675, "- N/A -   "
7.15, 242.028, 0.0121316, NaN, NaN, NaN, 0.0286883, "- N/A -   "
7.17, 242.618, 0.0121594, NaN, NaN, NaN, 0.03112983, "- N/A -   "
7.19, 243.207, 0.0121872, NaN, NaN, NaN, 0.0347922, "- N/A -   "
7.21, 243.56, 0.0122149, NaN, NaN, NaN, 0.03601294, "- N/A -   "
7.23, 244.2674, 0.0122455, NaN, NaN, NaN, 0.0384545, "- N/A -   "
7.25, 244.7387, 0.0122705, NaN, NaN, NaN, 0.04089605, "- N/A -   "
7.27, 245.328, 0.0122982, NaN, NaN, NaN, 0.0433376, "- N/A -   "
7.29, 245.917, 0.0123288, NaN, NaN, NaN, 0.0445584, "- N/A -   "
7.31, 246.624, 0.0123593, NaN, NaN, NaN, 0.04577916, "- N/A -   "
7.33, 247.213, 0.0123926, NaN, NaN, NaN, 0.04577916, "- N/A -   "
7.35, 247.92, 0.012426, NaN, NaN, NaN, 0.04577916, "- N/A -   "
7.37, 248.745, 0.0124621, NaN, NaN, NaN, 0.0445584, "- N/A -   "
7.39, 249.452, 0.0124954, NaN, NaN, NaN, 0.0445584, "- N/A -   "
7.41, 250.041, 0.0125287, NaN, NaN, NaN, 0.0445584, "- N/A -   "
7.43, 250.866, 0.01256758, NaN, NaN, NaN, 0.04211683, "- N/A -   "
7.45, 251.69, 0.0126065, NaN, NaN, NaN, 0.0396753, "- N/A -   "
7.47, 252.515, 0.0126426, NaN, NaN, NaN, 0.0384545, "- N/A -   "
7.49, 253.222, 0.0126814, NaN, NaN, NaN, 0.0372337, "- N/A -   "
7.51, 253.929, 0.0127147, NaN, NaN, NaN, 0.03601294, "- N/A -   "
7.53, 254.7539, 0.0127536, NaN, NaN, NaN, 0.0347922, "- N/A -   "
7.55, 255.461, 0.0127869, NaN, NaN, NaN, 0.0335714, "- N/A -   "
7.57, 256.168, 0.0128203, NaN, NaN, NaN, 0.0335714, "- N/A -   "
7.59, 256.757, 0.0128536, NaN, NaN, NaN, 0.0335714, "- N/A -   "
7.61, 257.582, 0.0128897, NaN, NaN, NaN, 0.0335714, "- N/A -   "
7.63, 258.407, 0.01292578, NaN, NaN, NaN, 0.03112983, "- N/A -   "
7.65, 259.231, 0.0129619, NaN, NaN, NaN, 0.0299091, "- N/A -   "
7.67, 259.82, 0.012998, NaN, NaN, NaN, 0.0286883, "- N/A -   "
7.69, 260.6452, 0.0130341, NaN, NaN, NaN, 0.0274675, "- N/A -   "
7.71, 261.234, 0.0130646, NaN, NaN, NaN, 0.0286883, "- N/A -   "
7.73, 261.8235, 0.0130979, NaN, NaN, NaN, 0.0286883, "- N/A -   "
7.75, 262.53, 0.01313126, NaN, NaN, NaN, 0.0299091, "- N/A -   "
7.77, 263.12, 0.0131618, NaN, NaN, NaN, 0.03112983, "- N/A -   "
7.79, 263.7087, 0.0131923, NaN, NaN, NaN, 0.03112983, "- N/A -   "
7.81, 264.416, 0.0132229, NaN, NaN, NaN, 0.0335714, "- N/A -   "
7.83, 265.0048, 0.0132534, NaN, NaN, NaN, 0.0347922, "- N/A -   "
7.85, 265.5939, 0.013284, NaN, NaN, NaN, 0.03601294, "- N/A -   "
7.87, 266.301, 0.0133117, NaN, NaN, NaN, 0.0372337, "- N/A -   "
7.89, 267.0078, 0.01334507, NaN, NaN, NaN, 0.0384545, "- N/A -   "
7.91, 267.479, 0.0133728, NaN, NaN, NaN, 0.0396753, "- N/A -   "
7.93, 268.1861, 0.0134034, NaN, NaN, NaN, 0.04089605, "- N/A -   "
7.95, 268.7752, 0.0134367, NaN, NaN, NaN, 0.04211683, "- N/A -   "
7.97, 269.482, 0.01347, NaN, NaN, NaN, 0.04211683, "- N/A -   "
7.99, 270.189, 0.0135033, NaN, NaN, NaN, 0.04089605, "- N/A -   "
8.01, 270.8961, 0.0135339, NaN, NaN, NaN, 0.04211683, "- N/A -   "
8.03, 271.603, 0.01356721, NaN, NaN, NaN, 0.04211683, "- N/A -   "
8.05, 272.192, 0.0136005, NaN, NaN, NaN, 0.0445584, "- N/A -   "
8.07, 273.017, 0.0136339, NaN, NaN, NaN, 0.0445584, "- N/A -   "
8.09, 273.7239, 0.0136672, NaN, NaN, NaN, 0.0445584, "- N/A -   "
8.11, 274.431, 0.0137005, NaN, NaN, NaN, 0.0433376, "- N/A -   "
8.13, 275.138, 0.0137366, NaN, NaN, NaN, 0.04211683, "- N/A -   "
8.15, 275.963, 0.01377269, NaN, NaN, NaN, 0.04089605, "- N/A -   "
8.17, 276.67, 0.0138116, NaN, NaN, NaN, 0.0384545, "- N/A -   "
8.19, 277.494, 0.0138477, NaN, NaN, NaN, 0.0372337, "- N/A -   "
8.21, 278.437, 0.0138893, NaN, NaN, NaN, 0.0335714, "- N/A -   "
8.23, 279.262, 0.0139282, NaN, NaN, NaN, 0.03112983, "- N/A -   "
8.25, 279.9687, 0.0139615, NaN, NaN, NaN, 0.03112983, "- N/A -   "
8.27, 280.676, 0.0139948, NaN, NaN, NaN, 0.03112983, "- N/A -   "
8.29, 281.2648, 0.0140282, NaN, NaN, NaN, 0.0323506, "- N/A -   "
8.31, 281.972, 0.0140615, NaN, NaN, NaN, 0.03112983, "- N/A -   "
8.33, 282.7965, 0.0140976, NaN, NaN, NaN, 0.0299091, "- N/A -   "
8.35, 283.6213, 0.01413089, NaN, NaN, NaN, 0.0299091, "- N/A -   "
8.37, 284.21, 0.0141642, NaN, NaN, NaN, 0.0299091, "- N/A -   "
8.39, 284.8, 0.0141948, NaN, NaN, NaN, 0.0323506, "- N/A -   "
8.41, 285.5065, 0.0142253, NaN, NaN, NaN, 0.0335714, "- N/A -   "
8.43, 286.213, 0.0142531, NaN, NaN, NaN, 0.0347922, "- N/A -   "
8.45, 286.8026, 0.0142864, NaN, NaN, NaN, 0.0347922, "- N/A -   "
8.47, 287.51, 0.0143197, NaN, NaN, NaN, 0.03601294, "- N/A -   "
8.49, 288.0987, 0.0143475, NaN, NaN, NaN, 0.0372337, "- N/A -   "
8.51, 288.806, 0.0143808, NaN, NaN, NaN, 0.0372337, "- N/A -   "
8.53, 289.63, 0.0144141, NaN, NaN, NaN, 0.0372337, "- N/A -   "
8.55, 290.22, 0.01444744, NaN, NaN, NaN, 0.0384545, "- N/A -   "
8.57, 290.927, 0.014478, NaN, NaN, NaN, 0.0384545, "- N/A -   "
8.59, 291.516, 0.0145085, NaN, NaN, NaN, 0.04089605, "- N/A -   "
8.61, 292.105, 0.0145363, NaN, NaN, NaN, 0.04211683, "- N/A -   "
8.63, 292.6939, 0.0145641, NaN, NaN, NaN, 0.0445584, "- N/A -   "
8.65, 293.401, 0.0145974, NaN, NaN, NaN, 0.0445584, "- N/A -   "
8.67, 294.226, 0.0146307, NaN, NaN, NaN, 0.0445584, "- N/A -   "
8.69, 294.8148, 0.0146668, NaN, NaN, NaN, 0.0445584, "- N/A -   "
8.71, 295.6396, 0.0147001, NaN, NaN, NaN, 0.0433376, "- N/A -   "
8.73, 296.347, 0.0147307, NaN, NaN, NaN, 0.0445584, "- N/A -   "
8.75, 297.1713, 0.0147668, NaN, NaN, NaN, 0.0433376, "- N/A -   "
8.77, 297.9961, 0.0148056, NaN, NaN, NaN, 0.04211683, "- N/A -   "
8.79, 298.821, 0.0148417, NaN, NaN, NaN, 0.0396753, "- N/A -   "
8.81, 299.646, 0.0148806, NaN, NaN, NaN, 0.0372337, "- N/A -   "
8.83, 300.353, 0.0149167, NaN, NaN, NaN, 0.03601294, "- N/A -   "
8.85, 301.1774, 0.01495281, NaN, NaN, NaN, 0.0347922, "- N/A -   "
8.87, 302.0022, 0.0149917, NaN, NaN, NaN, 0.0335714, "- N/A -   "
8.89, 302.827, 0.015025, NaN, NaN, NaN, 0.0323506, "- N/A -   "
8.91, 303.5339, 0.0150611, NaN, NaN, NaN, 0.03112983, "- N/A -   "
8.93, 304.241, 0.0150944, NaN, NaN, NaN, 0.03112983, "- N/A -   "
8.95, 304.948, 0.0151277, NaN, NaN, NaN, 0.0323506, "- N/A -   "
8.97, 305.6548, 0.0151583, NaN, NaN, NaN, 0.0323506, "- N/A -   "
8.99, 306.362, 0.01519161, NaN, NaN, NaN, 0.0323506, "- N/A -   "
9.01, 307.0687, 0.0152222, NaN, NaN, NaN, 0.0335714, "- N/A -   "
9.03, 307.658, 0.0152555, NaN, NaN, NaN, 0.0347922, "- N/A -   "
9.05, 308.4826, 0.015286, NaN, NaN, NaN, 0.03601294, "- N/A -   "
9.07, 309.072, 0.01531934, NaN, NaN, NaN, 0.0347922, "- N/A -   "
9.09, 310.014, 0.0153554, NaN, NaN, NaN, 0.0335714, "- N/A -   "
9.11, 310.7213, 0.0153915, NaN, NaN, NaN, 0.0323506, "- N/A -   "
9.13, 311.546, 0.01543041, NaN, NaN, NaN, 0.03112983, "- N/A -   "
9.15, 312.253, 0.0154582, NaN, NaN, NaN, 0.0323506, "- N/A -   "
9.17, 312.96, 0.0154915, NaN, NaN, NaN, 0.0323506, "- N/A -   "
9.19, 313.549, 0.015522, NaN, NaN, NaN, 0.0335714, "- N/A -   "
9.21, 314.256, 0.0155526, NaN, NaN, NaN, 0.0347922, "- N/A -   "
9.23, 314.8452, 0.0155831, NaN, NaN, NaN, 0.03601294, "- N/A -   "
9.25, 315.552, 0.0156137, NaN, NaN, NaN, 0.0384545, "- N/A -   "
9.27, 316.0235, 0.0156414, NaN, NaN, NaN, 0.0396753, "- N/A -   "
9.29, 316.6126, 0.0156692, NaN, NaN, NaN, 0.04211683, "- N/A -   "
9.31, 317.32, 0.0156998, NaN, NaN, NaN, 0.0433376, "- N/A -   "
9.33, 318.027, 0.0157331, NaN, NaN, NaN, 0.0433376, "- N/A -   "
9.35, 318.969, 0.0157692, NaN, NaN, NaN, 0.04211683, "- N/A -   "
9.37, 319.7939, 0.015808, NaN, NaN, NaN, 0.04089605, "- N/A -   "
9.39, 320.619, 0.0158441, NaN, NaN, NaN, 0.0396753, "- N/A -   "
9.41, 321.326, 0.01587469, NaN, NaN, NaN, 0.0396753, "- N/A -   "
9.43, 322.033, 0.015908, NaN, NaN, NaN, 0.0396753, "- N/A -   "
9.45, 322.8574, 0.01594411, NaN, NaN, NaN, 0.0384545, "- N/A -   "
9.47, 323.564, 0.0159774, NaN, NaN, NaN, 0.0384545, "- N/A -   "
9.49, 324.2713, 0.0160108, NaN, NaN, NaN, 0.0384545, "- N/A -   "
9.51, 325.0961, 0.01604685, NaN, NaN, NaN, 0.0372337, "- N/A -   "
9.53, 325.921, 0.0160829, NaN, NaN, NaN, 0.03601294, "- N/A -   "
9.55, 326.746, 0.0161163, NaN, NaN, NaN, 0.03601294, "- N/A -   "
9.57, 327.4526, 0.01614959, NaN, NaN, NaN, 0.0372337, "- N/A -   "
9.59, 328.042, 0.0161801, NaN, NaN, NaN, 0.0372337, "- N/A -   "
9.61, 328.7487, 0.0162135, NaN, NaN, NaN, 0.0372337, "- N/A -   "
9.63, 329.456, 0.0162468, NaN, NaN, NaN, 0.0372337, "- N/A -   "
9.65, 330.28, 0.0162801, NaN, NaN, NaN, 0.0372337, "- N/A -   "
9.67, 330.987, 0.0163134, NaN, NaN, NaN, 0.0372337, "- N/A -   "
9.69, 331.812, 0.0163523, NaN, NaN, NaN, 0.0347922, "- N/A -   "
9.71, 332.637, 0.01638839, NaN, NaN, NaN, 0.0335714, "- N/A -   "
9.73, 333.462, 0.0164217, NaN, NaN, NaN, 0.0335714, "- N/A -   "
9.75, 334.1687, 0.016455, NaN, NaN, NaN, 0.0335714, "- N/A -   "
9.77, 334.876, 0.0164884, NaN, NaN, NaN, 0.0347922, "- N/A -   "
9.79, 335.5826, 0.0165189, NaN, NaN, NaN, 0.0347922, "- N/A -   "
9.81, 336.29, 0.016555, NaN, NaN, NaN, 0.0347922, "- N/A -   "
9.83, 336.997, 0.0165883, NaN, NaN, NaN, 0.0347922, "- N/A -   "
9.85, 337.821, 0.0166216, NaN, NaN, NaN, 0.0347922, "- N/A -   "
9.87, 338.6461, 0.0166577, NaN, NaN, NaN, 0.0323506, "- N/A -   "
9.89, 339.589, 0.0166938, NaN, NaN, NaN, 0.03112983, "- N/A -   "
9.91, 340.296, 0.01672993, NaN, NaN, NaN, 0.03112983, "- N/A -   "
9.93, 341.0026, 0.0167605, NaN, NaN, NaN, 0.03112983, "- N/A -   "
9.95, 341.71, 0.016791, NaN, NaN, NaN, 0.0323506, "- N/A -   "
9.97, 342.181, 0.0168188, NaN, NaN, NaN, 0.0347922, "- N/A -   "
9.99, 342.888, 0.0168466, NaN, NaN, NaN, 0.0372337, "- N/A -   "
10.01, 343.3591, 0.0168771, NaN, NaN, NaN, 0.0396753, "- N/A -   "
10.03, 344.0661, 0.0169076, NaN, NaN, NaN, 0.0396753, "- N/A -   "
10.05, 345.009, 0.016941, NaN, NaN, NaN, 0.04089605, "- N/A -   "
10.07, 345.5978, 0.0169715, NaN, NaN, NaN, 0.04089605, "- N/A -   "
10.09, 346.187, 0.0170021, NaN, NaN, NaN, 0.04211683, "- N/A -   "
10.11, 346.894, 0.0170326, NaN, NaN, NaN, 0.0433376, "- N/A -   "
10.13, 347.837, 0.0170687, NaN, NaN, NaN, 0.0433376, "- N/A -   "
10.15, 348.6613, 0.017102, NaN, NaN, NaN, 0.0433376, "- N/A -   "
10.17, 349.3683, 0.01713256, NaN, NaN, NaN, 0.0433376, "- N/A -   "
10.19, 350.075, 0.0171687, NaN, NaN, NaN, 0.0433376, "- N/A -   "
10.21, 350.7822, 0.017202, NaN, NaN, NaN, 0.0433376, "- N/A -   "
10.23, 351.7248, 0.0172381, NaN, NaN, NaN, 0.04089605, "- N/A -   "
10.25, 352.55, 0.01727695, NaN, NaN, NaN, 0.0396753, "- N/A -   "
10.27, 353.374, 0.017313, NaN, NaN, NaN, 0.0372337, "- N/A -   "
10.29, 354.199, 0.0173491, NaN, NaN, NaN, 0.03601294, "- N/A -   "
10.31, 354.788, 0.0173825, NaN, NaN, NaN, 0.03601294, "- N/A -   "
10.33, 355.8487, 0.0174186, NaN, NaN, NaN, 0.0347922, "- N/A -   "
10.35, 356.673, 0.0174574, NaN, NaN, NaN, 0.0335714, "- N/A -   "
10.37, 357.38, 0.0174908, NaN, NaN, NaN, 0.0323506, "- N/A -   "
10.39, 358.0874, 0.01752686, NaN, NaN, NaN, 0.0323506, "- N/A -   "
10.41, 358.912, 0.0175602, NaN, NaN, NaN, 0.0323506, "- N/A -   "
10.43, 359.6191, 0.0175907, NaN, NaN, NaN, 0.0323506, "- N/A -   "
10.45, 360.4439, 0.017624, NaN, NaN, NaN, 0.0323506, "- N/A -   "
10.47, 361.151, 0.0176629, NaN, NaN, NaN, 0.03112983, "- N/A -   "
10.49, 362.093, 0.0177018, NaN, NaN, NaN, 0.0274675, "- N/A -   "
10.51, 362.918, 0.0177379, NaN, NaN, NaN, 0.0274675, "- N/A -   "
10.53, 363.6252, 0.0177684, NaN, NaN, NaN, 0.0274675, "- N/A -   "
10.55, 364.332, 0.017799, NaN, NaN, NaN, 0.0286883, "- N/A -   "
10.57, 365.039, 0.0178295, NaN, NaN, NaN, 0.0299091, "- N/A -   "
10.59, 365.628, 0.0178601, NaN, NaN, NaN, 0.03112983, "- N/A -   "
10.61, 366.3352, 0.0178906, NaN, NaN, NaN, 0.0323506, "- N/A -   "
10.63, 366.924, 0.0179212, NaN, NaN, NaN, 0.0335714, "- N/A -   "
10.65, 367.6313, 0.0179517, NaN, NaN, NaN, 0.03601294, "- N/A -   "
10.67, 368.22, 0.0179767, NaN, NaN, NaN, 0.0384545, "- N/A -   "
10.69, 368.692, 0.0180017, NaN, NaN, NaN, 0.04211683, "- N/A -   "
10.71, 369.3987, 0.01802945, NaN, NaN, NaN, 0.0445584, "- N/A -   "
10.73, 370.106, 0.01806277, NaN, NaN, NaN, 0.0445584, "- N/A -   "
10.75, 370.93, 0.0180961, NaN, NaN, NaN, 0.0445584, "- N/A -   "
10.77, 371.6374, 0.01813219, NaN, NaN, NaN, 0.0433376, "- N/A -   "
10.79, 372.4622, 0.0181655, NaN, NaN, NaN, 0.0433376, "- N/A -   "
10.81, 373.287, 0.0181988, NaN, NaN, NaN, 0.0433376, "- N/A -   "
10.83, 373.9939, 0.01823493, NaN, NaN, NaN, 0.0433376, "- N/A -   "
10.85, 374.937, 0.018271, NaN, NaN, NaN, 0.04089605, "- N/A -   "
10.87, 375.761, 0.0183071, NaN, NaN, NaN, 0.0396753, "- N/A -   "
10.89, 376.5861, 0.0183432, NaN, NaN, NaN, 0.0384545, "- N/A -   "
10.91, 377.4109, 0.0183765, NaN, NaN, NaN, 0.0384545, "- N/A -   "
10.93, 378.236, 0.01841542, NaN, NaN, NaN, 0.0372337, "- N/A -   "
10.95, 379.06, 0.01844874, NaN, NaN, NaN, 0.03601294, "- N/A -   "
10.97, 379.7674, 0.0184821, NaN, NaN, NaN, 0.03601294, "- N/A -   "
10.99, 380.474, 0.0185154, NaN, NaN, NaN, 0.03601294, "- N/A -   "
11.01, 381.299, 0.0185487, NaN, NaN, NaN, 0.03601294, "- N/A -   "
11.03, 382.124, 0.0185848, NaN, NaN, NaN, 0.0347922, "- N/A -   "
11.05, 382.9487, 0.0186209, NaN, NaN, NaN, 0.0335714, "- N/A -   "
11.07, 383.656, 0.018657, NaN, NaN, NaN, 0.0335714, "- N/A -   "
11.09, 384.48, 0.0186903, NaN, NaN, NaN, 0.0323506, "- N/A -   "
11.11, 385.3052, 0.0187264, NaN, NaN, NaN, 0.03112983, "- N/A -   "
11.13, 386.012, 0.01875696, NaN, NaN, NaN, 0.0323506, "- N/A -   "
11.15, 386.955, 0.0187931, NaN, NaN, NaN, 0.03112983, "- N/A -   "
11.17, 387.78, 0.0188319, NaN, NaN, NaN, 0.0286883, "- N/A -   "
11.19, 388.604, 0.01886803, NaN, NaN, NaN, 0.0274675, "- N/A -   "
11.21, 389.193, 0.0188986, NaN, NaN, NaN, 0.0286883, "- N/A -   "
11.23, 389.783, 0.0189263, NaN, NaN, NaN, 0.03112983, "- N/A -   "
11.25, 390.6074, 0.0189569, NaN, NaN, NaN, 0.0323506, "- N/A -   "
11.27, 391.197, 0.01898743, NaN, NaN, NaN, 0.0347922, "- N/A -   "
11.29, 391.786, 0.01901242, NaN, NaN, NaN, 0.0372337, "- N/A -   "
11.31, 392.3748, 0.0190402, NaN, NaN, NaN, 0.0396753, "- N/A -   "
11.33, 392.9639, 0.0190707, NaN, NaN, NaN, 0.04089605, "- N/A -   "
11.35, 393.7887, 0.0191013, NaN, NaN, NaN, 0.04211683, "- N/A -   "
11.37, 394.3778, 0.01913182, NaN, NaN, NaN, 0.0433376, "- N/A -   "
11.39, 395.2026, 0.0191651, NaN, NaN, NaN, 0.0433376, "- N/A -   "
11.41, 395.792, 0.0191985, NaN, NaN, NaN, 0.0445584, "- N/A -   "
11.43, 396.734, 0.0192318, NaN, NaN, NaN, 0.0433376, "- N/A -   "
11.45, 397.559, 0.0192651, NaN, NaN, NaN, 0.0433376, "- N/A -   "
11.47, 398.266, 0.0192984, NaN, NaN, NaN, 0.0445584, "- N/A -   "
11.49, 399.091, 0.0193317, NaN, NaN, NaN, 0.0445584, "- N/A -   "
11.51, 399.798, 0.0193651, NaN, NaN, NaN, 0.0445584, "- N/A -   "
11.53, 400.74, 0.0194012, NaN, NaN, NaN, 0.04211683, "- N/A -   "
11.55, 401.447, 0.01943726, NaN, NaN, NaN, 0.04211683, "- N/A -   "
11.57, 402.2722, 0.0194706, NaN, NaN, NaN, 0.04089605, "- N/A -   "
11.59, 403.097, 0.01950668, NaN, NaN, NaN, 0.0396753, "- N/A -   "
11.61, 404.1574, 0.0195483, NaN, NaN, NaN, 0.0372337, "- N/A -   "
11.62, 404.6287, 0.01956777, NaN, NaN, NaN, 0.0347922, "- N/A -   "
11.63, 405.1, 0.01959, NaN, NaN, NaN, 0.0335714, "- N/A -   "
11.64, 405.571, 0.0196094, NaN, NaN, NaN, 0.03112983, "- N/A -   "
[...]
23.84, 918.3753, 0.0399269, NaN, NaN, NaN, 0.0384545, "- N/A -   "
23.88, 920.3861, 0.0399991, NaN, NaN, NaN, 0.03601294, "- N/A -   "
23.92, 922.3969, 0.0400741, NaN, NaN, NaN, 0.0323506, "- N/A -   "
23.96, 924.2894, 0.0401463, NaN, NaN, NaN, 0.03112983, "- N/A -   "
24, 925.9453, 0.0402101, NaN, NaN, NaN, 0.03112983, "- N/A -   "
24.04, 927.601, 0.04027679, NaN, NaN, NaN, 0.0323506, "- N/A -   "
24.08, 929.257, 0.0403407, NaN, NaN, NaN, 0.0323506, "- N/A -   "
24.12, 931.15, 0.04041007, NaN, NaN, NaN, 0.03112983, "- N/A -   "
24.16, 933.0422, 0.0404823, NaN, NaN, NaN, 0.0286883, "- N/A -   "
24.2, 934.8164, 0.04054891, NaN, NaN, NaN, 0.0299091, "- N/A -   "
24.24, 936.354, 0.04061, NaN, NaN, NaN, 0.03112983, "- N/A -   "
24.28, 937.892, 0.0406655, NaN, NaN, NaN, 0.03601294, "- N/A -   "
24.32, 939.311, 0.0407211, NaN, NaN, NaN, 0.04089605, "- N/A -   "
24.36, 940.8487, 0.0407822, NaN, NaN, NaN, 0.0433376, "- N/A -   "
24.4, 942.505, 0.04084602, NaN, NaN, NaN, 0.04577916, "- N/A -   "
24.44, 944.2788, 0.0409099, NaN, NaN, NaN, 0.04577916, "- N/A -   "
24.48, 946.053, 0.0409793, NaN, NaN, NaN, 0.04577916, "- N/A -   "
24.52, 948.064, 0.0410543, NaN, NaN, NaN, 0.04211683, "- N/A -   "
24.56, 950.0746, 0.04112647, NaN, NaN, NaN, 0.0384545, "- N/A -   "
24.6, 952.0853, 0.0412014, NaN, NaN, NaN, 0.03601294, "- N/A -   "
24.64, 953.978, 0.0412709, NaN, NaN, NaN, 0.0335714, "- N/A -   "
24.68, 955.7521, 0.04134306, NaN, NaN, NaN, 0.03112983, "- N/A -   "
24.72, 957.7628, 0.0414153, NaN, NaN, NaN, 0.0286883, "- N/A -   "
24.76, 959.3005, 0.0414763, NaN, NaN, NaN, 0.03112983, "- N/A -   "
24.8, 960.9565, 0.04154299, NaN, NaN, NaN, 0.03112983, "- N/A -   "
24.84, 962.731, 0.0416096, NaN, NaN, NaN, 0.03112983, "- N/A -   "
24.88, 964.2683, 0.0416707, NaN, NaN, NaN, 0.0335714, "- N/A -   "
24.92, 965.9242, 0.041729, NaN, NaN, NaN, 0.0372337, "- N/A -   "
24.96, 967.225, 0.04178734, NaN, NaN, NaN, 0.04089605, "- N/A -   "
25, 968.763, 0.0418429, NaN, NaN, NaN, 0.04577916, "- N/A -   "
25.04, 970.655, 0.0419123, NaN, NaN, NaN, 0.0445584, "- N/A -   "
25.08, 972.548, 0.0419873, NaN, NaN, NaN, 0.04089605, "- N/A -   "
25.12, 974.3222, 0.0420539, NaN, NaN, NaN, 0.04211683, "- N/A -   "
25.16, 975.9781, 0.0421178, NaN, NaN, NaN, 0.0433376, "- N/A -   "
25.2, 978.1071, 0.04219552, NaN, NaN, NaN, 0.0384545, "- N/A -   "
25.24, 980.2362, 0.04227327, NaN, NaN, NaN, 0.0335714, "- N/A -   "
25.28, 982.1287, 0.0423455, NaN, NaN, NaN, 0.0299091, "- N/A -   "
25.32, 984.0212, 0.0424177, NaN, NaN, NaN, 0.0286883, "- N/A -   "
25.36, 985.9137, 0.0424871, NaN, NaN, NaN, 0.0262467, "- N/A -   "
25.4, 987.57, 0.0425537, NaN, NaN, NaN, 0.0262467, "- N/A -   "
25.44, 989.2255, 0.0426148, NaN, NaN, NaN, 0.0286883, "- N/A -   "
25.48, 990.8815, 0.0426759, NaN, NaN, NaN, 0.0323506, "- N/A -   "
25.52, 992.4191, 0.0427342, NaN, NaN, NaN, 0.0347922, "- N/A -   "
25.56, 994.1933, 0.04280363, NaN, NaN, NaN, 0.0347922, "- N/A -   "
25.6, 995.9675, 0.0428675, NaN, NaN, NaN, 0.0347922, "- N/A -   "
25.64, 997.505, 0.0429314, NaN, NaN, NaN, 0.03601294, "- N/A -   "
25.68, 998.925, 0.0429869, NaN, NaN, NaN, 0.04089605, "- N/A -   "
25.72, 1000.46, 0.0430452, NaN, NaN, NaN, 0.04577916, "- N/A -   "
25.76, 1002, 0.04310352, NaN, NaN, NaN, 0.0482207, "- N/A -   "
25.8, 1003.89, 0.04317016, NaN, NaN, NaN, 0.0482207, "- N/A -   "
25.84, 1005.78, 0.0432424, NaN, NaN, NaN, 0.04577916, "- N/A -   "
25.88, 1008.15, 0.0433284, NaN, NaN, NaN, 0.0372337, "- N/A -   "
25.92, 1010.28, 0.0434062, NaN, NaN, NaN, 0.0323506, "- N/A -   "
25.96, 1012.172, 0.04347838, NaN, NaN, NaN, 0.0299091, "- N/A -   "
26, 1013.954, 0.0435478, NaN, NaN, NaN, 0.0299091, "- N/A -   "
26.04, 1015.62, 0.0436089, NaN, NaN, NaN, 0.0323506, "- N/A -   "
26.08, 1017.05, 0.0436644, NaN, NaN, NaN, 0.03601294, "- N/A -   "
26.12, 1018.72, 0.0437311, NaN, NaN, NaN, 0.0372337, "- N/A -   "
26.16, 1020.63, 0.0438005, NaN, NaN, NaN, 0.0372337, "- N/A -   "
26.2, 1022.42, 0.0438699, NaN, NaN, NaN, 0.0347922, "- N/A -   "
26.24, 1024.45, 0.0439421, NaN, NaN, NaN, 0.0335714, "- N/A -   "
26.28, 1026, 0.0440032, NaN, NaN, NaN, 0.0347922, "- N/A -   "
26.32, 1027.668, 0.0440671, NaN, NaN, NaN, 0.0372337, "- N/A -   "
26.36, 1029.22, 0.0441254, NaN, NaN, NaN, 0.0396753, "- N/A -   "
26.4, 1031.01, 0.04418923, NaN, NaN, NaN, 0.04089605, "- N/A -   "
26.44, 1032.68, 0.04425587, NaN, NaN, NaN, 0.04089605, "- N/A -   "
26.48, 1034.47, 0.04431974, NaN, NaN, NaN, 0.04211683, "- N/A -   "
26.52, 1036.25, 0.0443836, NaN, NaN, NaN, 0.0433376, "- N/A -   "
26.56, 1038.16, 0.0444586, NaN, NaN, NaN, 0.0396753, "- N/A -   "
26.6, 1040.19, 0.04453077, NaN, NaN, NaN, 0.0372337, "- N/A -   "
26.64, 1042.1, 0.0445974, NaN, NaN, NaN, 0.0372337, "- N/A -   "
26.68, 1043.53, 0.0446613, NaN, NaN, NaN, 0.0384545, "- N/A -   "
26.72, 1045.56, 0.0447307, NaN, NaN, NaN, 0.0372337, "- N/A -   "
26.76, 1047.7, 0.0448112, NaN, NaN, NaN, 0.0323506, "- N/A -   "
26.8, 1049.61, 0.0448806, NaN, NaN, NaN, 0.0299091, "- N/A -   "
26.84, 1051.52, 0.04495006, NaN, NaN, NaN, 0.0286883, "- N/A -   "
26.88, 1053.19, 0.0450139, NaN, NaN, NaN, 0.0299091, "- N/A -   "
26.92, 1054.62, 0.0450722, NaN, NaN, NaN, 0.0347922, "- N/A -   "
26.96, 1056.527, 0.0451417, NaN, NaN, NaN, 0.0323506, "- N/A -   "
27, 1058.32, 0.0452083, NaN, NaN, NaN, 0.0335714, "- N/A -   "
27.04, 1059.866, 0.04526383, NaN, NaN, NaN, 0.0372337, "- N/A -   "
27.08, 1061.3, 0.0453221, NaN, NaN, NaN, 0.04089605, "- N/A -   "
27.12, 1063.09, 0.0453888, NaN, NaN, NaN, 0.04211683, "- N/A -   "
27.16, 1064.76, 0.0454471, NaN, NaN, NaN, 0.0445584, "- N/A -   "
27.2, 1066.42, 0.045511, NaN, NaN, NaN, 0.04577916, "- N/A -   "
27.24, 1068.33, 0.0455804, NaN, NaN, NaN, 0.0445584, "- N/A -   "
27.28, 1070.48, 0.04565813, NaN, NaN, NaN, 0.0396753, "- N/A -   "
27.32, 1072.51, 0.0457303, NaN, NaN, NaN, 0.0372337, "- N/A -   "
27.36, 1074.534, 0.0458025, NaN, NaN, NaN, 0.0347922, "- N/A -   "
27.4, 1076.08, 0.0458636, NaN, NaN, NaN, 0.0372337, "- N/A -   "
27.44, 1077.873, 0.04593303, NaN, NaN, NaN, 0.03601294, "- N/A -   "
27.48, 1079.66, 0.04600245, NaN, NaN, NaN, 0.0347922, "- N/A -   "
27.52, 1081.81, 0.0460746, NaN, NaN, NaN, 0.0323506, "- N/A -   "
27.56, 1083.84, 0.0461524, NaN, NaN, NaN, 0.0286883, "- N/A -   "
27.6, 1085.51, 0.04621626, NaN, NaN, NaN, 0.0299091, "- N/A -   "
27.64, 1087.06, 0.0462746, NaN, NaN, NaN, 0.0323506, "- N/A -   "
27.68, 1088.61, 0.0463384, NaN, NaN, NaN, 0.0347922, "- N/A -   "
27.72, 1090.04, 0.0463912, NaN, NaN, NaN, 0.04089605, "- N/A -   "
27.76, 1091.587, 0.04644951, NaN, NaN, NaN, 0.0433376, "- N/A -   "
27.8, 1093.14, 0.04650782, NaN, NaN, NaN, 0.04699994, "- N/A -   "
27.84, 1094.93, 0.0465745, NaN, NaN, NaN, 0.0482207, "- N/A -   "
27.88, 1096.83, 0.04664388, NaN, NaN, NaN, 0.04577916, "- N/A -   "
27.92, 1098.98, 0.0467216, NaN, NaN, NaN, 0.04089605, "- N/A -   "
27.96, 1101.01, 0.0467966, NaN, NaN, NaN, 0.0372337, "- N/A -   "
28, 1103.15, 0.04687435, NaN, NaN, NaN, 0.0323506, "- N/A -   "
28.04, 1105.06, 0.04694377, NaN, NaN, NaN, 0.03112983, "- N/A -   "
28.08, 1106.732, 0.04700763, NaN, NaN, NaN, 0.0323506, "- N/A -   "
28.12, 1108.76, 0.0470826, NaN, NaN, NaN, 0.0286883, "- N/A -   "
28.16, 1110.67, 0.047152, NaN, NaN, NaN, 0.0274675, "- N/A -   "
28.2, 1112.456, 0.04722144, NaN, NaN, NaN, 0.0262467, "- N/A -   "
28.24, 1114.13, 0.04728531, NaN, NaN, NaN, 0.0274675, "- N/A -   "
28.28, 1115.56, 0.0473408, NaN, NaN, NaN, 0.0323506, "- N/A -   "
28.32, 1117.11, 0.04740193, NaN, NaN, NaN, 0.03601294, "- N/A -   "
28.36, 1118.66, 0.0474575, NaN, NaN, NaN, 0.0396753, "- N/A -   "
28.4, 1120.21, 0.04751856, NaN, NaN, NaN, 0.0433376, "- N/A -   "
28.44, 1121.88, 0.0475796, NaN, NaN, NaN, 0.04577916, "- N/A -   "
28.48, 1123.67, 0.0476463, NaN, NaN, NaN, 0.0445584, "- N/A -   "
28.52, 1125.45, 0.04771293, NaN, NaN, NaN, 0.0445584, "- N/A -   "
28.56, 1127.36, 0.04778235, NaN, NaN, NaN, 0.0433376, "- N/A -   "
28.6, 1129.27, 0.0478518, NaN, NaN, NaN, 0.0433376, "- N/A -   "
28.64, 1131.298, 0.04792674, NaN, NaN, NaN, 0.0396753, "- N/A -   "
28.68, 1133.33, 0.04800171, NaN, NaN, NaN, 0.0347922, "- N/A -   "
28.72, 1135.35, 0.04807668, NaN, NaN, NaN, 0.03112983, "- N/A -   "
28.76, 1137.38, 0.0481461, NaN, NaN, NaN, 0.0299091, "- N/A -   "
28.8, 1138.93, 0.04820997, NaN, NaN, NaN, 0.03112983, "- N/A -   "
28.84, 1140.72, 0.04827661, NaN, NaN, NaN, 0.03112983, "- N/A -   "
28.88, 1142.51, 0.0483405, NaN, NaN, NaN, 0.0323506, "- N/A -   "
28.92, 1144.18, 0.04840434, NaN, NaN, NaN, 0.0335714, "- N/A -   "
28.96, 1145.73, 0.0484654, NaN, NaN, NaN, 0.03601294, "- N/A -   "
29, 1147.52, 0.0485293, NaN, NaN, NaN, 0.0372337, "- N/A -   "
29.04, 1149.07, 0.04859316, NaN, NaN, NaN, 0.0384545, "- N/A -   "
29.08, 1150.86, 0.048657, NaN, NaN, NaN, 0.0396753, "- N/A -   "
29.12, 1152.52, 0.04872089, NaN, NaN, NaN, 0.04211683, "- N/A -   "
29.16, 1154.08, 0.0487792, NaN, NaN, NaN, 0.0445584, "- N/A -   "
29.2, 1155.74, 0.0488431, NaN, NaN, NaN, 0.04577916, "- N/A -   "
29.24, 1157.89, 0.04891804, NaN, NaN, NaN, 0.04211683, "- N/A -   "
29.28, 1160.04, 0.0489986, NaN, NaN, NaN, 0.03601294, "- N/A -   "
29.32, 1162.3, 0.0490763, NaN, NaN, NaN, 0.03112983, "- N/A -   "
29.36, 1164.33, 0.0491513, NaN, NaN, NaN, 0.0274675, "- N/A -   "
29.4, 1166.12, 0.04921793, NaN, NaN, NaN, 0.0286883, "- N/A -   "
29.44, 1167.67, 0.04927902, NaN, NaN, NaN, 0.0299091, "- N/A -   "
29.48, 1169.1, 0.04933455, NaN, NaN, NaN, 0.0347922, "- N/A -   "
29.52, 1170.89, 0.04939842, NaN, NaN, NaN, 0.0372337, "- N/A -   "
29.56, 1172.8, 0.0494706, NaN, NaN, NaN, 0.0347922, "- N/A -   "
29.6, 1174.825, 0.0495456, NaN, NaN, NaN, 0.0299091, "- N/A -   "
29.64, 1176.61, 0.0496122, NaN, NaN, NaN, 0.0299091, "- N/A -   "
29.68, 1178.164, 0.04967054, NaN, NaN, NaN, 0.0335714, "- N/A -   "
29.72, 1179.6, 0.0497261, NaN, NaN, NaN, 0.0384545, "- N/A -   "
29.76, 1181.26, 0.04978994, NaN, NaN, NaN, 0.0396753, "- N/A -   "
29.8, 1183.05, 0.0498538, NaN, NaN, NaN, 0.04089605, "- N/A -   "
29.84, 1184.72, 0.0499204, NaN, NaN, NaN, 0.04089605, "- N/A -   "
29.88, 1186.75, 0.04999264, NaN, NaN, NaN, 0.0396753, "- N/A -   "
29.92, 1188.42, 0.05005651, NaN, NaN, NaN, 0.04089605, "- N/A -   "
29.96, 1190.33, 0.0501259, NaN, NaN, NaN, 0.0384545, "- N/A -   "
30, 1192.24, 0.0501953, NaN, NaN, NaN, 0.0372337, "- N/A -   "
30.04, 1194.02, 0.050262, NaN, NaN, NaN, 0.0372337, "- N/A -   "
30.08, 1195.81, 0.0503259, NaN, NaN, NaN, 0.0384545, "- N/A -   "
30.12, 1197.602, 0.0503953, NaN, NaN, NaN, 0.0384545, "- N/A -   "
30.16, 1199.63, 0.05046747, NaN, NaN, NaN, 0.0347922, "- N/A -   "
30.2, 1201.42, 0.0505369, NaN, NaN, NaN, 0.0335714, "- N/A -   "
30.24, 1203.21, 0.0506063, NaN, NaN, NaN, 0.0335714, "- N/A -   "
30.28, 1205.23, 0.0506757, NaN, NaN, NaN, 0.03112983, "- N/A -   "
30.32, 1206.9, 0.0507424, NaN, NaN, NaN, 0.03112983, "- N/A -   "
30.36, 1208.69, 0.050809, NaN, NaN, NaN, 0.0323506, "- N/A -   "
30.4, 1210.48, 0.05087565, NaN, NaN, NaN, 0.03112983, "- N/A -   "
30.44, 1212.15, 0.0509367, NaN, NaN, NaN, 0.0335714, "- N/A -   "
30.48, 1213.58, 0.0509923, NaN, NaN, NaN, 0.0384545, "- N/A -   "
30.52, 1215.13, 0.0510534, NaN, NaN, NaN, 0.04211683, "- N/A -   "
30.56, 1216.8, 0.0511144, NaN, NaN, NaN, 0.0433376, "- N/A -   "
30.6, 1218.47, 0.0511783, NaN, NaN, NaN, 0.04577916, "- N/A -   "
30.64, 1220.38, 0.0512477, NaN, NaN, NaN, 0.0433376, "- N/A -   "
30.68, 1222.41, 0.05132271, NaN, NaN, NaN, 0.04089605, "- N/A -   "
30.72, 1224.553, 0.0514005, NaN, NaN, NaN, 0.03601294, "- N/A -   "
30.76, 1226.7, 0.0514782, NaN, NaN, NaN, 0.03112983, "- N/A -   "
30.8, 1228.61, 0.0515476, NaN, NaN, NaN, 0.0299091, "- N/A -   "
30.84, 1230.16, 0.0516087, NaN, NaN, NaN, 0.0323506, "- N/A -   "
30.88, 1231.708, 0.051667, NaN, NaN, NaN, 0.03601294, "- N/A -   "
30.92, 1233.5, 0.05173922, NaN, NaN, NaN, 0.0335714, "- N/A -   "
30.96, 1235.64, 0.05181697, NaN, NaN, NaN, 0.0286883, "- N/A -   "
31, 1237.55, 0.05188361, NaN, NaN, NaN, 0.0286883, "- N/A -   "
31.04, 1239.22, 0.0519447, NaN, NaN, NaN, 0.03112983, "- N/A -   "
31.08, 1240.652, 0.0520002, NaN, NaN, NaN, 0.03601294, "- N/A -   "
31.12, 1242.083, 0.0520613, NaN, NaN, NaN, 0.0384545, "- N/A -   "
31.16, 1243.63, 0.0521196, NaN, NaN, NaN, 0.04211683, "- N/A -   "
31.2, 1245.3, 0.0521779, NaN, NaN, NaN, 0.04577916, "- N/A -   "
31.24, 1246.85, 0.0522418, NaN, NaN, NaN, 0.04699994, "- N/A -   "
31.28, 1248.76, 0.05231123, NaN, NaN, NaN, 0.04577916, "- N/A -   "
31.32, 1250.79, 0.05238898, NaN, NaN, NaN, 0.04211683, "- N/A -   "
31.36, 1252.82, 0.0524584, NaN, NaN, NaN, 0.0396753, "- N/A -   "
31.4, 1254.72, 0.0525306, NaN, NaN, NaN, 0.0372337, "- N/A -   "
31.44, 1256.51, 0.0526, NaN, NaN, NaN, 0.03601294, "- N/A -   "
31.48, 1258.3, 0.0526667, NaN, NaN, NaN, 0.03601294, "- N/A -   "
31.52, 1260.45, 0.0527444, NaN, NaN, NaN, 0.0323506, "- N/A -   "
31.56, 1262.24, 0.052811, NaN, NaN, NaN, 0.0323506, "- N/A -   "
31.6, 1263.79, 0.0528749, NaN, NaN, NaN, 0.0323506, "- N/A -   "
31.64, 1265.81, 0.0529499, NaN, NaN, NaN, 0.0286883, "- N/A -   "
31.68, 1267.48, 0.0530137, NaN, NaN, NaN, 0.0299091, "- N/A -   "
31.72, 1269.034, 0.0530721, NaN, NaN, NaN, 0.0347922, "- N/A -   "
31.76, 1270.7, 0.05313315, NaN, NaN, NaN, 0.03601294, "- N/A -   "
31.8, 1272.13, 0.0531915, NaN, NaN, NaN, 0.0396753, "- N/A -   "
31.84, 1273.68, 0.0532498, NaN, NaN, NaN, 0.0433376, "- N/A -   "
31.88, 1275.35, 0.05331641, NaN, NaN, NaN, 0.0433376, "- N/A -   "
31.92, 1277.14, 0.0533831, NaN, NaN, NaN, 0.0433376, "- N/A -   "
31.96, 1279.05, 0.0534497, NaN, NaN, NaN, 0.0433376, "- N/A -   "
32, 1280.72, 0.05351912, NaN, NaN, NaN, 0.0433376, "- N/A -   "
32.04, 1282.63, 0.0535885, NaN, NaN, NaN, 0.04089605, "- N/A -   "
32.08, 1284.656, 0.0536663, NaN, NaN, NaN, 0.0372337, "- N/A -   "
32.12, 1286.68, 0.0537413, NaN, NaN, NaN, 0.0323506, "- N/A -   "
32.16, 1288.83, 0.05381623, NaN, NaN, NaN, 0.0286883, "- N/A -   "
32.2, 1290.857, 0.0538884, NaN, NaN, NaN, 0.0262467, "- N/A -   "
32.24, 1292.29, 0.0539467, NaN, NaN, NaN, 0.0299091, "- N/A -   "
32.28, 1293.72, 0.05400783, NaN, NaN, NaN, 0.0335714, "- N/A -   "
32.32, 1295.39, 0.0540661, NaN, NaN, NaN, 0.03601294, "- N/A -   "
32.36, 1297.18, 0.05413278, NaN, NaN, NaN, 0.03601294, "- N/A -   "
32.4, 1298.97, 0.0541994, NaN, NaN, NaN, 0.0372337, "- N/A -   "
32.44, 1300.755, 0.0542633, NaN, NaN, NaN, 0.0372337, "- N/A -   "
32.48, 1302.31, 0.0543272, NaN, NaN, NaN, 0.0384545, "- N/A -   "
32.52, 1303.74, 0.0543827, NaN, NaN, NaN, 0.0433376, "- N/A -   "
32.56, 1305.53, 0.05444933, NaN, NaN, NaN, 0.0433376, "- N/A -   "
32.6, 1307.31, 0.0545104, NaN, NaN, NaN, 0.04577916, "- N/A -   "
32.64, 1309.1, 0.05458261, NaN, NaN, NaN, 0.0445584, "- N/A -   "
32.68, 1311.25, 0.05466036, NaN, NaN, NaN, 0.0396753, "- N/A -   "
32.72, 1313.4, 0.0547381, NaN, NaN, NaN, 0.0347922, "- N/A -   "
32.76, 1315.3, 0.0548075, NaN, NaN, NaN, 0.0335714, "- N/A -   "
32.8, 1317.09, 0.05487695, NaN, NaN, NaN, 0.03112983, "- N/A -   "
32.84, 1318.88, 0.0549408, NaN, NaN, NaN, 0.0323506, "- N/A -   "
32.88, 1320.31, 0.0549991, NaN, NaN, NaN, 0.03601294, "- N/A -   "
32.92, 1321.98, 0.05506299, NaN, NaN, NaN, 0.0372337, "- N/A -   "
32.96, 1323.89, 0.0551324, NaN, NaN, NaN, 0.03601294, "- N/A -   "
33, 1325.92, 0.0552046, NaN, NaN, NaN, 0.0335714, "- N/A -   "
33.04, 1327.71, 0.0552768, NaN, NaN, NaN, 0.0323506, "- N/A -   "
33.08, 1329.49, 0.05534067, NaN, NaN, NaN, 0.0323506, "- N/A -   "
33.12, 1330.93, 0.05539898, NaN, NaN, NaN, 0.03601294, "- N/A -   "
33.16, 1332.6, 0.05546007, NaN, NaN, NaN, 0.0396753, "- N/A -   "
33.2, 1334.15, 0.0555212, NaN, NaN, NaN, 0.04089605, "- N/A -   "
33.24, 1336.05, 0.05559057, NaN, NaN, NaN, 0.0396753, "- N/A -   "
33.28, 1337.96, 0.05566, NaN, NaN, NaN, 0.0384545, "- N/A -   "
33.32, 1339.51, 0.0557239, NaN, NaN, NaN, 0.0396753, "- N/A -   "
33.36, 1341.3, 0.0557905, NaN, NaN, NaN, 0.0396753, "- N/A -   "
33.4, 1343.21, 0.05585714, NaN, NaN, NaN, 0.0396753, "- N/A -   "
33.44, 1345.12, 0.05592656, NaN, NaN, NaN, 0.0384545, "- N/A -   "
33.48, 1347.02, 0.0559988, NaN, NaN, NaN, 0.03601294, "- N/A -   "
33.52, 1348.69, 0.05606818, NaN, NaN, NaN, 0.03601294, "- N/A -   "
33.56, 1350.72, 0.0561404, NaN, NaN, NaN, 0.0323506, "- N/A -   "
33.6, 1352.75, 0.0562126, NaN, NaN, NaN, 0.0299091, "- N/A -   "
33.64, 1354.42, 0.0562764, NaN, NaN, NaN, 0.03112983, "- N/A -   "
33.68, 1355.97, 0.0563403, NaN, NaN, NaN, 0.0335714, "- N/A -   "
33.72, 1357.76, 0.05640694, NaN, NaN, NaN, 0.0323506, "- N/A -   "
33.76, 1359.55, 0.0564736, NaN, NaN, NaN, 0.0323506, "- N/A -   "
33.8, 1361.335, 0.0565402, NaN, NaN, NaN, 0.0323506, "- N/A -   "
33.84, 1363, 0.0566041, NaN, NaN, NaN, 0.0335714, "- N/A -   "
33.88, 1364.44, 0.05665962, NaN, NaN, NaN, 0.0384545, "- N/A -   "
33.92, 1365.99, 0.05672071, NaN, NaN, NaN, 0.04211683, "- N/A -   "
33.96, 1367.77, 0.0567818, NaN, NaN, NaN, 0.0433376, "- N/A -   "
34, 1369.09, 0.05684011, NaN, NaN, NaN, 0.04699994, "- N/A -   "
34.04, 1371.11, 0.05690953, NaN, NaN, NaN, 0.04577916, "- N/A -   "
34.08, 1373.141, 0.0569845, NaN, NaN, NaN, 0.04211683, "- N/A -   "
34.12, 1375.17, 0.0570623, NaN, NaN, NaN, 0.0384545, "- N/A -   "
34.16, 1377.31, 0.05713722, NaN, NaN, NaN, 0.0335714, "- N/A -   "
34.2, 1379.1, 0.0572039, NaN, NaN, NaN, 0.0347922, "- N/A -   "
34.24, 1380.65, 0.0572677, NaN, NaN, NaN, 0.03601294, "- N/A -   "
34.28, 1382.44, 0.05733437, NaN, NaN, NaN, 0.0347922, "- N/A -   "
34.32, 1384.47, 0.0574066, NaN, NaN, NaN, 0.0323506, "- N/A -   "
34.36, 1386.26, 0.0574788, NaN, NaN, NaN, 0.03112983, "- N/A -   "
34.4, 1388.41, 0.05755374, NaN, NaN, NaN, 0.0262467, "- N/A -   "
34.44, 1389.84, 0.05761205, NaN, NaN, NaN, 0.0299091, "- N/A -   "
34.48, 1391.51, 0.0576731, NaN, NaN, NaN, 0.0323506, "- N/A -   "
34.52, 1393.056, 0.05773423, NaN, NaN, NaN, 0.03601294, "- N/A -   "
34.56, 1394.37, 0.057787, NaN, NaN, NaN, 0.04089605, "- N/A -   "
34.6, 1395.92, 0.05784807, NaN, NaN, NaN, 0.0445584, "- N/A -   "
34.64, 1397.59, 0.05790916, NaN, NaN, NaN, 0.04577916, "- N/A -   "
34.68, 1399.14, 0.057973, NaN, NaN, NaN, 0.04699994, "- N/A -   "
34.72, 1401.17, 0.058048, NaN, NaN, NaN, 0.0445584, "- N/A -   "
34.76, 1403.31, 0.0581202, NaN, NaN, NaN, 0.04089605, "- N/A -   "
34.8, 1405.339, 0.0581979, NaN, NaN, NaN, 0.03601294, "- N/A -   "
34.84, 1407.49, 0.0582757, NaN, NaN, NaN, 0.0323506, "- N/A -   "
34.88, 1409.155, 0.0583423, NaN, NaN, NaN, 0.03112983, "- N/A -   "
34.92, 1411.18, 0.0584145, NaN, NaN, NaN, 0.0286883, "- N/A -   "
34.96, 1413.09, 0.05848395, NaN, NaN, NaN, 0.0274675, "- N/A -   "
35, 1414.64, 0.0585478, NaN, NaN, NaN, 0.0286883, "- N/A -   "
35.04, 1416.31, 0.0586117, NaN, NaN, NaN, 0.0299091, "- N/A -   "
35.08, 1418.1, 0.0586811, NaN, NaN, NaN, 0.0299091, "- N/A -   "
35.12, 1419.65, 0.05873941, NaN, NaN, NaN, 0.0323506, "- N/A -   "
35.16, 1421.2, 0.05879772, NaN, NaN, NaN, 0.03601294, "- N/A -   "
35.2, 1422.63, 0.058856, NaN, NaN, NaN, 0.04089605, "- N/A -   "
35.24, 1424.06, 0.0589143, NaN, NaN, NaN, 0.04577916, "- N/A -   "
35.28, 1425.85, 0.05897821, NaN, NaN, NaN, 0.04699994, "- N/A -   "
35.32, 1427.639, 0.0590449, NaN, NaN, NaN, 0.04699994, "- N/A -   "
35.36, 1429.31, 0.0591115, NaN, NaN, NaN, 0.04699994, "- N/A -   "
35.4, 1431.34, 0.05918369, NaN, NaN, NaN, 0.0433376, "- N/A -   "
35.44, 1433.36, 0.0592559, NaN, NaN, NaN, 0.04089605, "- N/A -   "
35.48, 1435.51, 0.0593364, NaN, NaN, NaN, 0.0347922, "- N/A -   "
35.52, 1437.66, 0.05941416, NaN, NaN, NaN, 0.0299091, "- N/A -   "
35.56, 1439.56, 0.0594864, NaN, NaN, NaN, 0.0274675, "- N/A -   "
35.6, 1441.11, 0.0595474, NaN, NaN, NaN, 0.0299091, "- N/A -   "
35.64, 1442.784, 0.05961131, NaN, NaN, NaN, 0.0323506, "- N/A -   "
35.68, 1444.45, 0.0596724, NaN, NaN, NaN, 0.0335714, "- N/A -   "
35.72, 1446, 0.0597335, NaN, NaN, NaN, 0.03601294, "- N/A -   "
35.76, 1447.67, 0.0597974, NaN, NaN, NaN, 0.0372337, "- N/A -   "
35.8, 1449.46, 0.059864, NaN, NaN, NaN, 0.0372337, "- N/A -   "
35.829, 1450.774, 0.059914, NaN, NaN, NaN, 0.03601294, "- N/A -   "