File: 2_Tensile_Data/Hamel_ForceTest_Bolt5_Test9.csv
Time, Load (lb), Position (in), AxialStrain (in), TransverseStrain (in), Auxiliary (), Control Out (V), Stress (psi)
0.0, 13.3281, 0.0, NaN, NaN, NaN, -0.007935055, "- N/A -   "
0.01, 13.3281, 0.0, NaN, NaN, NaN, -6.103888E-4, "- N/A -   "
0.02, 13.2101, 0.0, NaN, NaN, NaN, 0.007935055, "- N/A -   "
0.03, 13.2101, 2.776752E-6, NaN, NaN, NaN, 0.0274675, "- N/A -   "
0.04, 13.3281, 5.553504E-6, NaN, NaN, NaN, 0.0445584, "- N/A -   "
0.05, 13.446, 1.66605e-05, NaN, NaN, NaN, 0.0592077, "- N/A -   "
0.06, 13.6819, 3.3321e-05, NaN, NaN, NaN, 0.07141549, "- N/A -   "
0.07, 14.0357, 5.5535e-05, NaN, NaN, NaN, 0.08118171, "- N/A -   "
0.08, 14.5075, 8.05258E-5, NaN, NaN, NaN, 0.0897272, "- N/A -   "
0.09, 15.0973, 0.000108293, NaN, NaN, NaN, 0.09705182, "- N/A -   "
0.1, 15.5691, 0.000141614, NaN, NaN, NaN, 0.0982726, "- N/A -   "
0.11, 16.1588, 0.000172159, NaN, NaN, NaN, 0.09216871, "- N/A -   "
0.12, 16.6306, 0.000199926, NaN, NaN, NaN, 0.08606482, "- N/A -   "
0.13, 17.1024, 2.304704E-4, NaN, NaN, NaN, 0.08118171, "- N/A -   "
0.14, 17.5742, 0.000255461, NaN, NaN, NaN, 0.0762986, "- N/A -   "
0.15, 17.8101, 2.776752E-4, NaN, NaN, NaN, 0.07385705, "- N/A -   "
0.16, 18.16391, 2.998892E-4, NaN, NaN, NaN, 0.07141549, "- N/A -   "
0.17, 18.5178, 3.165497E-4, NaN, NaN, NaN, 0.07141549, "- N/A -   "
0.18, 18.7536, 0.000335987, NaN, NaN, NaN, 0.0701947, "- N/A -   "
0.19, 19.1075, 0.000358201, NaN, NaN, NaN, 0.0689739, "- N/A -   "
0.2, 19.3434, 3.748615E-4, NaN, NaN, NaN, 0.06775316, "- N/A -   "
0.21, 19.8152, 0.000394299, NaN, NaN, NaN, 0.06653238, "- N/A -   "
0.22, 20.05107, 4.13736E-4, NaN, NaN, NaN, 0.0653116, "- N/A -   "
0.23, 20.4049, 4.331733E-4, NaN, NaN, NaN, 0.0640908, "- N/A -   "
0.24, 20.6408, 0.000452611, NaN, NaN, NaN, 0.0640908, "- N/A -   "
0.25, 21.1126, 4.720478E-4, NaN, NaN, NaN, 0.06287005, "- N/A -   "
0.26, 21.3485, 4.887083E-4, NaN, NaN, NaN, 0.06164927, "- N/A -   "
0.27, 21.5844, 5.081456E-4, NaN, NaN, NaN, 0.0604285, "- N/A -   "
0.28, 21.93823, 0.000527583, NaN, NaN, NaN, 0.0592077, "- N/A -   "
0.29, 22.1741, 0.000549797, NaN, NaN, NaN, 0.0579869, "- N/A -   "
0.3, 22.528, 0.000569234, NaN, NaN, NaN, 0.05676616, "- N/A -   "
0.31, 22.88181, 0.000588671, NaN, NaN, NaN, 0.0555454, "- N/A -   "
0.32, 23.1177, 0.000608109, NaN, NaN, NaN, 0.0531038, "- N/A -   "
0.33, 23.4715, 0.000627546, NaN, NaN, NaN, 0.05188305, "- N/A -   "
0.34, 23.82539, 6.497599E-4, NaN, NaN, NaN, 0.0494415, "- N/A -   "
0.35, 24.1792, 6.691972E-4, NaN, NaN, NaN, 0.0482207, "- N/A -   "
0.36, 24.5331, 0.000688634, NaN, NaN, NaN, 0.04699994, "- N/A -   "
0.37, 24.8869, 7.080717E-4, NaN, NaN, NaN, 0.04577916, "- N/A -   "
0.38, 25.1228, 7.27509E-4, NaN, NaN, NaN, 0.0445584, "- N/A -   "
0.39, 25.3587, 0.000744169, NaN, NaN, NaN, 0.0445584, "- N/A -   "
0.4, 25.7125, 7.663835E-4, NaN, NaN, NaN, 0.0433376, "- N/A -   "
0.41, 26.0664, 0.000785821, NaN, NaN, NaN, 0.04211683, "- N/A -   "
0.42, 26.3023, 0.000802481, NaN, NaN, NaN, 0.04089605, "- N/A -   "
0.43, 26.6561, 0.000821919, NaN, NaN, NaN, 0.04089605, "- N/A -   "
0.44, 27.01, 8.38579E-4, NaN, NaN, NaN, 0.0396753, "- N/A -   "
0.45, 27.2459, 8.580163E-4, NaN, NaN, NaN, 0.0396753, "- N/A -   "
0.46, 27.4818, 8.746768E-4, NaN, NaN, NaN, 0.0384545, "- N/A -   "
0.47, 27.7177, 8.941141E-4, NaN, NaN, NaN, 0.0384545, "- N/A -   "
0.48, 28.0715, 0.000907998, NaN, NaN, NaN, 0.0384545, "- N/A -   "
0.49, 28.3074, 9.274351E-4, NaN, NaN, NaN, 0.0372337, "- N/A -   "
0.5, 28.6612, 0.000946872, NaN, NaN, NaN, 0.03601294, "- N/A -   "
0.51, 28.89713, 9.663096E-4, NaN, NaN, NaN, 0.0347922, "- N/A -   "
0.52, 29.251, 9.857469E-4, NaN, NaN, NaN, 0.0335714, "- N/A -   "
0.53, 29.4869, 0.00100518, NaN, NaN, NaN, 0.0335714, "- N/A -   "
0.56, 30.4304, 0.00106072, NaN, NaN, NaN, 0.03112983, "- N/A -   "
0.59, 31.1381, 0.0011107, NaN, NaN, NaN, 0.03112983, "- N/A -   "
0.62, 31.8458, 0.00115513, NaN, NaN, NaN, 0.0335714, "- N/A -   "
0.65, 32.7894, 0.00120789, NaN, NaN, NaN, 0.0323506, "- N/A -   "
0.68, 33.49708, 0.00125509, NaN, NaN, NaN, 0.0323506, "- N/A -   "
0.71, 34.2048, 0.00130507, NaN, NaN, NaN, 0.0335714, "- N/A -   "
0.74, 35.0304, 0.00135228, NaN, NaN, NaN, 0.0347922, "- N/A -   "
0.77, 35.7381, 0.00139393, NaN, NaN, NaN, 0.0372337, "- N/A -   "
0.8, 36.44577, 0.00144113, NaN, NaN, NaN, 0.0396753, "- N/A -   "
0.83, 37.0355, 0.00148279, NaN, NaN, NaN, 0.04211683, "- N/A -   "
0.86, 37.8611, 0.001532767, NaN, NaN, NaN, 0.04211683, "- N/A -   "
0.89, 38.68677, 0.00158553, NaN, NaN, NaN, 0.04089605, "- N/A -   "
0.92, 39.3945, 0.00163273, NaN, NaN, NaN, 0.04211683, "- N/A -   "
0.95, 40.10214, 0.00167993, NaN, NaN, NaN, 0.0433376, "- N/A -   "
0.98, 40.8098, 0.00172714, NaN, NaN, NaN, 0.0445584, "- N/A -   "
1.01, 41.6355, 0.001779898, NaN, NaN, NaN, 0.0433376, "- N/A -   "
1.04, 42.4611, 0.00182988, NaN, NaN, NaN, 0.0433376, "- N/A -   "
1.07, 43.2867, 0.00188819, NaN, NaN, NaN, 0.0396753, "- N/A -   "
1.1, 44.2303, 0.00195206, NaN, NaN, NaN, 0.0335714, "- N/A -   "
1.13, 45.17388, 0.00201037, NaN, NaN, NaN, 0.0299091, "- N/A -   "
1.16, 45.9995, 0.00206035, NaN, NaN, NaN, 0.0299091, "- N/A -   "
1.19, 46.7072, 0.00210755, NaN, NaN, NaN, 0.03112983, "- N/A -   "
1.22, 47.4149, 0.00216031, NaN, NaN, NaN, 0.0299091, "- N/A -   "
1.25, 48.2405, 0.00221029, NaN, NaN, NaN, 0.0299091, "- N/A -   "
1.28, 48.9482, 0.0022575, NaN, NaN, NaN, 0.03112983, "- N/A -   "
1.31, 49.7738, 0.00230748, NaN, NaN, NaN, 0.0323506, "- N/A -   "
1.34, 50.5995, 0.00235469, NaN, NaN, NaN, 0.0323506, "- N/A -   "
1.37, 51.30715, 0.002404667, NaN, NaN, NaN, 0.0335714, "- N/A -   "
1.4, 52.1328, 0.00245465, NaN, NaN, NaN, 0.0323506, "- N/A -   "
1.43, 52.84047, 0.00250185, NaN, NaN, NaN, 0.0335714, "- N/A -   "
1.46, 53.54815, 0.002549058, NaN, NaN, NaN, 0.0347922, "- N/A -   "
1.49, 54.2558, 0.00258793, NaN, NaN, NaN, 0.0396753, "- N/A -   "
1.52, 55.0815, 0.00263236, NaN, NaN, NaN, 0.04211683, "- N/A -   "
1.55, 55.6712, 0.00267957, NaN, NaN, NaN, 0.0433376, "- N/A -   "
1.58, 56.37889, 0.00272677, NaN, NaN, NaN, 0.0445584, "- N/A -   "
1.61, 57.20452, 0.00277398, NaN, NaN, NaN, 0.04577916, "- N/A -   "
1.64, 58.0302, 0.00282673, NaN, NaN, NaN, 0.0445584, "- N/A -   "
1.67, 59.0917, 0.00288505, NaN, NaN, NaN, 0.04089605, "- N/A -   "
1.7, 60.0353, 0.00294058, NaN, NaN, NaN, 0.0396753, "- N/A -   "
1.73, 60.97884, 0.00299612, NaN, NaN, NaN, 0.03601294, "- N/A -   "
1.76, 61.9224, 0.003054427, NaN, NaN, NaN, 0.0323506, "- N/A -   "
1.79, 62.866, 0.00310441, NaN, NaN, NaN, 0.0323506, "- N/A -   "
1.82, 63.5737, 0.003157167, NaN, NaN, NaN, 0.0323506, "- N/A -   "
1.85, 64.28137, 0.003201595, NaN, NaN, NaN, 0.0347922, "- N/A -   "
1.88, 65.107, 0.0032488, NaN, NaN, NaN, 0.03601294, "- N/A -   "
1.91, 65.81469, 0.00329323, NaN, NaN, NaN, 0.0372337, "- N/A -   "
1.94, 66.64032, 0.00334321, NaN, NaN, NaN, 0.0372337, "- N/A -   "
1.97, 67.5839, 0.00339874, NaN, NaN, NaN, 0.0347922, "- N/A -   "
2, 68.52748, 0.0034515, NaN, NaN, NaN, 0.0335714, "- N/A -   "
2.03, 69.35311, 0.00350426, NaN, NaN, NaN, 0.0335714, "- N/A -   "
2.06, 70.29669, 0.00355424, NaN, NaN, NaN, 0.0323506, "- N/A -   "
2.09, 71.00438, 0.00359867, NaN, NaN, NaN, 0.0347922, "- N/A -   "
2.12, 71.83001, 0.00364588, NaN, NaN, NaN, 0.03601294, "- N/A -   "
2.15, 72.65564, 0.00369308, NaN, NaN, NaN, 0.0372337, "- N/A -   "
2.18, 73.48127, 0.00373751, NaN, NaN, NaN, 0.0396753, "- N/A -   "
2.21, 74.3069, 0.00378749, NaN, NaN, NaN, 0.04089605, "- N/A -   "
2.24, 75.25049, 0.003837471, NaN, NaN, NaN, 0.0396753, "- N/A -   "
2.27, 76.19407, 0.00389023, NaN, NaN, NaN, 0.0384545, "- N/A -   "
2.3, 77.25559, 0.00394576, NaN, NaN, NaN, 0.0372337, "- N/A -   "
2.33, 78.08122, 0.003992969, NaN, NaN, NaN, 0.0384545, "- N/A -   "
2.36, 78.90686, 0.00404295, NaN, NaN, NaN, 0.0372337, "- N/A -   "
2.39, 79.85043, 0.004092932, NaN, NaN, NaN, 0.0372337, "- N/A -   "
2.42, 80.794, 0.00414569, NaN, NaN, NaN, 0.03601294, "- N/A -   "
2.45, 81.61965, 0.004195672, NaN, NaN, NaN, 0.03601294, "- N/A -   "
2.48, 82.56323, 0.00424565, NaN, NaN, NaN, 0.03601294, "- N/A -   "
2.51, 83.6248, 0.00430119, NaN, NaN, NaN, 0.0347922, "- N/A -   "
2.54, 84.56834, 0.00435117, NaN, NaN, NaN, 0.0335714, "- N/A -   "
2.57, 85.39397, 0.00440115, NaN, NaN, NaN, 0.0335714, "- N/A -   "
2.6, 86.33755, 0.00445391, NaN, NaN, NaN, 0.0335714, "- N/A -   "
2.63, 87.28113, 0.00450667, NaN, NaN, NaN, 0.03112983, "- N/A -   "
2.66, 88.22471, 0.00455665, NaN, NaN, NaN, 0.0323506, "- N/A -   "
2.69, 89.28623, 0.00460663, NaN, NaN, NaN, 0.03112983, "- N/A -   "
2.72, 89.99392, 0.004653836, NaN, NaN, NaN, 0.0323506, "- N/A -   "
2.75, 90.9375, 0.00470382, NaN, NaN, NaN, 0.0323506, "- N/A -   "
2.78, 91.88108, 0.004756576, NaN, NaN, NaN, 0.0323506, "- N/A -   "
2.81, 92.94261, 0.004806557, NaN, NaN, NaN, 0.0323506, "- N/A -   "
2.84, 93.65029, 0.00485099, NaN, NaN, NaN, 0.0335714, "- N/A -   "
2.87, 94.47592, 0.004892637, NaN, NaN, NaN, 0.0372337, "- N/A -   "
2.9, 95.30156, 0.004939841, NaN, NaN, NaN, 0.0384545, "- N/A -   "
2.93, 96.24514, 0.004987046, NaN, NaN, NaN, 0.0396753, "- N/A -   "
2.96, 97.07077, 0.00503147, NaN, NaN, NaN, 0.04211683, "- N/A -   "
2.99, 97.77845, 0.005075902, NaN, NaN, NaN, 0.0445584, "- N/A -   "
3.02, 98.72203, 0.005125884, NaN, NaN, NaN, 0.0445584, "- N/A -   "
3.05, 99.66561, 0.00517587, NaN, NaN, NaN, 0.0445584, "- N/A -   "
3.08, 100.727, 0.00522862, NaN, NaN, NaN, 0.0445584, "- N/A -   "
3.11, 101.789, 0.00528694, NaN, NaN, NaN, 0.04089605, "- N/A -   "
3.14, 102.968, 0.00534247, NaN, NaN, NaN, 0.0372337, "- N/A -   "
3.17, 104.03, 0.00539801, NaN, NaN, NaN, 0.03601294, "- N/A -   "
3.2, 104.855, 0.00544799, NaN, NaN, NaN, 0.0347922, "- N/A -   "
3.23, 105.917, 0.00549797, NaN, NaN, NaN, 0.0347922, "- N/A -   "
3.26, 106.742, 0.00554517, NaN, NaN, NaN, 0.03601294, "- N/A -   "
3.29, 107.804, 0.00559515, NaN, NaN, NaN, 0.0372337, "- N/A -   "
3.32, 108.63, 0.00564791, NaN, NaN, NaN, 0.0347922, "- N/A -   "
3.35, 109.691, 0.00570067, NaN, NaN, NaN, 0.0335714, "- N/A -   "
3.38, 110.871, 0.00575898, NaN, NaN, NaN, 0.0299091, "- N/A -   "
3.41, 111.8142, 0.00581174, NaN, NaN, NaN, 0.0286883, "- N/A -   "
3.44, 112.64, 0.00585339, NaN, NaN, NaN, 0.0323506, "- N/A -   "
3.47, 113.465, 0.00590337, NaN, NaN, NaN, 0.0335714, "- N/A -   "
3.5, 114.409, 0.005950579, NaN, NaN, NaN, 0.0347922, "- N/A -   "
3.53, 115.117, 0.00599223, NaN, NaN, NaN, 0.0372337, "- N/A -   "
3.56, 115.942, 0.006036659, NaN, NaN, NaN, 0.0396753, "- N/A -   "
3.59, 116.886, 0.00608109, NaN, NaN, NaN, 0.04211683, "- N/A -   "
3.62, 117.83, 0.006125515, NaN, NaN, NaN, 0.04577916, "- N/A -   "
3.65, 118.7731, 0.006175496, NaN, NaN, NaN, 0.04577916, "- N/A -   "
3.68, 119.599, 0.006228254, NaN, NaN, NaN, 0.0445584, "- N/A -   "
3.71, 120.778, 0.00628101, NaN, NaN, NaN, 0.0433376, "- N/A -   "
3.74, 121.722, 0.006336548, NaN, NaN, NaN, 0.04089605, "- N/A -   "
3.77, 122.783, 0.006392083, NaN, NaN, NaN, 0.0396753, "- N/A -   "
3.8, 123.845, 0.006444841, NaN, NaN, NaN, 0.0372337, "- N/A -   "
3.83, 124.906, 0.006500376, NaN, NaN, NaN, 0.0347922, "- N/A -   "
3.86, 125.85, 0.00655313, NaN, NaN, NaN, 0.0335714, "- N/A -   "
3.89, 126.794, 0.00660589, NaN, NaN, NaN, 0.0323506, "- N/A -   "
3.92, 127.737, 0.0066531, NaN, NaN, NaN, 0.0335714, "- N/A -   "
3.95, 128.6807, 0.006708632, NaN, NaN, NaN, 0.0323506, "- N/A -   "
3.98, 129.624, 0.006761391, NaN, NaN, NaN, 0.03112983, "- N/A -   "
4.01, 130.6858, 0.006814149, NaN, NaN, NaN, 0.0286883, "- N/A -   "
4.04, 131.511, 0.00686691, NaN, NaN, NaN, 0.0274675, "- N/A -   "
4.07, 132.455, 0.00691411, NaN, NaN, NaN, 0.0299091, "- N/A -   "
4.1, 133.163, 0.00695854, NaN, NaN, NaN, 0.03112983, "- N/A -   "
4.13, 133.87, 0.00700297, NaN, NaN, NaN, 0.0347922, "- N/A -   "
4.16, 134.696, 0.007047396, NaN, NaN, NaN, 0.0372337, "- N/A -   "
4.19, 135.522, 0.00709182, NaN, NaN, NaN, 0.0396753, "- N/A -   "
4.22, 136.229, 0.0071307, NaN, NaN, NaN, 0.0433376, "- N/A -   "
4.25, 137.173, 0.00718068, NaN, NaN, NaN, 0.0433376, "- N/A -   "
4.28, 137.999, 0.00722789, NaN, NaN, NaN, 0.0445584, "- N/A -   "
4.31, 138.942, 0.00728064, NaN, NaN, NaN, 0.0433376, "- N/A -   "
4.34, 139.768, 0.00732507, NaN, NaN, NaN, 0.04577916, "- N/A -   "
4.37, 140.711, 0.00737505, NaN, NaN, NaN, 0.04577916, "- N/A -   "
4.4, 141.773, 0.00742503, NaN, NaN, NaN, 0.04577916, "- N/A -   "
4.43, 142.716, 0.00748335, NaN, NaN, NaN, 0.0433376, "- N/A -   "
4.46, 143.778, 0.00753888, NaN, NaN, NaN, 0.04089605, "- N/A -   "
4.49, 144.8395, 0.007597193, NaN, NaN, NaN, 0.0372337, "- N/A -   "
4.52, 145.901, 0.007652728, NaN, NaN, NaN, 0.0335714, "- N/A -   "
4.55, 146.963, 0.007708263, NaN, NaN, NaN, 0.03112983, "- N/A -   "
4.58, 147.788, 0.007755468, NaN, NaN, NaN, 0.0335714, "- N/A -   "
4.61, 148.6138, 0.00780545, NaN, NaN, NaN, 0.0323506, "- N/A -   "
4.64, 149.557, 0.007852654, NaN, NaN, NaN, 0.0335714, "- N/A -   "
4.67, 150.383, 0.007899859, NaN, NaN, NaN, 0.0347922, "- N/A -   "
4.7, 151.209, 0.007947064, NaN, NaN, NaN, 0.03601294, "- N/A -   "
4.73, 152.27, 0.007997045, NaN, NaN, NaN, 0.03601294, "- N/A -   "
4.76, 153.096, 0.00804425, NaN, NaN, NaN, 0.0372337, "- N/A -   "
4.79, 153.921, 0.008088678, NaN, NaN, NaN, 0.0396753, "- N/A -   "
4.82, 154.983, 0.008141437, NaN, NaN, NaN, 0.0396753, "- N/A -   "
4.85, 155.927, 0.008191418, NaN, NaN, NaN, 0.0384545, "- N/A -   "
4.88, 156.87, 0.008244176, NaN, NaN, NaN, 0.0384545, "- N/A -   "
4.91, 157.696, 0.008288604, NaN, NaN, NaN, 0.0396753, "- N/A -   "
4.94, 158.639, 0.008335809, NaN, NaN, NaN, 0.04211683, "- N/A -   "
4.97, 159.465, 0.008380237, NaN, NaN, NaN, 0.0433376, "- N/A -   "
5, 160.2906, 0.008430218, NaN, NaN, NaN, 0.0445584, "- N/A -   "
5.03, 161.352, 0.008480201, NaN, NaN, NaN, 0.0433376, "- N/A -   "
5.06, 162.414, 0.00853851, NaN, NaN, NaN, 0.0396753, "- N/A -   "
5.09, 163.475, 0.008596824, NaN, NaN, NaN, 0.0372337, "- N/A -   "
5.12, 164.655, 0.008652358, NaN, NaN, NaN, 0.0335714, "- N/A -   "
5.15, 165.598, 0.008702341, NaN, NaN, NaN, 0.0335714, "- N/A -   "
5.18, 166.542, 0.008757875, NaN, NaN, NaN, 0.03112983, "- N/A -   "
5.21, 167.7213, 0.008813411, NaN, NaN, NaN, 0.0286883, "- N/A -   "
5.24, 168.665, 0.008863391, NaN, NaN, NaN, 0.0299091, "- N/A -   "
5.27, 169.373, 0.00890782, NaN, NaN, NaN, 0.03112983, "- N/A -   "
5.3, 170.1982, 0.008952248, NaN, NaN, NaN, 0.0347922, "- N/A -   "
5.33, 171.024, 0.008996676, NaN, NaN, NaN, 0.0372337, "- N/A -   "
5.36, 171.9674, 0.009046658, NaN, NaN, NaN, 0.03601294, "- N/A -   "
5.39, 173.029, 0.00909942, NaN, NaN, NaN, 0.03601294, "- N/A -   "
5.42, 174.09, 0.009154951, NaN, NaN, NaN, 0.0323506, "- N/A -   "
5.45, 175.152, 0.009207709, NaN, NaN, NaN, 0.03112983, "- N/A -   "
5.48, 176.096, 0.009252137, NaN, NaN, NaN, 0.0335714, "- N/A -   "
5.51, 176.803, 0.009299342, NaN, NaN, NaN, 0.0347922, "- N/A -   "
5.54, 177.747, 0.00934377, NaN, NaN, NaN, 0.0372337, "- N/A -   "
5.57, 178.572, 0.009385421, NaN, NaN, NaN, 0.04089605, "- N/A -   "
5.6, 179.3981, 0.009435403, NaN, NaN, NaN, 0.04211683, "- N/A -   "
5.63, 180.342, 0.009485384, NaN, NaN, NaN, 0.04089605, "- N/A -   "
5.66, 181.403, 0.009535366, NaN, NaN, NaN, 0.04089605, "- N/A -   "
5.69, 182.229, 0.009588124, NaN, NaN, NaN, 0.04089605, "- N/A -   "
5.72, 183.29, 0.009635329, NaN, NaN, NaN, 0.04089605, "- N/A -   "
5.75, 184.3519, 0.009688088, NaN, NaN, NaN, 0.0396753, "- N/A -   "
5.78, 185.178, 0.009740846, NaN, NaN, NaN, 0.0396753, "- N/A -   "
5.81, 186.357, 0.009796382, NaN, NaN, NaN, 0.0372337, "- N/A -   "
5.84, 187.301, 0.009846362, NaN, NaN, NaN, 0.03601294, "- N/A -   "
5.87, 188.244, 0.009896343, NaN, NaN, NaN, 0.0372337, "- N/A -   "
5.9, 189.3057, 0.009946326, NaN, NaN, NaN, 0.0372337, "- N/A -   "
5.93, 190.249, 0.009996306, NaN, NaN, NaN, 0.0372337, "- N/A -   "
5.96, 191.311, 0.0100491, NaN, NaN, NaN, 0.03601294, "- N/A -   "
5.99, 192.372, 0.0101018, NaN, NaN, NaN, 0.0335714, "- N/A -   "
6.02, 193.198, 0.0101518, NaN, NaN, NaN, 0.0347922, "- N/A -   "
6.05, 194.259, 0.0102018, NaN, NaN, NaN, 0.0335714, "- N/A -   "
6.08, 195.203, 0.0102518, NaN, NaN, NaN, 0.0347922, "- N/A -   "
6.11, 196.0287, 0.010299, NaN, NaN, NaN, 0.0347922, "- N/A -   "
6.14, 196.972, 0.0103462, NaN, NaN, NaN, 0.03601294, "- N/A -   "
6.17, 197.916, 0.0103962, NaN, NaN, NaN, 0.0372337, "- N/A -   "
6.2, 198.977, 0.01044614, NaN, NaN, NaN, 0.03601294, "- N/A -   "
6.23, 199.921, 0.0104989, NaN, NaN, NaN, 0.0347922, "- N/A -   "
6.26, 200.865, 0.0105461, NaN, NaN, NaN, 0.03601294, "- N/A -   "
6.29, 201.69, 0.0105933, NaN, NaN, NaN, 0.0372337, "- N/A -   "
6.32, 202.634, 0.0106377, NaN, NaN, NaN, 0.0396753, "- N/A -   "
6.35, 203.577, 0.0106905, NaN, NaN, NaN, 0.0396753, "- N/A -   "
6.38, 204.521, 0.0107349, NaN, NaN, NaN, 0.04089605, "- N/A -   "
6.41, 205.465, 0.0107849, NaN, NaN, NaN, 0.04089605, "- N/A -   "
6.44, 206.644, 0.0108377, NaN, NaN, NaN, 0.04089605, "- N/A -   "
6.47, 207.4696, 0.0108876, NaN, NaN, NaN, 0.04089605, "- N/A -   "
6.5, 208.649, 0.0109404, NaN, NaN, NaN, 0.0384545, "- N/A -   "
6.53, 209.829, 0.0109959, NaN, NaN, NaN, 0.03601294, "- N/A -   "
6.56, 210.772, 0.0110515, NaN, NaN, NaN, 0.0347922, "- N/A -   "
6.59, 211.834, 0.01110423, NaN, NaN, NaN, 0.0323506, "- N/A -   "
6.62, 212.895, 0.011157, NaN, NaN, NaN, 0.0323506, "- N/A -   "
6.65, 213.839, 0.011207, NaN, NaN, NaN, 0.0323506, "- N/A -   "
6.68, 214.782, 0.0112542, NaN, NaN, NaN, 0.0323506, "- N/A -   "
6.71, 215.608, 0.01130138, NaN, NaN, NaN, 0.0335714, "- N/A -   "
6.74, 216.787, 0.0113541, NaN, NaN, NaN, 0.0335714, "- N/A -   "
6.77, 217.849, 0.0114069, NaN, NaN, NaN, 0.03112983, "- N/A -   "
6.8, 218.793, 0.0114597, NaN, NaN, NaN, 0.0299091, "- N/A -   "
6.83, 219.8541, 0.0115124, NaN, NaN, NaN, 0.0299091, "- N/A -   "
6.86, 220.798, 0.0115596, NaN, NaN, NaN, 0.0299091, "- N/A -   "
6.89, 221.623, 0.011604, NaN, NaN, NaN, 0.0335714, "- N/A -   "
6.92, 222.449, 0.0116485, NaN, NaN, NaN, 0.0347922, "- N/A -   "
6.95, 223.157, 0.0116901, NaN, NaN, NaN, 0.0384545, "- N/A -   "
6.98, 224.1002, 0.0117318, NaN, NaN, NaN, 0.04211683, "- N/A -   "
7.01, 224.926, 0.0117762, NaN, NaN, NaN, 0.0445584, "- N/A -   "
7.04, 225.751, 0.0118234, NaN, NaN, NaN, 0.04577916, "- N/A -   "
7.07, 226.813, 0.0118734, NaN, NaN, NaN, 0.04699994, "- N/A -   "
7.1, 227.992, 0.0119234, NaN, NaN, NaN, 0.04577916, "- N/A -   "
7.13, 229.054, 0.0119817, NaN, NaN, NaN, 0.0433376, "- N/A -   "
7.16, 230.233, 0.01204, NaN, NaN, NaN, 0.0396753, "- N/A -   "
7.19, 231.177, 0.01209, NaN, NaN, NaN, 0.0384545, "- N/A -   "
7.22, 232.121, 0.0121455, NaN, NaN, NaN, 0.0372337, "- N/A -   "
7.25, 233.3001, 0.01219827, NaN, NaN, NaN, 0.03601294, "- N/A -   "
7.28, 234.126, 0.012251, NaN, NaN, NaN, 0.0347922, "- N/A -   "
7.31, 235.423, 0.0123066, NaN, NaN, NaN, 0.0323506, "- N/A -   "
7.34, 236.485, 0.0123621, NaN, NaN, NaN, 0.0299091, "- N/A -   "
7.37, 237.428, 0.0124121, NaN, NaN, NaN, 0.0286883, "- N/A -   "
7.4, 238.49, 0.0124621, NaN, NaN, NaN, 0.0286883, "- N/A -   "
7.43, 239.551, 0.012512, NaN, NaN, NaN, 0.0299091, "- N/A -   "
7.46, 240.377, 0.0125592, NaN, NaN, NaN, 0.0299091, "- N/A -   "
7.49, 241.321, 0.0126065, NaN, NaN, NaN, 0.03112983, "- N/A -   "
7.52, 242.146, 0.0126509, NaN, NaN, NaN, 0.0335714, "- N/A -   "
7.55, 243.207, 0.0126953, NaN, NaN, NaN, 0.03601294, "- N/A -   "
7.58, 244.032, 0.0127397, NaN, NaN, NaN, 0.0384545, "- N/A -   "
7.61, 244.857, 0.0127842, NaN, NaN, NaN, 0.04089605, "- N/A -   "
7.64, 245.6813, 0.0128286, NaN, NaN, NaN, 0.0433376, "- N/A -   "
7.67, 246.624, 0.0128786, NaN, NaN, NaN, 0.0445584, "- N/A -   "
7.7, 247.802, 0.0129313, NaN, NaN, NaN, 0.0433376, "- N/A -   "
7.73, 248.863, 0.0129841, NaN, NaN, NaN, 0.04089605, "- N/A -   "
7.76, 249.923, 0.01303685, NaN, NaN, NaN, 0.0396753, "- N/A -   "
7.79, 250.983, 0.0130868, NaN, NaN, NaN, 0.04089605, "- N/A -   "
7.82, 252.044, 0.0131368, NaN, NaN, NaN, 0.0396753, "- N/A -   "
7.85, 253.222, 0.0131951, NaN, NaN, NaN, 0.03601294, "- N/A -   "
7.88, 254.283, 0.0132479, NaN, NaN, NaN, 0.0347922, "- N/A -   "
7.91, 255.461, 0.0133062, NaN, NaN, NaN, 0.03112983, "- N/A -   "
7.94, 256.5213, 0.0133562, NaN, NaN, NaN, 0.03112983, "- N/A -   "
7.97, 257.6996, 0.0134089, NaN, NaN, NaN, 0.0299091, "- N/A -   "
8, 258.642, 0.0134617, NaN, NaN, NaN, 0.0286883, "- N/A -   "
8.03, 259.7026, 0.0135145, NaN, NaN, NaN, 0.0274675, "- N/A -   "
8.06, 260.6452, 0.0135644, NaN, NaN, NaN, 0.0274675, "- N/A -   "
8.09, 261.588, 0.0136089, NaN, NaN, NaN, 0.0299091, "- N/A -   "
8.12, 262.648, 0.0136505, NaN, NaN, NaN, 0.0335714, "- N/A -   "
8.15, 263.473, 0.0136977, NaN, NaN, NaN, 0.03601294, "- N/A -   "
8.18, 264.416, 0.0137477, NaN, NaN, NaN, 0.0372337, "- N/A -   "
8.21, 265.476, 0.0137977, NaN, NaN, NaN, 0.0372337, "- N/A -   "
8.24, 266.537, 0.0138449, NaN, NaN, NaN, 0.0372337, "- N/A -   "
8.27, 267.3613, 0.0138949, NaN, NaN, NaN, 0.0372337, "- N/A -   "
8.3, 268.422, 0.0139393, NaN, NaN, NaN, 0.0396753, "- N/A -   "
8.33, 269.364, 0.0139837, NaN, NaN, NaN, 0.04211683, "- N/A -   "
8.36, 270.307, 0.0140337, NaN, NaN, NaN, 0.04211683, "- N/A -   "
8.39, 271.25, 0.0140781, NaN, NaN, NaN, 0.04577916, "- N/A -   "
8.42, 272.192, 0.0141253, NaN, NaN, NaN, 0.04577916, "- N/A -   "
8.45, 273.37, 0.0141753, NaN, NaN, NaN, 0.04577916, "- N/A -   "
8.48, 274.431, 0.0142336, NaN, NaN, NaN, 0.0433376, "- N/A -   "
8.51, 275.727, 0.0142892, NaN, NaN, NaN, 0.0396753, "- N/A -   "
8.54, 276.9052, 0.0143475, NaN, NaN, NaN, 0.0372337, "- N/A -   "
8.57, 278.0835, 0.0144058, NaN, NaN, NaN, 0.0335714, "- N/A -   "
8.6, 279.262, 0.0144585, NaN, NaN, NaN, 0.03112983, "- N/A -   "
8.63, 280.322, 0.0145085, NaN, NaN, NaN, 0.03112983, "- N/A -   "
8.66, 281.2648, 0.0145557, NaN, NaN, NaN, 0.0323506, "- N/A -   "
8.69, 282.09, 0.0146029, NaN, NaN, NaN, 0.0347922, "- N/A -   "
8.72, 283.032, 0.0146501, NaN, NaN, NaN, 0.0347922, "- N/A -   "
8.75, 284.093, 0.01469457, NaN, NaN, NaN, 0.0372337, "- N/A -   "
8.78, 285.035, 0.0147446, NaN, NaN, NaN, 0.0384545, "- N/A -   "
8.81, 286.213, 0.0147973, NaN, NaN, NaN, 0.03601294, "- N/A -   "
8.84, 287.274, 0.0148501, NaN, NaN, NaN, 0.0347922, "- N/A -   "
8.87, 288.334, 0.0149028, NaN, NaN, NaN, 0.0335714, "- N/A -   "
8.9, 289.5126, 0.0149556, NaN, NaN, NaN, 0.0335714, "- N/A -   "
8.93, 290.4552, 0.0150028, NaN, NaN, NaN, 0.0335714, "- N/A -   "
8.96, 291.398, 0.0150472, NaN, NaN, NaN, 0.03601294, "- N/A -   "
8.99, 292.34, 0.0150916, NaN, NaN, NaN, 0.0384545, "- N/A -   "
9.02, 293.283, 0.0151361, NaN, NaN, NaN, 0.04089605, "- N/A -   "
9.05, 294.226, 0.0151833, NaN, NaN, NaN, 0.04211683, "- N/A -   "
9.08, 295.168, 0.0152333, NaN, NaN, NaN, 0.04211683, "- N/A -   "
9.11, 296.347, 0.0152832, NaN, NaN, NaN, 0.04211683, "- N/A -   "
9.14, 297.407, 0.0153332, NaN, NaN, NaN, 0.04211683, "- N/A -   "
9.17, 298.467, 0.0153832, NaN, NaN, NaN, 0.04211683, "- N/A -   "
9.2, 299.646, 0.0154415, NaN, NaN, NaN, 0.0396753, "- N/A -   "
9.23, 300.8239, 0.0154943, NaN, NaN, NaN, 0.0372337, "- N/A -   "
9.26, 302.0022, 0.015547, NaN, NaN, NaN, 0.03601294, "- N/A -   "
9.29, 302.945, 0.0155942, NaN, NaN, NaN, 0.0372337, "- N/A -   "
9.32, 304.005, 0.0156414, NaN, NaN, NaN, 0.0396753, "- N/A -   "
9.35, 305.066, 0.0156914, NaN, NaN, NaN, 0.0384545, "- N/A -   "
9.38, 306.2439, 0.0157497, NaN, NaN, NaN, 0.03601294, "- N/A -   "
9.41, 307.658, 0.015808, NaN, NaN, NaN, 0.0323506, "- N/A -   "
9.44, 308.718, 0.0158608, NaN, NaN, NaN, 0.03112983, "- N/A -   "
9.47, 309.8965, 0.0159136, NaN, NaN, NaN, 0.0286883, "- N/A -   "
9.5, 310.8391, 0.01596077, NaN, NaN, NaN, 0.0299091, "- N/A -   "
9.53, 311.782, 0.0160052, NaN, NaN, NaN, 0.0323506, "- N/A -   "
9.56, 312.724, 0.0160524, NaN, NaN, NaN, 0.0335714, "- N/A -   "
9.59, 313.667, 0.0160968, NaN, NaN, NaN, 0.03601294, "- N/A -   "
9.62, 314.7274, 0.01614959, NaN, NaN, NaN, 0.0347922, "- N/A -   "
9.65, 315.906, 0.01619957, NaN, NaN, NaN, 0.0347922, "- N/A -   "
9.68, 316.966, 0.0162468, NaN, NaN, NaN, 0.03601294, "- N/A -   "
9.71, 317.9087, 0.0162968, NaN, NaN, NaN, 0.0372337, "- N/A -   "
9.74, 318.7335, 0.0163384, NaN, NaN, NaN, 0.0396753, "- N/A -   "
9.77, 319.6761, 0.0163828, NaN, NaN, NaN, 0.04211683, "- N/A -   "
9.8, 320.737, 0.0164328, NaN, NaN, NaN, 0.0433376, "- N/A -   "
9.83, 321.797, 0.0164772, NaN, NaN, NaN, 0.0445584, "- N/A -   "
9.86, 322.8574, 0.0165272, NaN, NaN, NaN, 0.0445584, "- N/A -   "
9.89, 324.036, 0.01657721, NaN, NaN, NaN, 0.0445584, "- N/A -   "
9.92, 325.2139, 0.0166327, NaN, NaN, NaN, 0.04211683, "- N/A -   "
9.95, 326.51, 0.01669383, NaN, NaN, NaN, 0.0372337, "- N/A -   "
9.98, 327.688, 0.0167494, NaN, NaN, NaN, 0.0347922, "- N/A -   "
10.01, 328.7487, 0.0168021, NaN, NaN, NaN, 0.0347922, "- N/A -   "
10.04, 329.6913, 0.0168466, NaN, NaN, NaN, 0.03601294, "- N/A -   "
10.07, 330.87, 0.0168965, NaN, NaN, NaN, 0.03601294, "- N/A -   "
10.1, 332.048, 0.0169493, NaN, NaN, NaN, 0.0347922, "- N/A -   "
10.13, 333.226, 0.0170021, NaN, NaN, NaN, 0.0335714, "- N/A -   "
10.16, 334.404, 0.0170548, NaN, NaN, NaN, 0.0323506, "- N/A -   "
10.19, 335.7, 0.0171131, NaN, NaN, NaN, 0.0299091, "- N/A -   "
10.22, 336.8787, 0.0171659, NaN, NaN, NaN, 0.0274675, "- N/A -   "
10.25, 337.939, 0.0172131, NaN, NaN, NaN, 0.0286883, "- N/A -   "
10.28, 338.764, 0.0172575, NaN, NaN, NaN, 0.0323506, "- N/A -   "
10.31, 339.707, 0.0173019, NaN, NaN, NaN, 0.0347922, "- N/A -   "
10.34, 340.6491, 0.01734637, NaN, NaN, NaN, 0.03601294, "- N/A -   "
10.37, 341.4739, 0.0173852, NaN, NaN, NaN, 0.04089605, "- N/A -   "
10.4, 342.299, 0.0174297, NaN, NaN, NaN, 0.0433376, "- N/A -   "
10.43, 343.2413, 0.0174741, NaN, NaN, NaN, 0.04577916, "- N/A -   "
10.46, 344.302, 0.0175213, NaN, NaN, NaN, 0.04699994, "- N/A -   "
10.49, 345.48, 0.0175713, NaN, NaN, NaN, 0.04699994, "- N/A -   "
10.52, 346.658, 0.017624, NaN, NaN, NaN, 0.04699994, "- N/A -   "
10.55, 348.072, 0.0176824, NaN, NaN, NaN, 0.04211683, "- N/A -   "
10.58, 349.3683, 0.0177434, NaN, NaN, NaN, 0.0384545, "- N/A -   "
10.61, 350.5465, 0.0177962, NaN, NaN, NaN, 0.03601294, "- N/A -   "
10.64, 351.843, 0.0178545, NaN, NaN, NaN, 0.0323506, "- N/A -   "
10.67, 353.021, 0.0179045, NaN, NaN, NaN, 0.0323506, "- N/A -   "
10.7, 353.963, 0.0179545, NaN, NaN, NaN, 0.0323506, "- N/A -   "
10.73, 355.0239, 0.0180017, NaN, NaN, NaN, 0.0335714, "- N/A -   "
10.76, 356.32, 0.01806, NaN, NaN, NaN, 0.0299091, "- N/A -   "
10.79, 357.6161, 0.0181155, NaN, NaN, NaN, 0.0286883, "- N/A -   "
10.82, 358.6765, 0.0181683, NaN, NaN, NaN, 0.0274675, "- N/A -   "
10.85, 359.737, 0.0182155, NaN, NaN, NaN, 0.0274675, "- N/A -   "
10.88, 360.915, 0.0182655, NaN, NaN, NaN, 0.0274675, "- N/A -   "
10.91, 361.858, 0.0183099, NaN, NaN, NaN, 0.0299091, "- N/A -   "
10.94, 362.6826, 0.0183516, NaN, NaN, NaN, 0.0335714, "- N/A -   "
10.97, 363.6252, 0.01839598, NaN, NaN, NaN, 0.0372337, "- N/A -   "
11, 364.5678, 0.0184376, NaN, NaN, NaN, 0.0396753, "- N/A -   "
11.03, 365.51, 0.0184848, NaN, NaN, NaN, 0.04089605, "- N/A -   "
11.06, 366.571, 0.018532, NaN, NaN, NaN, 0.04211683, "- N/A -   "
11.09, 367.6313, 0.018582, NaN, NaN, NaN, 0.04211683, "- N/A -   "
11.12, 368.81, 0.018632, NaN, NaN, NaN, 0.0433376, "- N/A -   "
11.15, 369.7522, 0.0186792, NaN, NaN, NaN, 0.0433376, "- N/A -   "
11.18, 370.813, 0.0187264, NaN, NaN, NaN, 0.0445584, "- N/A -   "
11.21, 371.873, 0.0187764, NaN, NaN, NaN, 0.0445584, "- N/A -   "
11.24, 373.169, 0.0188292, NaN, NaN, NaN, 0.0433376, "- N/A -   "
11.27, 374.347, 0.0188819, NaN, NaN, NaN, 0.04211683, "- N/A -   "
11.3, 375.643, 0.0189402, NaN, NaN, NaN, 0.0384545, "- N/A -   "
11.33, 376.94, 0.0190013, NaN, NaN, NaN, 0.0347922, "- N/A -   "
11.36, 378.236, 0.0190568, NaN, NaN, NaN, 0.03112983, "- N/A -   "
11.39, 379.414, 0.0191096, NaN, NaN, NaN, 0.0299091, "- N/A -   "
11.42, 380.474, 0.01915681, NaN, NaN, NaN, 0.03112983, "- N/A -   "
11.45, 381.77, 0.01920957, NaN, NaN, NaN, 0.0299091, "- N/A -   "
11.48, 382.831, 0.0192623, NaN, NaN, NaN, 0.0286883, "- N/A -   "
11.51, 383.656, 0.0193068, NaN, NaN, NaN, 0.03112983, "- N/A -   "
11.54, 384.834, 0.01935396, NaN, NaN, NaN, 0.0335714, "- N/A -   "
11.57, 385.6587, 0.0193984, NaN, NaN, NaN, 0.0347922, "- N/A -   "
11.6, 386.837, 0.0194456, NaN, NaN, NaN, 0.03601294, "- N/A -   "
11.63, 388.0152, 0.0194984, NaN, NaN, NaN, 0.03601294, "- N/A -   "
11.66, 389.193, 0.0195483, NaN, NaN, NaN, 0.03601294, "- N/A -   "
11.69, 390.1361, 0.0195955, NaN, NaN, NaN, 0.0372337, "- N/A -   "
11.72, 391.314, 0.0196427, NaN, NaN, NaN, 0.0384545, "- N/A -   "
11.75, 392.257, 0.0196844, NaN, NaN, NaN, 0.04211683, "- N/A -   "
11.78, 393.317, 0.0197288, NaN, NaN, NaN, 0.0445584, "- N/A -   "
11.81, 394.3778, 0.0197788, NaN, NaN, NaN, 0.0445584, "- N/A -   "
11.84, 395.32, 0.01982323, NaN, NaN, NaN, 0.04699994, "- N/A -   "
11.87, 396.617, 0.019876, NaN, NaN, NaN, 0.0445584, "- N/A -   "
11.9, 397.9126, 0.0199343, NaN, NaN, NaN, 0.04089605, "- N/A -   "
11.93, 399.444, 0.0199954, NaN, NaN, NaN, 0.03601294, "- N/A -   "
11.96, 400.74, 0.0200537, NaN, NaN, NaN, 0.0323506, "- N/A -   "
11.99, 401.801, 0.0201092, NaN, NaN, NaN, 0.03112983, "- N/A -   "
12.02, 403.097, 0.0201675, NaN, NaN, NaN, 0.0274675, "- N/A -   "
12.05, 404.393, 0.0202148, NaN, NaN, NaN, 0.0274675, "- N/A -   "
12.08, 405.218, 0.0202592, NaN, NaN, NaN, 0.0299091, "- N/A -   "
12.11, 406.278, 0.0203036, NaN, NaN, NaN, 0.0335714, "- N/A -   "
12.14, 407.103, 0.02034526, NaN, NaN, NaN, 0.03601294, "- N/A -   "
12.17, 408.163, 0.0203952, NaN, NaN, NaN, 0.0372337, "- N/A -   "
12.2, 409.5774, 0.0204508, NaN, NaN, NaN, 0.0335714, "- N/A -   "
12.23, 410.756, 0.0205063, NaN, NaN, NaN, 0.0323506, "- N/A -   "
12.26, 412.052, 0.02055907, NaN, NaN, NaN, 0.0299091, "- N/A -   "
12.29, 412.994, 0.0206007, NaN, NaN, NaN, 0.0335714, "- N/A -   "
12.32, 413.937, 0.02064515, NaN, NaN, NaN, 0.03601294, "- N/A -   "
12.35, 414.88, 0.0206924, NaN, NaN, NaN, 0.0372337, "- N/A -   "
12.38, 416.058, 0.0207368, NaN, NaN, NaN, 0.0396753, "- N/A -   "
12.41, 417.118, 0.02078954, NaN, NaN, NaN, 0.0396753, "- N/A -   "
12.44, 418.061, 0.020834, NaN, NaN, NaN, 0.04211683, "- N/A -   "
12.47, 419.239, 0.0208867, NaN, NaN, NaN, 0.0396753, "- N/A -   "
12.5, 420.535, 0.0209367, NaN, NaN, NaN, 0.0396753, "- N/A -   "
12.53, 421.596, 0.02098669, NaN, NaN, NaN, 0.0396753, "- N/A -   "
12.56, 422.7739, 0.0210394, NaN, NaN, NaN, 0.0384545, "- N/A -   "
12.59, 424.07, 0.0210922, NaN, NaN, NaN, 0.0372337, "- N/A -   "
12.62, 425.248, 0.0211422, NaN, NaN, NaN, 0.0372337, "- N/A -   "
12.65, 426.4265, 0.0211949, NaN, NaN, NaN, 0.03601294, "- N/A -   "
12.68, 427.6048, 0.0212449, NaN, NaN, NaN, 0.0372337, "- N/A -   "
12.71, 428.665, 0.0212949, NaN, NaN, NaN, 0.0384545, "- N/A -   "
12.74, 429.8435, 0.0213421, NaN, NaN, NaN, 0.0384545, "- N/A -   "
12.77, 430.904, 0.02139765, NaN, NaN, NaN, 0.0372337, "- N/A -   "
12.8, 432.2, 0.0214532, NaN, NaN, NaN, 0.0347922, "- N/A -   "
12.83, 433.26, 0.0215032, NaN, NaN, NaN, 0.0347922, "- N/A -   "
12.86, 434.674, 0.0215531, NaN, NaN, NaN, 0.0335714, "- N/A -   "
12.89, 435.617, 0.02160313, NaN, NaN, NaN, 0.0347922, "- N/A -   "
12.92, 436.7952, 0.02165311, NaN, NaN, NaN, 0.0347922, "- N/A -   "
12.95, 437.856, 0.0217003, NaN, NaN, NaN, 0.0347922, "- N/A -   "
12.98, 439.152, 0.0217531, NaN, NaN, NaN, 0.0347922, "- N/A -   "
13.01, 440.2122, 0.0218058, NaN, NaN, NaN, 0.0335714, "- N/A -   "
13.04, 441.39, 0.0218558, NaN, NaN, NaN, 0.0323506, "- N/A -   "
13.07, 442.451, 0.02190024, NaN, NaN, NaN, 0.0347922, "- N/A -   "
13.1, 443.393, 0.0219447, NaN, NaN, NaN, 0.0372337, "- N/A -   "
13.13, 444.454, 0.0219919, NaN, NaN, NaN, 0.0384545, "- N/A -   "
13.16, 445.514, 0.0220363, NaN, NaN, NaN, 0.04089605, "- N/A -   "
13.19, 446.5748, 0.0220835, NaN, NaN, NaN, 0.04211683, "- N/A -   "
13.22, 447.753, 0.0221307, NaN, NaN, NaN, 0.0433376, "- N/A -   "
13.25, 448.696, 0.0221751, NaN, NaN, NaN, 0.04577916, "- N/A -   "
13.28, 449.992, 0.0222307, NaN, NaN, NaN, 0.0445584, "- N/A -   "
13.31, 451.406, 0.0222834, NaN, NaN, NaN, 0.04211683, "- N/A -   "
13.34, 452.702, 0.022339, NaN, NaN, NaN, 0.0396753, "- N/A -   "
13.37, 453.998, 0.0224001, NaN, NaN, NaN, 0.0347922, "- N/A -   "
13.4, 455.2939, 0.0224556, NaN, NaN, NaN, 0.0323506, "- N/A -   "
13.43, 456.472, 0.0225084, NaN, NaN, NaN, 0.0323506, "- N/A -   "
13.46, 457.65, 0.0225556, NaN, NaN, NaN, 0.0323506, "- N/A -   "
13.49, 458.593, 0.0226, NaN, NaN, NaN, 0.0347922, "- N/A -   "
13.52, 459.653, 0.0226472, NaN, NaN, NaN, 0.03601294, "- N/A -   "
13.55, 460.832, 0.0226999, NaN, NaN, NaN, 0.03601294, "- N/A -   "
13.58, 462.246, 0.0227555, NaN, NaN, NaN, 0.0323506, "- N/A -   "
13.61, 463.542, 0.0228138, NaN, NaN, NaN, 0.0286883, "- N/A -   "
13.64, 464.838, 0.0228666, NaN, NaN, NaN, 0.0274675, "- N/A -   "
13.67, 465.78, 0.0229138, NaN, NaN, NaN, 0.0286883, "- N/A -   "
13.7, 466.841, 0.0229582, NaN, NaN, NaN, 0.03112983, "- N/A -   "
13.73, 467.901, 0.0230026, NaN, NaN, NaN, 0.0347922, "- N/A -   "
13.76, 468.8439, 0.02304704, NaN, NaN, NaN, 0.0372337, "- N/A -   "
13.79, 469.787, 0.0230887, NaN, NaN, NaN, 0.0396753, "- N/A -   "
13.82, 470.729, 0.0231303, NaN, NaN, NaN, 0.0433376, "- N/A -   "
13.85, 471.9074, 0.0231803, NaN, NaN, NaN, 0.0445584, "- N/A -   "
13.88, 472.968, 0.02322753, NaN, NaN, NaN, 0.0445584, "- N/A -   "
13.91, 474.264, 0.0232803, NaN, NaN, NaN, 0.0433376, "- N/A -   "
13.94, 475.442, 0.023333, NaN, NaN, NaN, 0.04211683, "- N/A -   "
13.97, 476.738, 0.0233886, NaN, NaN, NaN, 0.04089605, "- N/A -   "
14, 477.9165, 0.0234413, NaN, NaN, NaN, 0.0384545, "- N/A -   "
14.03, 479.2126, 0.02349132, NaN, NaN, NaN, 0.0384545, "- N/A -   "
14.06, 480.5087, 0.0235469, NaN, NaN, NaN, 0.03601294, "- N/A -   "
14.09, 481.687, 0.0235968, NaN, NaN, NaN, 0.03601294, "- N/A -   "
14.12, 482.7474, 0.0236468, NaN, NaN, NaN, 0.03601294, "- N/A -   "
14.15, 484.1613, 0.0237024, NaN, NaN, NaN, 0.0335714, "- N/A -   "
14.18, 485.4574, 0.0237607, NaN, NaN, NaN, 0.0299091, "- N/A -   "
14.21, 486.518, 0.02380787, NaN, NaN, NaN, 0.03112983, "- N/A -   "
14.24, 487.8139, 0.0238579, NaN, NaN, NaN, 0.03112983, "- N/A -   "
14.27, 489.2278, 0.0239134, NaN, NaN, NaN, 0.0299091, "- N/A -   "
14.3, 490.17, 0.0239634, NaN, NaN, NaN, 0.0299091, "- N/A -   "
14.33, 491.231, 0.0240106, NaN, NaN, NaN, 0.03112983, "- N/A -   "
14.36, 492.291, 0.024055, NaN, NaN, NaN, 0.0323506, "- N/A -   "
14.39, 493.352, 0.0240967, NaN, NaN, NaN, 0.03601294, "- N/A -   "
14.42, 494.294, 0.02414108, NaN, NaN, NaN, 0.0384545, "- N/A -   "
14.45, 495.3548, 0.0241855, NaN, NaN, NaN, 0.04089605, "- N/A -   "
14.48, 496.2974, 0.0242299, NaN, NaN, NaN, 0.0433376, "- N/A -   "
14.51, 497.476, 0.0242771, NaN, NaN, NaN, 0.0445584, "- N/A -   "
14.54, 498.654, 0.0243271, NaN, NaN, NaN, 0.0445584, "- N/A -   "
14.57, 499.832, 0.0243771, NaN, NaN, NaN, 0.0445584, "- N/A -   "
14.6, 501.01, 0.0244243, NaN, NaN, NaN, 0.04577916, "- N/A -   "
14.63, 502.1887, 0.0244771, NaN, NaN, NaN, 0.04577916, "- N/A -   "
14.66, 503.485, 0.0245298, NaN, NaN, NaN, 0.0433376, "- N/A -   "
14.69, 504.781, 0.0245881, NaN, NaN, NaN, 0.04089605, "- N/A -   "
14.72, 506.195, 0.0246437, NaN, NaN, NaN, 0.0372337, "- N/A -   "
14.75, 507.609, 0.0247048, NaN, NaN, NaN, 0.0335714, "- N/A -   "
14.78, 509.14, 0.0247631, NaN, NaN, NaN, 0.0286883, "- N/A -   "
14.81, 510.319, 0.0248158, NaN, NaN, NaN, 0.0274675, "- N/A -   "
14.84, 511.615, 0.0248686, NaN, NaN, NaN, 0.0262467, "- N/A -   "
14.87, 512.5574, 0.024913, NaN, NaN, NaN, 0.0286883, "- N/A -   "
14.9, 513.6183, 0.0249574, NaN, NaN, NaN, 0.03112983, "- N/A -   "
14.93, 514.6828, 0.02500465, NaN, NaN, NaN, 0.0323506, "- N/A -   "
14.96, 515.8656, 0.0250519, NaN, NaN, NaN, 0.0335714, "- N/A -   "
14.99, 517.048, 0.02509906, NaN, NaN, NaN, 0.0347922, "- N/A -   "
15.02, 518.35, 0.0251518, NaN, NaN, NaN, 0.0335714, "- N/A -   "
15.05, 519.414, 0.025199, NaN, NaN, NaN, 0.0347922, "- N/A -   "
15.08, 520.4786, 0.025249, NaN, NaN, NaN, 0.03601294, "- N/A -   "
15.11, 521.6614, 0.02529621, NaN, NaN, NaN, 0.0372337, "- N/A -   "
15.14, 522.4894, 0.0253351, NaN, NaN, NaN, 0.04089605, "- N/A -   "
15.17, 523.6722, 0.0253823, NaN, NaN, NaN, 0.04211683, "- N/A -   "
15.2, 524.855, 0.0254295, NaN, NaN, NaN, 0.0433376, "- N/A -   "
15.23, 525.9195, 0.0254767, NaN, NaN, NaN, 0.04577916, "- N/A -   "
15.26, 526.8657, 0.0255267, NaN, NaN, NaN, 0.04577916, "- N/A -   "
15.29, 528.2851, 0.0255767, NaN, NaN, NaN, 0.04577916, "- N/A -   "
15.32, 529.704, 0.025635, NaN, NaN, NaN, 0.04089605, "- N/A -   "
15.35, 531.124, 0.0256961, NaN, NaN, NaN, 0.0372337, "- N/A -   "
15.38, 532.5432, 0.0257516, NaN, NaN, NaN, 0.0335714, "- N/A -   "
15.41, 533.8443, 0.0258071, NaN, NaN, NaN, 0.03112983, "- N/A -   "
15.44, 535.0271, 0.0258571, NaN, NaN, NaN, 0.03112983, "- N/A -   "
15.47, 536.2099, 0.0259071, NaN, NaN, NaN, 0.03112983, "- N/A -   "
15.5, 537.2744, 0.0259515, NaN, NaN, NaN, 0.0335714, "- N/A -   "
15.53, 538.339, 0.0259987, NaN, NaN, NaN, 0.0347922, "- N/A -   "
15.56, 539.5218, 0.0260459, NaN, NaN, NaN, 0.03601294, "- N/A -   "
15.59, 540.7046, 0.0260931, NaN, NaN, NaN, 0.0372337, "- N/A -   "
15.62, 542.0057, 0.0261487, NaN, NaN, NaN, 0.0347922, "- N/A -   "
15.65, 543.425, 0.0262042, NaN, NaN, NaN, 0.0323506, "- N/A -   "
15.68, 544.726, 0.026257, NaN, NaN, NaN, 0.03112983, "- N/A -   "
15.71, 545.791, 0.02630417, NaN, NaN, NaN, 0.0335714, "- N/A -   "
15.74, 546.8552, 0.0263486, NaN, NaN, NaN, 0.0347922, "- N/A -   "
15.77, 547.801, 0.026393, NaN, NaN, NaN, 0.0372337, "- N/A -   "
15.8, 548.866, 0.0264375, NaN, NaN, NaN, 0.0396753, "- N/A -   "
15.83, 550.049, 0.0264847, NaN, NaN, NaN, 0.04089605, "- N/A -   "
15.86, 551.232, 0.0265346, NaN, NaN, NaN, 0.04211683, "- N/A -   "
15.89, 552.4144, 0.0265846, NaN, NaN, NaN, 0.04089605, "- N/A -   "
15.92, 553.7155, 0.0266346, NaN, NaN, NaN, 0.04089605, "- N/A -   "
15.95, 554.8983, 0.0266874, NaN, NaN, NaN, 0.04089605, "- N/A -   "
15.98, 556.1994, 0.0267373, NaN, NaN, NaN, 0.0396753, "- N/A -   "
16.01, 557.5005, 0.0267901, NaN, NaN, NaN, 0.0384545, "- N/A -   "
16.04, 558.8016, 0.0268456, NaN, NaN, NaN, 0.03601294, "- N/A -   "
16.07, 560.103, 0.0268984, NaN, NaN, NaN, 0.0347922, "- N/A -   "
16.1, 561.404, 0.0269512, NaN, NaN, NaN, 0.0335714, "- N/A -   "
16.13, 562.468, 0.02699836, NaN, NaN, NaN, 0.0347922, "- N/A -   "
16.16, 563.769, 0.0270511, NaN, NaN, NaN, 0.0347922, "- N/A -   "
16.19, 565.07, 0.0271039, NaN, NaN, NaN, 0.0335714, "- N/A -   "
16.22, 566.3715, 0.0271566, NaN, NaN, NaN, 0.03112983, "- N/A -   "
16.25, 567.5544, 0.0272066, NaN, NaN, NaN, 0.03112983, "- N/A -   "
16.28, 568.8554, 0.0272566, NaN, NaN, NaN, 0.03112983, "- N/A -   "
16.31, 569.8017, 0.0273038, NaN, NaN, NaN, 0.0323506, "- N/A -   "
16.34, 571.1028, 0.027351, NaN, NaN, NaN, 0.0335714, "- N/A -   "
16.37, 572.167, 0.0273982, NaN, NaN, NaN, 0.0347922, "- N/A -   "
16.4, 573.4684, 0.02745097, NaN, NaN, NaN, 0.0347922, "- N/A -   "
16.43, 574.6512, 0.0275037, NaN, NaN, NaN, 0.0335714, "- N/A -   "
16.46, 575.834, 0.0275482, NaN, NaN, NaN, 0.03601294, "- N/A -   "
16.49, 576.8985, 0.0275954, NaN, NaN, NaN, 0.0372337, "- N/A -   "
16.52, 577.9631, 0.0276398, NaN, NaN, NaN, 0.0396753, "- N/A -   "
16.55, 579.1459, 0.027687, NaN, NaN, NaN, 0.0396753, "- N/A -   "
16.58, 580.3287, 0.027737, NaN, NaN, NaN, 0.0396753, "- N/A -   "
16.61, 581.5115, 0.0277842, NaN, NaN, NaN, 0.04089605, "- N/A -   "
16.64, 582.576, 0.0278314, NaN, NaN, NaN, 0.04211683, "- N/A -   "
16.67, 583.8771, 0.0278814, NaN, NaN, NaN, 0.04211683, "- N/A -   "
16.7, 585.178, 0.0279313, NaN, NaN, NaN, 0.04211683, "- N/A -   "
16.73, 586.598, 0.0279897, NaN, NaN, NaN, 0.0384545, "- N/A -   "
16.76, 587.8987, 0.0280452, NaN, NaN, NaN, 0.0372337, "- N/A -   "
16.79, 589.318, 0.0281007, NaN, NaN, NaN, 0.0335714, "- N/A -   "
16.82, 590.619, 0.0281535, NaN, NaN, NaN, 0.0323506, "- N/A -   "
16.85, 591.802, 0.0282007, NaN, NaN, NaN, 0.0335714, "- N/A -   "
16.88, 592.9847, 0.0282507, NaN, NaN, NaN, 0.0335714, "- N/A -   "
16.91, 594.168, 0.0282979, NaN, NaN, NaN, 0.03601294, "- N/A -   "
[...]
36.2, 1436.34, 0.0604527, NaN, NaN, NaN, 0.0347922, "- N/A -   "
36.22, 1437.18, 0.06048321, NaN, NaN, NaN, 0.03601294, "- N/A -   "
36.24, 1438.014, 0.06051098, NaN, NaN, NaN, 0.0372337, "- N/A -   "
36.26, 1438.85, 0.06054152, NaN, NaN, NaN, 0.0384545, "- N/A -   "
36.28, 1439.45, 0.06056929, NaN, NaN, NaN, 0.04089605, "- N/A -   "
36.3, 1440.16, 0.06059706, NaN, NaN, NaN, 0.0433376, "- N/A -   "
36.32, 1441, 0.0606304, NaN, NaN, NaN, 0.0445584, "- N/A -   "
36.34, 1442.07, 0.0606665, NaN, NaN, NaN, 0.04211683, "- N/A -   "
36.36, 1443.02, 0.0607026, NaN, NaN, NaN, 0.04089605, "- N/A -   "
36.38, 1443.98, 0.0607359, NaN, NaN, NaN, 0.04089605, "- N/A -   "
36.4, 1445.05, 0.060772, NaN, NaN, NaN, 0.0396753, "- N/A -   "
36.42, 1445.88, 0.0608053, NaN, NaN, NaN, 0.0396753, "- N/A -   "
36.44, 1446.84, 0.06084141, NaN, NaN, NaN, 0.0384545, "- N/A -   "
36.46, 1447.67, 0.06087473, NaN, NaN, NaN, 0.0384545, "- N/A -   "
36.48, 1448.63, 0.0609053, NaN, NaN, NaN, 0.0396753, "- N/A -   "
36.5, 1449.58, 0.0609414, NaN, NaN, NaN, 0.0396753, "- N/A -   "
36.52, 1450.54, 0.0609747, NaN, NaN, NaN, 0.0384545, "- N/A -   "
36.54, 1451.49, 0.0610108, NaN, NaN, NaN, 0.0372337, "- N/A -   "
36.56, 1452.44, 0.0610469, NaN, NaN, NaN, 0.03601294, "- N/A -   "
36.58, 1453.4, 0.06108299, NaN, NaN, NaN, 0.0347922, "- N/A -   "
36.6, 1454.47, 0.0611191, NaN, NaN, NaN, 0.0335714, "- N/A -   "
36.62, 1455.19, 0.06115241, NaN, NaN, NaN, 0.0335714, "- N/A -   "
36.64, 1456.26, 0.06119128, NaN, NaN, NaN, 0.0323506, "- N/A -   "
36.66, 1457.33, 0.0612246, NaN, NaN, NaN, 0.03112983, "- N/A -   "
36.68, 1458.17, 0.0612579, NaN, NaN, NaN, 0.03112983, "- N/A -   "
36.7, 1459, 0.06128847, NaN, NaN, NaN, 0.0323506, "- N/A -   "
36.72, 1459.84, 0.06132179, NaN, NaN, NaN, 0.0323506, "- N/A -   "
36.74, 1460.79, 0.06135511, NaN, NaN, NaN, 0.0323506, "- N/A -   "
36.76, 1461.75, 0.06138843, NaN, NaN, NaN, 0.0323506, "- N/A -   "
36.78, 1462.58, 0.0614245, NaN, NaN, NaN, 0.0323506, "- N/A -   "
36.8, 1463.53, 0.06145785, NaN, NaN, NaN, 0.03112983, "- N/A -   "
36.82, 1464.49, 0.0614912, NaN, NaN, NaN, 0.03112983, "- N/A -   "
36.84, 1465.32, 0.0615217, NaN, NaN, NaN, 0.0323506, "- N/A -   "
36.86, 1466.04, 0.06155226, NaN, NaN, NaN, 0.0335714, "- N/A -   "
36.88, 1466.87, 0.0615828, NaN, NaN, NaN, 0.0347922, "- N/A -   "
36.9, 1467.827, 0.0616189, NaN, NaN, NaN, 0.0335714, "- N/A -   "
36.92, 1468.9, 0.061655, NaN, NaN, NaN, 0.0335714, "- N/A -   "
36.94, 1469.62, 0.0616855, NaN, NaN, NaN, 0.0335714, "- N/A -   "
36.96, 1470.45, 0.06171331, NaN, NaN, NaN, 0.03601294, "- N/A -   "
36.98, 1471.29, 0.0617439, NaN, NaN, NaN, 0.0372337, "- N/A -   "
36.99, 1471.64, 0.0617577, NaN, NaN, NaN, 0.0384545, "- N/A -   "
37, 1472, 0.0617744, NaN, NaN, NaN, 0.0384545, "- N/A -   "
37.01, 1472.48, 0.0617883, NaN, NaN, NaN, 0.0396753, "- N/A -   "
37.02, 1472.84, 0.0618049, NaN, NaN, NaN, 0.0396753, "- N/A -   "
37.03, 1473.19, 0.0618188, NaN, NaN, NaN, 0.04089605, "- N/A -   "
37.04, 1473.55, 0.06183549, NaN, NaN, NaN, 0.04089605, "- N/A -   "
37.05, 1474.15, 0.06185215, NaN, NaN, NaN, 0.04089605, "- N/A -   "
37.06, 1474.39, 0.06186881, NaN, NaN, NaN, 0.04211683, "- N/A -   "
37.07, 1474.86, 0.0618827, NaN, NaN, NaN, 0.04211683, "- N/A -   "
37.08, 1475.34, 0.0618994, NaN, NaN, NaN, 0.04211683, "- N/A -   "
37.09, 1475.7, 0.061916, NaN, NaN, NaN, 0.0433376, "- N/A -   "
37.1, 1476.17, 0.0619299, NaN, NaN, NaN, 0.0433376, "- N/A -   "
37.11, 1476.53, 0.06194656, NaN, NaN, NaN, 0.0445584, "- N/A -   "
37.12, 1477.01, 0.0619604, NaN, NaN, NaN, 0.0445584, "- N/A -   "
37.13, 1477.49, 0.0619771, NaN, NaN, NaN, 0.04577916, "- N/A -   "
37.14, 1477.96, 0.0619965, NaN, NaN, NaN, 0.0445584, "- N/A -   "
37.15, 1478.44, 0.0620132, NaN, NaN, NaN, 0.0445584, "- N/A -   "
37.16, 1478.8, 0.06202708, NaN, NaN, NaN, 0.0445584, "- N/A -   "
37.17, 1479.156, 0.0620437, NaN, NaN, NaN, 0.0445584, "- N/A -   "
37.18, 1479.75, 0.0620604, NaN, NaN, NaN, 0.04577916, "- N/A -   "
37.19, 1480.23, 0.0620771, NaN, NaN, NaN, 0.0445584, "- N/A -   "
37.2, 1480.587, 0.0620937, NaN, NaN, NaN, 0.0445584, "- N/A -   "
37.21, 1481.064, 0.06211039, NaN, NaN, NaN, 0.0445584, "- N/A -   "
37.22, 1481.66, 0.0621298, NaN, NaN, NaN, 0.0433376, "- N/A -   "
37.23, 1482.26, 0.06214926, NaN, NaN, NaN, 0.04211683, "- N/A -   "
37.24, 1482.73, 0.0621715, NaN, NaN, NaN, 0.0396753, "- N/A -   "
37.25, 1483.33, 0.0621909, NaN, NaN, NaN, 0.0384545, "- N/A -   "
37.26, 1484.05, 0.0622131, NaN, NaN, NaN, 0.0372337, "- N/A -   "
37.27, 1484.52, 0.0622326, NaN, NaN, NaN, 0.03601294, "- N/A -   "
37.28, 1485, 0.0622492, NaN, NaN, NaN, 0.0347922, "- N/A -   "
37.29, 1485.48, 0.0622687, NaN, NaN, NaN, 0.0347922, "- N/A -   "
37.3, 1485.95, 0.0622853, NaN, NaN, NaN, 0.0347922, "- N/A -   "
37.31, 1486.43, 0.062302, NaN, NaN, NaN, 0.0347922, "- N/A -   "
37.32, 1486.79, 0.0623186, NaN, NaN, NaN, 0.0347922, "- N/A -   "
37.33, 1487.15, 0.0623325, NaN, NaN, NaN, 0.0347922, "- N/A -   "
37.34, 1487.62, 0.0623492, NaN, NaN, NaN, 0.0347922, "- N/A -   "
37.35, 1488.1, 0.06236585, NaN, NaN, NaN, 0.0347922, "- N/A -   "
37.36, 1488.58, 0.0623825, NaN, NaN, NaN, 0.03601294, "- N/A -   "
37.37, 1488.82, 0.0623992, NaN, NaN, NaN, 0.03601294, "- N/A -   "
37.38, 1489.29, 0.0624158, NaN, NaN, NaN, 0.03601294, "- N/A -   "
37.39, 1489.77, 0.0624325, NaN, NaN, NaN, 0.03601294, "- N/A -   "
37.4, 1490.25, 0.0624492, NaN, NaN, NaN, 0.03601294, "- N/A -   "
37.41, 1490.72, 0.0624658, NaN, NaN, NaN, 0.0347922, "- N/A -   "
37.42, 1491.2, 0.0624825, NaN, NaN, NaN, 0.0347922, "- N/A -   "
37.43, 1491.68, 0.0624991, NaN, NaN, NaN, 0.0347922, "- N/A -   "
37.44, 1492.15, 0.0625186, NaN, NaN, NaN, 0.0335714, "- N/A -   "
37.45, 1492.63, 0.06253801, NaN, NaN, NaN, 0.0335714, "- N/A -   "
37.46, 1493.23, 0.06255467, NaN, NaN, NaN, 0.0323506, "- N/A -   "
37.47, 1493.7, 0.06257688, NaN, NaN, NaN, 0.03112983, "- N/A -   "
37.48, 1494.18, 0.06259354, NaN, NaN, NaN, 0.0299091, "- N/A -   "
37.49, 1494.778, 0.06261298, NaN, NaN, NaN, 0.0286883, "- N/A -   "
37.5, 1495.37, 0.06263242, NaN, NaN, NaN, 0.0274675, "- N/A -   "
37.51, 1495.85, 0.06264908, NaN, NaN, NaN, 0.0274675, "- N/A -   "
37.52, 1496.209, 0.06266851, NaN, NaN, NaN, 0.0262467, "- N/A -   "
37.53, 1496.69, 0.0626824, NaN, NaN, NaN, 0.0274675, "- N/A -   "
37.54, 1497.04, 0.0626991, NaN, NaN, NaN, 0.0286883, "- N/A -   "
37.55, 1497.4, 0.0627129, NaN, NaN, NaN, 0.0286883, "- N/A -   "
37.56, 1497.88, 0.0627296, NaN, NaN, NaN, 0.0286883, "- N/A -   "
37.57, 1498.24, 0.0627435, NaN, NaN, NaN, 0.0299091, "- N/A -   "
37.58, 1498.594, 0.0627601, NaN, NaN, NaN, 0.03112983, "- N/A -   "
37.59, 1498.95, 0.06277403, NaN, NaN, NaN, 0.0323506, "- N/A -   "
37.6, 1499.31, 0.06278792, NaN, NaN, NaN, 0.0323506, "- N/A -   "
37.61, 1499.67, 0.06279902, NaN, NaN, NaN, 0.0347922, "- N/A -   "
37.62, 1500.025, 0.0628129, NaN, NaN, NaN, 0.03601294, "- N/A -   "
37.63, 1500.38, 0.06282679, NaN, NaN, NaN, 0.0372337, "- N/A -   "
37.64, 1500.86, 0.06284068, NaN, NaN, NaN, 0.0384545, "- N/A -   "
37.65, 1501.22, 0.06285734, NaN, NaN, NaN, 0.0396753, "- N/A -   "
37.66, 1501.456, 0.06287122, NaN, NaN, NaN, 0.0396753, "- N/A -   "
37.67, 1501.81, 0.0628851, NaN, NaN, NaN, 0.04089605, "- N/A -   "
37.68, 1502.29, 0.06290176, NaN, NaN, NaN, 0.04211683, "- N/A -   "
37.69, 1502.77, 0.0629156, NaN, NaN, NaN, 0.04211683, "- N/A -   "
37.7, 1503.13, 0.06292953, NaN, NaN, NaN, 0.0433376, "- N/A -   "
37.71, 1503.48, 0.0629434, NaN, NaN, NaN, 0.0445584, "- N/A -   "
37.72, 1503.84, 0.06296007, NaN, NaN, NaN, 0.0445584, "- N/A -   "
37.73, 1504.32, 0.062974, NaN, NaN, NaN, 0.04577916, "- N/A -   "
37.74, 1504.56, 0.06299062, NaN, NaN, NaN, 0.04699994, "- N/A -   "
37.75, 1505.15, 0.06300728, NaN, NaN, NaN, 0.04699994, "- N/A -   "
37.76, 1505.51, 0.06302116, NaN, NaN, NaN, 0.04699994, "- N/A -   "
37.77, 1505.87, 0.06303782, NaN, NaN, NaN, 0.0482207, "- N/A -   "
37.78, 1506.35, 0.06305449, NaN, NaN, NaN, 0.04699994, "- N/A -   "
37.79, 1506.82, 0.06307115, NaN, NaN, NaN, 0.04699994, "- N/A -   "
37.8, 1507.3, 0.0630878, NaN, NaN, NaN, 0.0482207, "- N/A -   "
37.81, 1507.78, 0.0631045, NaN, NaN, NaN, 0.04699994, "- N/A -   "
37.82, 1508.25, 0.0631211, NaN, NaN, NaN, 0.04699994, "- N/A -   "
37.83, 1508.73, 0.06314334, NaN, NaN, NaN, 0.04577916, "- N/A -   "
37.84, 1509.33, 0.0631628, NaN, NaN, NaN, 0.0445584, "- N/A -   "
37.85, 1509.8, 0.06318221, NaN, NaN, NaN, 0.0433376, "- N/A -   "
37.86, 1510.4, 0.06320165, NaN, NaN, NaN, 0.04089605, "- N/A -   "
37.87, 1511, 0.06322109, NaN, NaN, NaN, 0.0396753, "- N/A -   "
37.88, 1511.59, 0.06324053, NaN, NaN, NaN, 0.0384545, "- N/A -   "
37.89, 1512.07, 0.06325996, NaN, NaN, NaN, 0.0372337, "- N/A -   "
37.9, 1512.55, 0.0632794, NaN, NaN, NaN, 0.03601294, "- N/A -   "
37.91, 1513.14, 0.06329884, NaN, NaN, NaN, 0.0347922, "- N/A -   "
37.92, 1513.74, 0.0633183, NaN, NaN, NaN, 0.0335714, "- N/A -   "
37.93, 1514.216, 0.06333771, NaN, NaN, NaN, 0.0323506, "- N/A -   "
37.94, 1514.693, 0.06335437, NaN, NaN, NaN, 0.0323506, "- N/A -   "
37.95, 1515.17, 0.06337103, NaN, NaN, NaN, 0.0323506, "- N/A -   "
37.96, 1515.53, 0.06339047, NaN, NaN, NaN, 0.0323506, "- N/A -   "
37.97, 1516, 0.06340713, NaN, NaN, NaN, 0.0323506, "- N/A -   "
37.98, 1516.48, 0.06342379, NaN, NaN, NaN, 0.03112983, "- N/A -   "
37.99, 1516.96, 0.06344045, NaN, NaN, NaN, 0.0323506, "- N/A -   "
38, 1517.44, 0.06345711, NaN, NaN, NaN, 0.03112983, "- N/A -   "
38.01, 1517.79, 0.063471, NaN, NaN, NaN, 0.0323506, "- N/A -   "
38.02, 1518.39, 0.0634904, NaN, NaN, NaN, 0.03112983, "- N/A -   "
38.03, 1518.87, 0.0635099, NaN, NaN, NaN, 0.0299091, "- N/A -   "
38.04, 1519.34, 0.0635293, NaN, NaN, NaN, 0.0286883, "- N/A -   "
38.05, 1519.94, 0.06354874, NaN, NaN, NaN, 0.0286883, "- N/A -   "
38.06, 1520.42, 0.0635654, NaN, NaN, NaN, 0.0274675, "- N/A -   "
38.07, 1520.89, 0.06358484, NaN, NaN, NaN, 0.0274675, "- N/A -   "
38.08, 1521.37, 0.0636015, NaN, NaN, NaN, 0.0274675, "- N/A -   "
38.09, 1521.729, 0.06361817, NaN, NaN, NaN, 0.0274675, "- N/A -   "
38.1, 1522.33, 0.06363205, NaN, NaN, NaN, 0.0274675, "- N/A -   "
38.11, 1522.44, 0.06364871, NaN, NaN, NaN, 0.0274675, "- N/A -   "
38.12, 1522.92, 0.06366537, NaN, NaN, NaN, 0.0274675, "- N/A -   "
38.13, 1523.52, 0.06368203, NaN, NaN, NaN, 0.0274675, "- N/A -   "
38.14, 1523.99, 0.06369869, NaN, NaN, NaN, 0.0274675, "- N/A -   "
38.15, 1524.35, 0.0637153, NaN, NaN, NaN, 0.0274675, "- N/A -   "
38.16, 1524.83, 0.063732, NaN, NaN, NaN, 0.0274675, "- N/A -   "
38.17, 1525.19, 0.06374867, NaN, NaN, NaN, 0.0286883, "- N/A -   "
38.18, 1525.54, 0.06376255, NaN, NaN, NaN, 0.0286883, "- N/A -   "
38.19, 1526.022, 0.06377922, NaN, NaN, NaN, 0.0299091, "- N/A -   "
38.2, 1526.38, 0.0637931, NaN, NaN, NaN, 0.0299091, "- N/A -   "
38.21, 1526.74, 0.06380698, NaN, NaN, NaN, 0.0323506, "- N/A -   "
38.22, 1527.1, 0.06382364, NaN, NaN, NaN, 0.03112983, "- N/A -   "
38.23, 1527.57, 0.06383753, NaN, NaN, NaN, 0.0323506, "- N/A -   "
38.24, 1527.93, 0.06385419, NaN, NaN, NaN, 0.0335714, "- N/A -   "
38.25, 1528.17, 0.0638653, NaN, NaN, NaN, 0.0347922, "- N/A -   "
38.26, 1528.65, 0.06387918, NaN, NaN, NaN, 0.03601294, "- N/A -   "
38.27, 1528.884, 0.06389306, NaN, NaN, NaN, 0.0372337, "- N/A -   "
38.28, 1529.24, 0.0639069, NaN, NaN, NaN, 0.0384545, "- N/A -   "
38.29, 1529.72, 0.06392083, NaN, NaN, NaN, 0.0396753, "- N/A -   "
38.3, 1530.08, 0.06393749, NaN, NaN, NaN, 0.0396753, "- N/A -   "
38.31, 1530.55, 0.06395137, NaN, NaN, NaN, 0.04089605, "- N/A -   "
38.32, 1530.79, 0.06396525, NaN, NaN, NaN, 0.04211683, "- N/A -   "
38.33, 1531.15, 0.06397914, NaN, NaN, NaN, 0.0433376, "- N/A -   "
38.34, 1531.63, 0.0639958, NaN, NaN, NaN, 0.0445584, "- N/A -   "
38.35, 1531.98, 0.06400969, NaN, NaN, NaN, 0.0445584, "- N/A -   "
38.36, 1532.46, 0.06402357, NaN, NaN, NaN, 0.04577916, "- N/A -   "
38.37, 1532.94, 0.06404023, NaN, NaN, NaN, 0.04577916, "- N/A -   "
38.38, 1533.3, 0.06405689, NaN, NaN, NaN, 0.04577916, "- N/A -   "
38.39, 1533.77, 0.06407355, NaN, NaN, NaN, 0.04577916, "- N/A -   "
38.4, 1534.131, 0.06409021, NaN, NaN, NaN, 0.04699994, "- N/A -   "
38.41, 1534.49, 0.0641069, NaN, NaN, NaN, 0.04577916, "- N/A -   "
38.42, 1535.09, 0.06412353, NaN, NaN, NaN, 0.04699994, "- N/A -   "
38.43, 1535.56, 0.06414019, NaN, NaN, NaN, 0.04577916, "- N/A -   "
38.44, 1535.92, 0.06415685, NaN, NaN, NaN, 0.04577916, "- N/A -   "
38.45, 1536.4, 0.06417352, NaN, NaN, NaN, 0.04577916, "- N/A -   "
38.46, 1536.99, 0.06419295, NaN, NaN, NaN, 0.04577916, "- N/A -   "
38.47, 1537.47, 0.06420962, NaN, NaN, NaN, 0.0445584, "- N/A -   "
38.48, 1537.95, 0.06422628, NaN, NaN, NaN, 0.0445584, "- N/A -   "
38.49, 1538.3, 0.06424294, NaN, NaN, NaN, 0.0445584, "- N/A -   "
38.5, 1538.782, 0.0642624, NaN, NaN, NaN, 0.0433376, "- N/A -   "
38.51, 1539.38, 0.0642763, NaN, NaN, NaN, 0.0445584, "- N/A -   "
38.52, 1539.62, 0.0642929, NaN, NaN, NaN, 0.0445584, "- N/A -   "
38.53, 1540.09, 0.0643124, NaN, NaN, NaN, 0.0445584, "- N/A -   "
38.54, 1540.69, 0.06432901, NaN, NaN, NaN, 0.0445584, "- N/A -   "
38.55, 1541.05, 0.06434567, NaN, NaN, NaN, 0.0445584, "- N/A -   "
38.56, 1541.644, 0.06436233, NaN, NaN, NaN, 0.0433376, "- N/A -   "
38.57, 1542, 0.06437899, NaN, NaN, NaN, 0.0433376, "- N/A -   "
38.58, 1542.48, 0.06439843, NaN, NaN, NaN, 0.04211683, "- N/A -   "
38.59, 1543.075, 0.06441787, NaN, NaN, NaN, 0.04089605, "- N/A -   "
38.6, 1543.552, 0.06443731, NaN, NaN, NaN, 0.0396753, "- N/A -   "
38.61, 1544.27, 0.06445952, NaN, NaN, NaN, 0.0384545, "- N/A -   "
38.62, 1544.74, 0.064479, NaN, NaN, NaN, 0.03601294, "- N/A -   "
38.63, 1545.34, 0.0645012, NaN, NaN, NaN, 0.0335714, "- N/A -   "
38.64, 1546.06, 0.0645234, NaN, NaN, NaN, 0.03112983, "- N/A -   "
38.65, 1546.65, 0.0645456, NaN, NaN, NaN, 0.0299091, "- N/A -   "
38.66, 1547.13, 0.06456504, NaN, NaN, NaN, 0.0286883, "- N/A -   "
38.67, 1547.61, 0.0645817, NaN, NaN, NaN, 0.0274675, "- N/A -   "
38.68, 1548.08, 0.06459836, NaN, NaN, NaN, 0.0274675, "- N/A -   "
38.69, 1548.56, 0.0646178, NaN, NaN, NaN, 0.0262467, "- N/A -   "
38.7, 1549.04, 0.06463446, NaN, NaN, NaN, 0.0262467, "- N/A -   "
38.71, 1549.51, 0.06465112, NaN, NaN, NaN, 0.0274675, "- N/A -   "
38.72, 1549.99, 0.064665, NaN, NaN, NaN, 0.0274675, "- N/A -   "
38.73, 1550.23, 0.06468166, NaN, NaN, NaN, 0.0274675, "- N/A -   "
38.74, 1550.71, 0.06469832, NaN, NaN, NaN, 0.0286883, "- N/A -   "
38.75, 1551.065, 0.0647122, NaN, NaN, NaN, 0.0286883, "- N/A -   "
38.76, 1551.54, 0.0647261, NaN, NaN, NaN, 0.0299091, "- N/A -   "
38.77, 1551.78, 0.06473997, NaN, NaN, NaN, 0.03112983, "- N/A -   "
38.78, 1552.26, 0.06475385, NaN, NaN, NaN, 0.0323506, "- N/A -   "
38.79, 1552.62, 0.06477051, NaN, NaN, NaN, 0.0335714, "- N/A -   "
38.8, 1552.97, 0.06478162, NaN, NaN, NaN, 0.0347922, "- N/A -   "
38.81, 1553.33, 0.06479828, NaN, NaN, NaN, 0.0347922, "- N/A -   "
38.82, 1553.69, 0.06481494, NaN, NaN, NaN, 0.03601294, "- N/A -   "
38.83, 1554.17, 0.06482883, NaN, NaN, NaN, 0.03601294, "- N/A -   "
38.84, 1554.64, 0.06484549, NaN, NaN, NaN, 0.03601294, "- N/A -   "
38.85, 1555, 0.06486215, NaN, NaN, NaN, 0.0372337, "- N/A -   "
38.86, 1555.48, 0.06487881, NaN, NaN, NaN, 0.03601294, "- N/A -   "
38.87, 1556.07, 0.06489547, NaN, NaN, NaN, 0.03601294, "- N/A -   "
38.88, 1556.43, 0.0649149, NaN, NaN, NaN, 0.03601294, "- N/A -   "
38.89, 1556.91, 0.06492879, NaN, NaN, NaN, 0.03601294, "- N/A -   "
38.9, 1557.39, 0.06494545, NaN, NaN, NaN, 0.03601294, "- N/A -   "
38.91, 1557.86, 0.06496211, NaN, NaN, NaN, 0.03601294, "- N/A -   "
38.92, 1558.34, 0.06497877, NaN, NaN, NaN, 0.03601294, "- N/A -   "
38.93, 1558.697, 0.06499543, NaN, NaN, NaN, 0.03601294, "- N/A -   "
38.94, 1559.05, 0.06500932, NaN, NaN, NaN, 0.0372337, "- N/A -   "
38.95, 1559.41, 0.06502598, NaN, NaN, NaN, 0.0372337, "- N/A -   "
38.96, 1559.77, 0.06504264, NaN, NaN, NaN, 0.0384545, "- N/A -   "
38.97, 1560.37, 0.0650593, NaN, NaN, NaN, 0.0372337, "- N/A -   "
38.98, 1560.84, 0.06507596, NaN, NaN, NaN, 0.0372337, "- N/A -   "
38.99, 1561.44, 0.06509262, NaN, NaN, NaN, 0.0372337, "- N/A -   "
39, 1561.8, 0.06510928, NaN, NaN, NaN, 0.0372337, "- N/A -   "
39.01, 1562.04, 0.06512316, NaN, NaN, NaN, 0.0384545, "- N/A -   "
39.02, 1562.51, 0.06513982, NaN, NaN, NaN, 0.0384545, "- N/A -   "
39.03, 1562.99, 0.0651537, NaN, NaN, NaN, 0.0396753, "- N/A -   "
39.04, 1563.35, 0.06517036, NaN, NaN, NaN, 0.04089605, "- N/A -   "
39.05, 1563.71, 0.06518425, NaN, NaN, NaN, 0.04089605, "- N/A -   "
39.06, 1564.18, 0.06520091, NaN, NaN, NaN, 0.04211683, "- N/A -   "
39.07, 1564.54, 0.0652148, NaN, NaN, NaN, 0.04211683, "- N/A -   "
39.08, 1565.02, 0.06523146, NaN, NaN, NaN, 0.0433376, "- N/A -   "
39.09, 1565.38, 0.06524534, NaN, NaN, NaN, 0.0433376, "- N/A -   "
39.1, 1565.852, 0.065262, NaN, NaN, NaN, 0.0433376, "- N/A -   "
39.11, 1566.33, 0.06527866, NaN, NaN, NaN, 0.0445584, "- N/A -   "
39.12, 1566.69, 0.0652925, NaN, NaN, NaN, 0.0445584, "- N/A -   "
39.13, 1567.164, 0.0653092, NaN, NaN, NaN, 0.04577916, "- N/A -   "
39.14, 1567.52, 0.06532587, NaN, NaN, NaN, 0.04577916, "- N/A -   "
39.15, 1567.88, 0.06534253, NaN, NaN, NaN, 0.0445584, "- N/A -   "
39.16, 1568.36, 0.06535919, NaN, NaN, NaN, 0.0445584, "- N/A -   "
39.17, 1568.83, 0.06537585, NaN, NaN, NaN, 0.0445584, "- N/A -   "
39.18, 1569.43, 0.06539529, NaN, NaN, NaN, 0.0445584, "- N/A -   "
39.19, 1569.91, 0.06541473, NaN, NaN, NaN, 0.04211683, "- N/A -   "
39.2, 1570.503, 0.06543416, NaN, NaN, NaN, 0.04089605, "- N/A -   "
39.21, 1571.1, 0.06545637, NaN, NaN, NaN, 0.0396753, "- N/A -   "
39.22, 1571.58, 0.06547581, NaN, NaN, NaN, 0.0372337, "- N/A -   "
39.23, 1572.17, 0.0654952, NaN, NaN, NaN, 0.03601294, "- N/A -   "
39.24, 1572.77, 0.06551468, NaN, NaN, NaN, 0.0347922, "- N/A -   "
39.25, 1573.25, 0.06553412, NaN, NaN, NaN, 0.0335714, "- N/A -   "
39.26, 1573.72, 0.06555356, NaN, NaN, NaN, 0.0323506, "- N/A -   "
39.27, 1574.2, 0.06557022, NaN, NaN, NaN, 0.0323506, "- N/A -   "
39.28, 1574.796, 0.06558966, NaN, NaN, NaN, 0.03112983, "- N/A -   "
39.29, 1575.39, 0.0656091, NaN, NaN, NaN, 0.0299091, "- N/A -   "
39.3, 1575.87, 0.06563131, NaN, NaN, NaN, 0.0286883, "- N/A -   "
39.31, 1576.47, 0.065648, NaN, NaN, NaN, 0.0274675, "- N/A -   "
39.32, 1576.94, 0.0656674, NaN, NaN, NaN, 0.0274675, "- N/A -   "
39.33, 1577.3, 0.06568407, NaN, NaN, NaN, 0.0262467, "- N/A -   "
39.34, 1577.66, 0.06569795, NaN, NaN, NaN, 0.0274675, "- N/A -   "
39.35, 1578.14, 0.06571461, NaN, NaN, NaN, 0.0274675, "- N/A -   "
39.36, 1578.49, 0.06572849, NaN, NaN, NaN, 0.0286883, "- N/A -   "
39.37, 1578.85, 0.06574515, NaN, NaN, NaN, 0.0286883, "- N/A -   "
39.38, 1579.33, 0.06576181, NaN, NaN, NaN, 0.0299091, "- N/A -   "
39.39, 1579.69, 0.0657757, NaN, NaN, NaN, 0.0299091, "- N/A -   "
39.4, 1580.04, 0.06578959, NaN, NaN, NaN, 0.03112983, "- N/A -   "
39.41, 1580.4, 0.06580347, NaN, NaN, NaN, 0.0323506, "- N/A -   "
39.42, 1580.88, 0.06581735, NaN, NaN, NaN, 0.0335714, "- N/A -   "
39.43, 1581.24, 0.06583124, NaN, NaN, NaN, 0.0347922, "- N/A -   "
39.44, 1581.47, 0.0658451, NaN, NaN, NaN, 0.03601294, "- N/A -   "
39.45, 1581.95, 0.0658618, NaN, NaN, NaN, 0.03601294, "- N/A -   "
39.46, 1582.43, 0.06587844, NaN, NaN, NaN, 0.0372337, "- N/A -   "
39.47, 1582.91, 0.0658951, NaN, NaN, NaN, 0.03601294, "- N/A -   "
39.48, 1583.38, 0.06591176, NaN, NaN, NaN, 0.03601294, "- N/A -   "
39.49, 1583.74, 0.0659312, NaN, NaN, NaN, 0.03601294, "- N/A -   "
39.5, 1584.34, 0.06594786, NaN, NaN, NaN, 0.0347922, "- N/A -   "
39.51, 1584.93, 0.0659673, NaN, NaN, NaN, 0.0335714, "- N/A -   "
39.52, 1585.41, 0.06598674, NaN, NaN, NaN, 0.0323506, "- N/A -   "
39.53, 1585.89, 0.0660034, NaN, NaN, NaN, 0.0323506, "- N/A -   "
39.54, 1586.24, 0.06602006, NaN, NaN, NaN, 0.0323506, "- N/A -   "
39.55, 1586.72, 0.0660367, NaN, NaN, NaN, 0.0323506, "- N/A -   "
39.56, 1587.2, 0.0660534, NaN, NaN, NaN, 0.0323506, "- N/A -   "
39.57, 1587.556, 0.0660673, NaN, NaN, NaN, 0.0335714, "- N/A -   "
39.575, 1587.79, 0.06607559, NaN, NaN, NaN, 0.0347922, "- N/A -   "