File: 2_Tensile_Data/Hamel_ForceTest_Bolt10_Test8.csv
Time, Load (lb), Position (in), AxialStrain (in), TransverseStrain (in), Auxiliary (), Control Out (V), Stress (psi)
0.0, 9.671693, 0.0, NaN, NaN, NaN, -0.007935055, "- N/A -   "
0.01, 9.671693, 0.0, NaN, NaN, NaN, -6.103888E-4, "- N/A -   "
0.02, 9.671693, 0.0, NaN, NaN, NaN, 0.006714277, "- N/A -   "
0.03, 9.78964, 0.0, NaN, NaN, NaN, 0.0213636, "- N/A -   "
0.04, 9.671693, 5.553504E-6, NaN, NaN, NaN, 0.0384545, "- N/A -   "
0.05, 9.907588, 1.38838e-05, NaN, NaN, NaN, 0.0543246, "- N/A -   "
0.06, 10.1435, 2.77675e-05, NaN, NaN, NaN, 0.06775316, "- N/A -   "
0.07, 10.26143, 4.99815e-05, NaN, NaN, NaN, 0.07874016, "- N/A -   "
0.08, 10.6153, 7.49723E-5, NaN, NaN, NaN, 0.0872856, "- N/A -   "
0.09, 10.9691, 9.99631e-05, NaN, NaN, NaN, 0.09461027, "- N/A -   "
0.1, 11.323, 0.000130507, NaN, NaN, NaN, 0.09949338, "- N/A -   "
0.11, 11.7947, 0.000158275, NaN, NaN, NaN, 0.09338949, "- N/A -   "
0.12, 12.0306, 0.000188819, NaN, NaN, NaN, 0.0872856, "- N/A -   "
0.13, 12.3845, 0.000216587, NaN, NaN, NaN, 0.08240249, "- N/A -   "
0.14, 12.7383, 2.415774E-4, NaN, NaN, NaN, 0.07874016, "- N/A -   "
0.15, 13.09217, 0.000269345, NaN, NaN, NaN, 0.07385705, "- N/A -   "
0.16, 13.446, 0.000291559, NaN, NaN, NaN, 0.07141549, "- N/A -   "
0.17, 13.6819, 0.000313773, NaN, NaN, NaN, 0.0689739, "- N/A -   "
0.18, 13.7999, 0.00033321, NaN, NaN, NaN, 0.06775316, "- N/A -   "
0.19, 14.1537, 0.000352647, NaN, NaN, NaN, 0.06653238, "- N/A -   "
0.2, 14.3896, 0.000372085, NaN, NaN, NaN, 0.0653116, "- N/A -   "
0.21, 14.6255, 0.000391522, NaN, NaN, NaN, 0.0640908, "- N/A -   "
0.22, 14.8614, 0.000410959, NaN, NaN, NaN, 0.06287005, "- N/A -   "
0.23, 15.0973, 0.000430397, NaN, NaN, NaN, 0.06164927, "- N/A -   "
0.24, 15.2152, 0.000449834, NaN, NaN, NaN, 0.0604285, "- N/A -   "
0.25, 15.4511, 0.000469271, NaN, NaN, NaN, 0.0592077, "- N/A -   "
0.26, 15.805, 0.000485932, NaN, NaN, NaN, 0.0592077, "- N/A -   "
0.27, 15.805, 5.053688E-4, NaN, NaN, NaN, 0.0579869, "- N/A -   "
0.28, 16.1588, 5.248061E-4, NaN, NaN, NaN, 0.05676616, "- N/A -   "
0.29, 16.3947, 5.442434E-4, NaN, NaN, NaN, 0.0555454, "- N/A -   "
0.3, 16.6306, 5.636806E-4, NaN, NaN, NaN, 0.0543246, "- N/A -   "
0.31, 16.86649, 5.858946E-4, NaN, NaN, NaN, 0.0531038, "- N/A -   "
0.32, 17.1024, 0.000602555, NaN, NaN, NaN, 0.05188305, "- N/A -   "
0.33, 17.4562, 0.000624769, NaN, NaN, NaN, 0.0494415, "- N/A -   "
0.34, 17.5742, 6.442064E-4, NaN, NaN, NaN, 0.0482207, "- N/A -   "
0.35, 17.8101, 6.636437E-4, NaN, NaN, NaN, 0.04699994, "- N/A -   "
0.36, 18.046, 6.858577E-4, NaN, NaN, NaN, 0.04577916, "- N/A -   "
0.37, 18.16391, 7.025182E-4, NaN, NaN, NaN, 0.0445584, "- N/A -   "
0.38, 18.3998, 7.191787E-4, NaN, NaN, NaN, 0.0445584, "- N/A -   "
0.39, 18.6357, 7.38616E-4, NaN, NaN, NaN, 0.0433376, "- N/A -   "
0.4, 18.8716, 0.000758053, NaN, NaN, NaN, 0.04211683, "- N/A -   "
0.41, 19.1075, 0.000774714, NaN, NaN, NaN, 0.04211683, "- N/A -   "
0.42, 19.3434, 0.000794151, NaN, NaN, NaN, 0.04089605, "- N/A -   "
0.43, 19.57928, 0.000813588, NaN, NaN, NaN, 0.0396753, "- N/A -   "
0.44, 19.6972, 0.000833026, NaN, NaN, NaN, 0.0384545, "- N/A -   "
0.45, 19.9331, 0.000849686, NaN, NaN, NaN, 0.0384545, "- N/A -   "
0.46, 20.169, 8.635698E-4, NaN, NaN, NaN, 0.0396753, "- N/A -   "
0.47, 20.287, 8.830071E-4, NaN, NaN, NaN, 0.0384545, "- N/A -   "
0.48, 20.52286, 0.000899668, NaN, NaN, NaN, 0.0384545, "- N/A -   "
0.5, 20.99465, 0.000935765, NaN, NaN, NaN, 0.0372337, "- N/A -   "
0.52, 21.46644, 0.000971863, NaN, NaN, NaN, 0.03601294, "- N/A -   "
0.54, 21.7023, 0.00100796, NaN, NaN, NaN, 0.0347922, "- N/A -   "
0.56, 22.1741, 0.001041282, NaN, NaN, NaN, 0.0347922, "- N/A -   "
0.58, 22.6459, 0.00107738, NaN, NaN, NaN, 0.0335714, "- N/A -   "
0.6, 22.9998, 0.00111348, NaN, NaN, NaN, 0.0323506, "- N/A -   "
0.62, 23.4715, 0.00114958, NaN, NaN, NaN, 0.03112983, "- N/A -   "
0.64, 23.9433, 0.001185673, NaN, NaN, NaN, 0.0299091, "- N/A -   "
0.66, 24.29718, 0.00121622, NaN, NaN, NaN, 0.03112983, "- N/A -   "
0.68, 24.65102, 0.00124954, NaN, NaN, NaN, 0.03112983, "- N/A -   "
0.7, 25.0049, 0.00128008, NaN, NaN, NaN, 0.0323506, "- N/A -   "
0.72, 25.3587, 0.00131063, NaN, NaN, NaN, 0.0335714, "- N/A -   "
0.74, 25.7125, 0.00133839, NaN, NaN, NaN, 0.03601294, "- N/A -   "
0.76, 26.18434, 0.00136894, NaN, NaN, NaN, 0.0372337, "- N/A -   "
0.78, 26.5382, 0.001399483, NaN, NaN, NaN, 0.0384545, "- N/A -   "
0.8, 26.892, 0.00143003, NaN, NaN, NaN, 0.0396753, "- N/A -   "
0.82, 27.2459, 0.00146057, NaN, NaN, NaN, 0.04089605, "- N/A -   "
0.84, 27.5997, 0.00149112, NaN, NaN, NaN, 0.04211683, "- N/A -   "
0.86, 27.95355, 0.00152166, NaN, NaN, NaN, 0.0433376, "- N/A -   "
0.88, 28.54329, 0.001554981, NaN, NaN, NaN, 0.0445584, "- N/A -   "
0.9, 28.89713, 0.00158553, NaN, NaN, NaN, 0.0445584, "- N/A -   "
0.92, 29.251, 0.00161885, NaN, NaN, NaN, 0.0445584, "- N/A -   "
0.94, 29.6048, 0.001654944, NaN, NaN, NaN, 0.0445584, "- N/A -   "
0.96, 30.1946, 0.00168827, NaN, NaN, NaN, 0.0433376, "- N/A -   "
0.98, 30.6663, 0.00172436, NaN, NaN, NaN, 0.04211683, "- N/A -   "
1, 31.1381, 0.00176046, NaN, NaN, NaN, 0.04089605, "- N/A -   "
1.02, 31.6099, 0.00179934, NaN, NaN, NaN, 0.0396753, "- N/A -   "
1.04, 32.08171, 0.00183266, NaN, NaN, NaN, 0.0384545, "- N/A -   "
1.06, 32.5535, 0.00187153, NaN, NaN, NaN, 0.03601294, "- N/A -   "
1.08, 33.1432, 0.00191041, NaN, NaN, NaN, 0.0335714, "- N/A -   "
1.1, 33.61503, 0.0019465, NaN, NaN, NaN, 0.0323506, "- N/A -   "
1.12, 34.08682, 0.001982601, NaN, NaN, NaN, 0.03112983, "- N/A -   "
1.14, 34.55861, 0.0020187, NaN, NaN, NaN, 0.0299091, "- N/A -   "
1.16, 35.1483, 0.0020548, NaN, NaN, NaN, 0.0286883, "- N/A -   "
1.18, 35.6201, 0.00209089, NaN, NaN, NaN, 0.0274675, "- N/A -   "
1.2, 36.0919, 0.002126992, NaN, NaN, NaN, 0.0262467, "- N/A -   "
1.22, 36.5637, 0.00216031, NaN, NaN, NaN, 0.0262467, "- N/A -   "
1.24, 36.9176, 0.00219086, NaN, NaN, NaN, 0.0274675, "- N/A -   "
1.26, 37.3893, 0.0022214, NaN, NaN, NaN, 0.0286883, "- N/A -   "
1.28, 37.74319, 0.00225195, NaN, NaN, NaN, 0.03112983, "- N/A -   "
1.3, 38.097, 0.00227971, NaN, NaN, NaN, 0.0323506, "- N/A -   "
1.32, 38.5688, 0.00230748, NaN, NaN, NaN, 0.0347922, "- N/A -   "
1.34, 38.9227, 0.002338025, NaN, NaN, NaN, 0.03601294, "- N/A -   "
1.36, 39.3945, 0.00236857, NaN, NaN, NaN, 0.0372337, "- N/A -   "
1.38, 39.8662, 0.00240189, NaN, NaN, NaN, 0.0372337, "- N/A -   "
1.4, 40.22009, 0.00243521, NaN, NaN, NaN, 0.0372337, "- N/A -   "
1.42, 40.69188, 0.00246853, NaN, NaN, NaN, 0.0372337, "- N/A -   "
1.44, 41.04572, 0.00249908, NaN, NaN, NaN, 0.0384545, "- N/A -   "
1.46, 41.51751, 0.0025324, NaN, NaN, NaN, 0.0384545, "- N/A -   "
1.48, 41.9893, 0.00256572, NaN, NaN, NaN, 0.0396753, "- N/A -   "
1.5, 42.4611, 0.00259349, NaN, NaN, NaN, 0.04089605, "- N/A -   "
1.52, 42.8149, 0.00262403, NaN, NaN, NaN, 0.04211683, "- N/A -   "
1.54, 43.2867, 0.00265457, NaN, NaN, NaN, 0.0433376, "- N/A -   "
1.56, 43.75851, 0.0026879, NaN, NaN, NaN, 0.0433376, "- N/A -   "
1.58, 44.1124, 0.00271844, NaN, NaN, NaN, 0.0445584, "- N/A -   "
1.6, 44.70209, 0.00275176, NaN, NaN, NaN, 0.0445584, "- N/A -   "
1.62, 45.05593, 0.002785082, NaN, NaN, NaN, 0.0445584, "- N/A -   "
1.64, 45.6457, 0.00282118, NaN, NaN, NaN, 0.0433376, "- N/A -   "
1.66, 46.23541, 0.00285728, NaN, NaN, NaN, 0.04211683, "- N/A -   "
1.68, 46.5893, 0.00289338, NaN, NaN, NaN, 0.04089605, "- N/A -   "
1.7, 47.2969, 0.00293225, NaN, NaN, NaN, 0.0384545, "- N/A -   "
1.72, 47.7687, 0.00297112, NaN, NaN, NaN, 0.0372337, "- N/A -   "
1.74, 48.3585, 0.003007222, NaN, NaN, NaN, 0.0347922, "- N/A -   "
1.76, 48.7123, 0.003040543, NaN, NaN, NaN, 0.0347922, "- N/A -   "
1.78, 49.30204, 0.00307664, NaN, NaN, NaN, 0.0335714, "- N/A -   "
1.8, 49.7738, 0.003112739, NaN, NaN, NaN, 0.0335714, "- N/A -   "
1.82, 50.2456, 0.003143283, NaN, NaN, NaN, 0.0335714, "- N/A -   "
1.84, 50.83536, 0.0031766, NaN, NaN, NaN, 0.0335714, "- N/A -   "
1.86, 51.1892, 0.00320715, NaN, NaN, NaN, 0.0347922, "- N/A -   "
1.88, 51.66099, 0.00323769, NaN, NaN, NaN, 0.03601294, "- N/A -   "
1.9, 52.01483, 0.003271014, NaN, NaN, NaN, 0.0372337, "- N/A -   "
1.92, 52.48662, 0.003301558, NaN, NaN, NaN, 0.0384545, "- N/A -   "
1.94, 52.9584, 0.0033321, NaN, NaN, NaN, 0.0384545, "- N/A -   "
1.96, 53.4302, 0.00336542, NaN, NaN, NaN, 0.0384545, "- N/A -   "
1.98, 54.0199, 0.00340152, NaN, NaN, NaN, 0.0372337, "- N/A -   "
2, 54.4917, 0.0034404, NaN, NaN, NaN, 0.03601294, "- N/A -   "
2.02, 55.1994, 0.00347649, NaN, NaN, NaN, 0.0347922, "- N/A -   "
2.04, 55.55326, 0.00351259, NaN, NaN, NaN, 0.0335714, "- N/A -   "
2.06, 56.02505, 0.00354591, NaN, NaN, NaN, 0.0323506, "- N/A -   "
2.08, 56.4968, 0.00357646, NaN, NaN, NaN, 0.0335714, "- N/A -   "
2.1, 56.9686, 0.003607, NaN, NaN, NaN, 0.0347922, "- N/A -   "
2.12, 57.44042, 0.003637545, NaN, NaN, NaN, 0.03601294, "- N/A -   "
2.14, 57.79426, 0.00366809, NaN, NaN, NaN, 0.0372337, "- N/A -   "
2.16, 58.26605, 0.00369863, NaN, NaN, NaN, 0.0396753, "- N/A -   "
2.18, 58.8558, 0.00373195, NaN, NaN, NaN, 0.0384545, "- N/A -   "
2.2, 59.3276, 0.00376528, NaN, NaN, NaN, 0.0384545, "- N/A -   "
2.22, 59.79937, 0.00379582, NaN, NaN, NaN, 0.0396753, "- N/A -   "
2.24, 60.3891, 0.00383192, NaN, NaN, NaN, 0.0384545, "- N/A -   "
2.26, 60.8609, 0.00386246, NaN, NaN, NaN, 0.0396753, "- N/A -   "
2.28, 61.2147, 0.00389301, NaN, NaN, NaN, 0.04089605, "- N/A -   "
2.3, 61.6865, 0.00392633, NaN, NaN, NaN, 0.04211683, "- N/A -   "
2.32, 62.3942, 0.00396242, NaN, NaN, NaN, 0.0396753, "- N/A -   "
2.34, 62.866, 0.00399852, NaN, NaN, NaN, 0.0384545, "- N/A -   "
2.36, 63.45574, 0.0040374, NaN, NaN, NaN, 0.03601294, "- N/A -   "
2.38, 64.16342, 0.00407349, NaN, NaN, NaN, 0.0347922, "- N/A -   "
2.4, 64.5173, 0.00410959, NaN, NaN, NaN, 0.0335714, "- N/A -   "
2.42, 65.107, 0.00414291, NaN, NaN, NaN, 0.0347922, "- N/A -   "
2.44, 65.5788, 0.004176235, NaN, NaN, NaN, 0.0347922, "- N/A -   "
2.46, 66.16853, 0.004206779, NaN, NaN, NaN, 0.0347922, "- N/A -   "
2.48, 66.64032, 0.0042401, NaN, NaN, NaN, 0.0347922, "- N/A -   "
2.5, 66.99416, 0.00427064, NaN, NaN, NaN, 0.03601294, "- N/A -   "
2.52, 67.5839, 0.004306742, NaN, NaN, NaN, 0.0347922, "- N/A -   "
2.54, 68.05569, 0.004340063, NaN, NaN, NaN, 0.0347922, "- N/A -   "
2.56, 68.6454, 0.004376161, NaN, NaN, NaN, 0.0335714, "- N/A -   "
2.58, 69.23517, 0.00441504, NaN, NaN, NaN, 0.0323506, "- N/A -   "
2.6, 69.707, 0.00444558, NaN, NaN, NaN, 0.0323506, "- N/A -   "
2.62, 70.17874, 0.0044789, NaN, NaN, NaN, 0.0323506, "- N/A -   "
2.64, 70.6505, 0.004512222, NaN, NaN, NaN, 0.0323506, "- N/A -   "
2.66, 71.24027, 0.004545543, NaN, NaN, NaN, 0.0323506, "- N/A -   "
2.68, 71.83001, 0.004576087, NaN, NaN, NaN, 0.0335714, "- N/A -   "
2.7, 72.1838, 0.004609408, NaN, NaN, NaN, 0.0335714, "- N/A -   "
2.72, 72.77359, 0.004639952, NaN, NaN, NaN, 0.0347922, "- N/A -   "
2.74, 73.12743, 0.00466772, NaN, NaN, NaN, 0.0372337, "- N/A -   "
2.76, 73.83511, 0.004703818, NaN, NaN, NaN, 0.03601294, "- N/A -   "
2.78, 74.3069, 0.00473714, NaN, NaN, NaN, 0.03601294, "- N/A -   "
2.8, 74.8966, 0.004776013, NaN, NaN, NaN, 0.0347922, "- N/A -   "
2.82, 75.48638, 0.004809334, NaN, NaN, NaN, 0.0335714, "- N/A -   "
2.84, 75.95817, 0.004839878, NaN, NaN, NaN, 0.0347922, "- N/A -   "
2.86, 76.31202, 0.004870423, NaN, NaN, NaN, 0.03601294, "- N/A -   "
2.88, 76.90175, 0.00490097, NaN, NaN, NaN, 0.0372337, "- N/A -   "
2.9, 77.25559, 0.00493151, NaN, NaN, NaN, 0.0384545, "- N/A -   "
2.92, 77.96328, 0.004964832, NaN, NaN, NaN, 0.0384545, "- N/A -   "
2.94, 78.4351, 0.004995377, NaN, NaN, NaN, 0.0396753, "- N/A -   "
2.96, 78.90686, 0.005025921, NaN, NaN, NaN, 0.04089605, "- N/A -   "
2.98, 79.37865, 0.00505369, NaN, NaN, NaN, 0.0433376, "- N/A -   "
3, 79.85043, 0.005084233, NaN, NaN, NaN, 0.0445584, "- N/A -   "
3.02, 80.44018, 0.005117554, NaN, NaN, NaN, 0.0445584, "- N/A -   "
3.04, 80.912, 0.00515365, NaN, NaN, NaN, 0.0433376, "- N/A -   "
3.06, 81.61965, 0.00518975, NaN, NaN, NaN, 0.04211683, "- N/A -   "
3.08, 82.09144, 0.00522029, NaN, NaN, NaN, 0.0433376, "- N/A -   "
3.1, 82.68118, 0.00525917, NaN, NaN, NaN, 0.04089605, "- N/A -   "
3.12, 83.38886, 0.005295266, NaN, NaN, NaN, 0.0396753, "- N/A -   "
3.14, 83.86065, 0.00533414, NaN, NaN, NaN, 0.0372337, "- N/A -   "
3.16, 84.45039, 0.00537024, NaN, NaN, NaN, 0.03601294, "- N/A -   "
3.18, 85.15807, 0.00540911, NaN, NaN, NaN, 0.0335714, "- N/A -   "
3.2, 85.74781, 0.00544243, NaN, NaN, NaN, 0.0335714, "- N/A -   "
3.22, 86.2196, 0.00547575, NaN, NaN, NaN, 0.0335714, "- N/A -   "
3.24, 86.80934, 0.00550908, NaN, NaN, NaN, 0.0347922, "- N/A -   "
3.26, 87.39908, 0.00553962, NaN, NaN, NaN, 0.0347922, "- N/A -   "
3.28, 87.8709, 0.005572941, NaN, NaN, NaN, 0.0347922, "- N/A -   "
3.3, 88.34265, 0.00560626, NaN, NaN, NaN, 0.0347922, "- N/A -   "
3.32, 88.9324, 0.00563958, NaN, NaN, NaN, 0.0347922, "- N/A -   "
3.34, 89.52213, 0.005672904, NaN, NaN, NaN, 0.0347922, "- N/A -   "
3.36, 90.11186, 0.00571178, NaN, NaN, NaN, 0.0335714, "- N/A -   "
3.38, 90.81956, 0.00575065, NaN, NaN, NaN, 0.0299091, "- N/A -   "
3.4, 91.2913, 0.00578397, NaN, NaN, NaN, 0.0299091, "- N/A -   "
3.42, 91.88108, 0.005820072, NaN, NaN, NaN, 0.0286883, "- N/A -   "
3.44, 92.35287, 0.00584784, NaN, NaN, NaN, 0.03112983, "- N/A -   "
3.46, 92.82466, 0.00588116, NaN, NaN, NaN, 0.03112983, "- N/A -   "
3.48, 93.53234, 0.005914482, NaN, NaN, NaN, 0.03112983, "- N/A -   "
3.5, 94.0041, 0.005945026, NaN, NaN, NaN, 0.0323506, "- N/A -   "
3.52, 94.35797, 0.005972794, NaN, NaN, NaN, 0.0347922, "- N/A -   "
3.54, 94.7118, 0.00600056, NaN, NaN, NaN, 0.0372337, "- N/A -   "
3.56, 95.41951, 0.006031105, NaN, NaN, NaN, 0.0384545, "- N/A -   "
3.58, 95.8913, 0.00605887, NaN, NaN, NaN, 0.04089605, "- N/A -   "
3.6, 96.36309, 0.006089417, NaN, NaN, NaN, 0.04211683, "- N/A -   "
3.62, 96.83487, 0.00611718, NaN, NaN, NaN, 0.04577916, "- N/A -   "
3.64, 97.30666, 0.00615051, NaN, NaN, NaN, 0.04577916, "- N/A -   "
3.66, 97.77845, 0.00618105, NaN, NaN, NaN, 0.0482207, "- N/A -   "
3.68, 98.4861, 0.00621159, NaN, NaN, NaN, 0.0482207, "- N/A -   "
3.7, 98.9579, 0.006247692, NaN, NaN, NaN, 0.04699994, "- N/A -   "
3.72, 99.7836, 0.006289343, NaN, NaN, NaN, 0.0433376, "- N/A -   "
3.74, 100.491, 0.006330994, NaN, NaN, NaN, 0.0396753, "- N/A -   "
3.76, 101.081, 0.00636987, NaN, NaN, NaN, 0.0372337, "- N/A -   "
3.78, 101.671, 0.006405967, NaN, NaN, NaN, 0.03601294, "- N/A -   "
3.8, 102.3784, 0.006444841, NaN, NaN, NaN, 0.0335714, "- N/A -   "
3.82, 102.968, 0.006478162, NaN, NaN, NaN, 0.0335714, "- N/A -   "
3.84, 103.44, 0.00651148, NaN, NaN, NaN, 0.0335714, "- N/A -   "
3.86, 103.912, 0.00653925, NaN, NaN, NaN, 0.03601294, "- N/A -   "
3.88, 104.619, 0.006572572, NaN, NaN, NaN, 0.03601294, "- N/A -   "
3.9, 105.091, 0.006608669, NaN, NaN, NaN, 0.0347922, "- N/A -   "
3.92, 105.799, 0.006647544, NaN, NaN, NaN, 0.0323506, "- N/A -   "
3.94, 106.389, 0.006686419, NaN, NaN, NaN, 0.0299091, "- N/A -   "
3.96, 107.0963, 0.00672252, NaN, NaN, NaN, 0.0286883, "- N/A -   "
3.98, 107.686, 0.006758614, NaN, NaN, NaN, 0.0274675, "- N/A -   "
4, 108.276, 0.006794712, NaN, NaN, NaN, 0.0274675, "- N/A -   "
4.02, 108.748, 0.006825256, NaN, NaN, NaN, 0.0274675, "- N/A -   "
4.04, 109.3373, 0.00685858, NaN, NaN, NaN, 0.0274675, "- N/A -   "
4.06, 109.927, 0.0068919, NaN, NaN, NaN, 0.0274675, "- N/A -   "
4.08, 110.399, 0.006919666, NaN, NaN, NaN, 0.0299091, "- N/A -   "
4.1, 110.871, 0.006947433, NaN, NaN, NaN, 0.0323506, "- N/A -   "
4.12, 111.342, 0.006977977, NaN, NaN, NaN, 0.0335714, "- N/A -   "
4.14, 111.932, 0.007005745, NaN, NaN, NaN, 0.03601294, "- N/A -   "
4.16, 112.404, 0.00703351, NaN, NaN, NaN, 0.0384545, "- N/A -   "
4.18, 112.876, 0.007064057, NaN, NaN, NaN, 0.0396753, "- N/A -   "
4.2, 113.348, 0.007094601, NaN, NaN, NaN, 0.04089605, "- N/A -   "
4.22, 113.819, 0.00712515, NaN, NaN, NaN, 0.04211683, "- N/A -   "
4.24, 114.409, 0.007152913, NaN, NaN, NaN, 0.0445584, "- N/A -   "
4.26, 114.881, 0.00718346, NaN, NaN, NaN, 0.04577916, "- N/A -   "
4.28, 115.471, 0.00721678, NaN, NaN, NaN, 0.04577916, "- N/A -   "
4.3, 116.06, 0.00725565, NaN, NaN, NaN, 0.0445584, "- N/A -   "
4.32, 116.65, 0.007288974, NaN, NaN, NaN, 0.0445584, "- N/A -   "
4.34, 117.24, 0.00731952, NaN, NaN, NaN, 0.0445584, "- N/A -   "
4.36, 117.83, 0.00735006, NaN, NaN, NaN, 0.04577916, "- N/A -   "
4.38, 118.419, 0.00738616, NaN, NaN, NaN, 0.0445584, "- N/A -   "
4.4, 119.009, 0.00741948, NaN, NaN, NaN, 0.0445584, "- N/A -   "
4.42, 119.717, 0.00745558, NaN, NaN, NaN, 0.0433376, "- N/A -   "
4.44, 120.306, 0.00749445, NaN, NaN, NaN, 0.04211683, "- N/A -   "
4.46, 121.014, 0.00753055, NaN, NaN, NaN, 0.0396753, "- N/A -   "
4.48, 121.722, 0.00756943, NaN, NaN, NaN, 0.0372337, "- N/A -   "
4.5, 122.429, 0.0076083, NaN, NaN, NaN, 0.0347922, "- N/A -   "
4.52, 123.137, 0.00764995, NaN, NaN, NaN, 0.03112983, "- N/A -   "
4.54, 123.7269, 0.00768605, NaN, NaN, NaN, 0.0299091, "- N/A -   "
4.56, 124.199, 0.00771937, NaN, NaN, NaN, 0.0299091, "- N/A -   "
4.58, 124.788, 0.00775269, NaN, NaN, NaN, 0.03112983, "- N/A -   "
4.6, 125.378, 0.007783236, NaN, NaN, NaN, 0.03112983, "- N/A -   "
4.62, 125.9679, 0.007816557, NaN, NaN, NaN, 0.03112983, "- N/A -   "
4.64, 126.558, 0.007849878, NaN, NaN, NaN, 0.03112983, "- N/A -   "
4.66, 126.911, 0.007880422, NaN, NaN, NaN, 0.0323506, "- N/A -   "
4.68, 127.501, 0.007910966, NaN, NaN, NaN, 0.0335714, "- N/A -   "
4.7, 128.091, 0.007938734, NaN, NaN, NaN, 0.03601294, "- N/A -   "
4.72, 128.6807, 0.007972055, NaN, NaN, NaN, 0.03601294, "- N/A -   "
4.74, 129.152, 0.008002599, NaN, NaN, NaN, 0.0372337, "- N/A -   "
4.76, 129.86, 0.00803592, NaN, NaN, NaN, 0.0372337, "- N/A -   "
4.78, 130.4499, 0.008066464, NaN, NaN, NaN, 0.0384545, "- N/A -   "
4.8, 131.04, 0.008099785, NaN, NaN, NaN, 0.0384545, "- N/A -   "
4.82, 131.747, 0.008135883, NaN, NaN, NaN, 0.0372337, "- N/A -   "
4.84, 132.337, 0.008169204, NaN, NaN, NaN, 0.0372337, "- N/A -   "
4.86, 132.9268, 0.008202525, NaN, NaN, NaN, 0.0384545, "- N/A -   "
4.88, 133.517, 0.008233069, NaN, NaN, NaN, 0.0384545, "- N/A -   "
4.9, 134.106, 0.008263614, NaN, NaN, NaN, 0.0396753, "- N/A -   "
4.92, 134.578, 0.008294158, NaN, NaN, NaN, 0.04211683, "- N/A -   "
4.94, 135.1678, 0.008324702, NaN, NaN, NaN, 0.04211683, "- N/A -   "
4.96, 135.758, 0.008355246, NaN, NaN, NaN, 0.0433376, "- N/A -   "
4.98, 136.465, 0.008388568, NaN, NaN, NaN, 0.0433376, "- N/A -   "
5, 137.055, 0.008421889, NaN, NaN, NaN, 0.0445584, "- N/A -   "
5.02, 137.6447, 0.008452433, NaN, NaN, NaN, 0.0445584, "- N/A -   "
5.04, 138.352, 0.008485754, NaN, NaN, NaN, 0.0445584, "- N/A -   "
5.06, 139.06, 0.008521851, NaN, NaN, NaN, 0.0433376, "- N/A -   "
5.08, 139.768, 0.008560726, NaN, NaN, NaN, 0.04089605, "- N/A -   "
5.1, 140.475, 0.008599601, NaN, NaN, NaN, 0.0384545, "- N/A -   "
5.12, 141.419, 0.008641252, NaN, NaN, NaN, 0.0347922, "- N/A -   "
5.14, 142.1267, 0.008680127, NaN, NaN, NaN, 0.0323506, "- N/A -   "
5.16, 142.8344, 0.008719001, NaN, NaN, NaN, 0.0299091, "- N/A -   "
5.18, 143.542, 0.008755099, NaN, NaN, NaN, 0.0286883, "- N/A -   "
5.2, 144.132, 0.00878842, NaN, NaN, NaN, 0.0286883, "- N/A -   "
5.22, 144.8395, 0.00881896, NaN, NaN, NaN, 0.0299091, "- N/A -   "
5.24, 145.311, 0.008849508, NaN, NaN, NaN, 0.03112983, "- N/A -   "
5.26, 145.901, 0.00887728, NaN, NaN, NaN, 0.0335714, "- N/A -   "
5.28, 146.491, 0.008910596, NaN, NaN, NaN, 0.0347922, "- N/A -   "
5.3, 147.0805, 0.008941141, NaN, NaN, NaN, 0.0347922, "- N/A -   "
5.32, 147.67, 0.008974463, NaN, NaN, NaN, 0.0347922, "- N/A -   "
5.34, 148.378, 0.009007784, NaN, NaN, NaN, 0.0347922, "- N/A -   "
5.36, 148.968, 0.0090411, NaN, NaN, NaN, 0.0347922, "- N/A -   "
5.38, 149.675, 0.009074425, NaN, NaN, NaN, 0.0347922, "- N/A -   "
5.4, 150.383, 0.009107746, NaN, NaN, NaN, 0.0347922, "- N/A -   "
5.42, 150.973, 0.009143844, NaN, NaN, NaN, 0.0335714, "- N/A -   "
5.44, 151.5625, 0.009179941, NaN, NaN, NaN, 0.0335714, "- N/A -   "
5.46, 152.27, 0.009213263, NaN, NaN, NaN, 0.0323506, "- N/A -   "
5.48, 153.096, 0.009243807, NaN, NaN, NaN, 0.0335714, "- N/A -   "
5.5, 153.568, 0.009274351, NaN, NaN, NaN, 0.0347922, "- N/A -   "
5.52, 154.0394, 0.009302119, NaN, NaN, NaN, 0.0372337, "- N/A -   "
5.54, 154.629, 0.009332663, NaN, NaN, NaN, 0.0384545, "- N/A -   "
5.56, 155.219, 0.009365984, NaN, NaN, NaN, 0.0384545, "- N/A -   "
5.58, 155.809, 0.009393752, NaN, NaN, NaN, 0.04089605, "- N/A -   "
5.6, 156.2804, 0.009421519, NaN, NaN, NaN, 0.0433376, "- N/A -   "
5.62, 156.87, 0.00945484, NaN, NaN, NaN, 0.0433376, "- N/A -   "
5.64, 157.696, 0.009488161, NaN, NaN, NaN, 0.0433376, "- N/A -   "
5.66, 158.403, 0.009527036, NaN, NaN, NaN, 0.04089605, "- N/A -   "
5.68, 158.9932, 0.009560357, NaN, NaN, NaN, 0.04089605, "- N/A -   "
5.7, 159.583, 0.009596455, NaN, NaN, NaN, 0.0396753, "- N/A -   "
5.72, 160.2906, 0.009626999, NaN, NaN, NaN, 0.04089605, "- N/A -   "
5.74, 160.88, 0.009657542, NaN, NaN, NaN, 0.04211683, "- N/A -   "
5.76, 161.4701, 0.009696417, NaN, NaN, NaN, 0.04089605, "- N/A -   "
5.78, 162.296, 0.009732515, NaN, NaN, NaN, 0.0384545, "- N/A -   "
5.8, 163.2393, 0.009771389, NaN, NaN, NaN, 0.03601294, "- N/A -   "
5.82, 163.829, 0.009807487, NaN, NaN, NaN, 0.0347922, "- N/A -   "
5.84, 164.419, 0.009838031, NaN, NaN, NaN, 0.03601294, "- N/A -   "
5.86, 165.009, 0.009871352, NaN, NaN, NaN, 0.03601294, "- N/A -   "
5.88, 165.7162, 0.00990745, NaN, NaN, NaN, 0.0347922, "- N/A -   "
5.9, 166.306, 0.00994077, NaN, NaN, NaN, 0.0347922, "- N/A -   "
5.92, 167.132, 0.009974092, NaN, NaN, NaN, 0.0347922, "- N/A -   "
5.94, 167.7213, 0.0100074, NaN, NaN, NaN, 0.0347922, "- N/A -   "
5.96, 168.311, 0.0100407, NaN, NaN, NaN, 0.0347922, "- N/A -   "
5.98, 169.137, 0.0100768, NaN, NaN, NaN, 0.0335714, "- N/A -   "
6, 169.726, 0.01011293, NaN, NaN, NaN, 0.0323506, "- N/A -   "
6.02, 170.316, 0.0101463, NaN, NaN, NaN, 0.0335714, "- N/A -   "
6.04, 171.024, 0.010174, NaN, NaN, NaN, 0.0347922, "- N/A -   "
6.06, 171.614, 0.0102046, NaN, NaN, NaN, 0.03601294, "- N/A -   "
6.08, 172.085, 0.0102351, NaN, NaN, NaN, 0.0372337, "- N/A -   "
6.1, 172.793, 0.0102684, NaN, NaN, NaN, 0.0372337, "- N/A -   "
6.12, 173.383, 0.0103017, NaN, NaN, NaN, 0.0372337, "- N/A -   "
6.14, 173.973, 0.01033507, NaN, NaN, NaN, 0.0372337, "- N/A -   "
6.16, 174.562, 0.0103712, NaN, NaN, NaN, 0.03601294, "- N/A -   "
6.18, 175.388, 0.0104045, NaN, NaN, NaN, 0.03601294, "- N/A -   "
6.2, 176.096, 0.0104378, NaN, NaN, NaN, 0.03601294, "- N/A -   "
6.22, 176.6853, 0.0104767, NaN, NaN, NaN, 0.0335714, "- N/A -   "
6.24, 177.393, 0.01051, NaN, NaN, NaN, 0.0335714, "- N/A -   "
6.26, 177.983, 0.01054055, NaN, NaN, NaN, 0.0347922, "- N/A -   "
6.28, 178.572, 0.0105711, NaN, NaN, NaN, 0.03601294, "- N/A -   "
6.3, 179.162, 0.0106016, NaN, NaN, NaN, 0.0372337, "- N/A -   "
6.32, 179.752, 0.0106322, NaN, NaN, NaN, 0.0384545, "- N/A -   "
6.34, 180.46, 0.0106655, NaN, NaN, NaN, 0.0384545, "- N/A -   "
6.36, 181.049, 0.010696, NaN, NaN, NaN, 0.0396753, "- N/A -   "
6.38, 181.757, 0.0107266, NaN, NaN, NaN, 0.04089605, "- N/A -   "
6.4, 182.3468, 0.0107599, NaN, NaN, NaN, 0.04089605, "- N/A -   "
6.42, 182.937, 0.0107905, NaN, NaN, NaN, 0.04211683, "- N/A -   "
6.44, 183.526, 0.010821, NaN, NaN, NaN, 0.0433376, "- N/A -   "
6.46, 184.234, 0.0108543, NaN, NaN, NaN, 0.0433376, "- N/A -   "
6.48, 184.942, 0.0108932, NaN, NaN, NaN, 0.04089605, "- N/A -   "
6.5, 185.885, 0.0109321, NaN, NaN, NaN, 0.0384545, "- N/A -   "
6.52, 186.593, 0.0109709, NaN, NaN, NaN, 0.03601294, "- N/A -   "
6.54, 187.419, 0.0110098, NaN, NaN, NaN, 0.0335714, "- N/A -   "
6.56, 188.244, 0.0110487, NaN, NaN, NaN, 0.03112983, "- N/A -   "
6.58, 188.834, 0.0110848, NaN, NaN, NaN, 0.0299091, "- N/A -   "
6.6, 189.5416, 0.0111181, NaN, NaN, NaN, 0.0299091, "- N/A -   "
6.62, 190.131, 0.0111487, NaN, NaN, NaN, 0.03112983, "- N/A -   "
6.64, 190.603, 0.0111792, NaN, NaN, NaN, 0.0323506, "- N/A -   "
6.66, 191.193, 0.0112097, NaN, NaN, NaN, 0.0335714, "- N/A -   "
6.68, 191.7826, 0.0112403, NaN, NaN, NaN, 0.0347922, "- N/A -   "
6.7, 192.49, 0.0112736, NaN, NaN, NaN, 0.0347922, "- N/A -   "
6.72, 193.198, 0.0113097, NaN, NaN, NaN, 0.0335714, "- N/A -   "
6.74, 193.906, 0.0113458, NaN, NaN, NaN, 0.0323506, "- N/A -   "
6.76, 194.731, 0.0113847, NaN, NaN, NaN, 0.0299091, "- N/A -   "
6.78, 195.5569, 0.0114236, NaN, NaN, NaN, 0.0274675, "- N/A -   "
6.8, 196.265, 0.0114597, NaN, NaN, NaN, 0.0262467, "- N/A -   "
6.82, 196.854, 0.011493, NaN, NaN, NaN, 0.0262467, "- N/A -   "
6.84, 197.562, 0.01152352, NaN, NaN, NaN, 0.0274675, "- N/A -   "
6.86, 198.034, 0.0115541, NaN, NaN, NaN, 0.0286883, "- N/A -   "
6.88, 198.624, 0.0115818, NaN, NaN, NaN, 0.03112983, "- N/A -   "
6.9, 199.213, 0.0116124, NaN, NaN, NaN, 0.0323506, "- N/A -   "
6.92, 199.685, 0.0116374, NaN, NaN, NaN, 0.03601294, "- N/A -   "
6.94, 200.275, 0.0116651, NaN, NaN, NaN, 0.0384545, "- N/A -   "
6.96, 200.629, 0.0116929, NaN, NaN, NaN, 0.04089605, "- N/A -   "
6.98, 201.336, 0.0117234, NaN, NaN, NaN, 0.04211683, "- N/A -   "
7, 201.926, 0.0117484, NaN, NaN, NaN, 0.04577916, "- N/A -   "
7.02, 202.398, 0.011779, NaN, NaN, NaN, 0.04699994, "- N/A -   "
7.04, 203.106, 0.0118095, NaN, NaN, NaN, 0.0482207, "- N/A -   "
7.06, 203.813, 0.0118428, NaN, NaN, NaN, 0.0482207, "- N/A -   "
7.08, 204.403, 0.0118734, NaN, NaN, NaN, 0.0494415, "- N/A -   "
7.1, 205.111, 0.0119095, NaN, NaN, NaN, 0.0482207, "- N/A -   "
7.12, 205.936, 0.0119484, NaN, NaN, NaN, 0.04577916, "- N/A -   "
7.14, 206.644, 0.01198446, NaN, NaN, NaN, 0.0445584, "- N/A -   "
7.16, 207.4696, 0.0120206, NaN, NaN, NaN, 0.0433376, "- N/A -   "
7.18, 208.177, 0.01206221, NaN, NaN, NaN, 0.04089605, "- N/A -   "
7.2, 209.239, 0.0120983, NaN, NaN, NaN, 0.0384545, "- N/A -   "
7.22, 209.829, 0.0121372, NaN, NaN, NaN, 0.03601294, "- N/A -   "
7.24, 210.536, 0.0121705, NaN, NaN, NaN, 0.03601294, "- N/A -   "
7.26, 211.244, 0.0122038, NaN, NaN, NaN, 0.03601294, "- N/A -   "
7.28, 211.834, 0.0122399, NaN, NaN, NaN, 0.0347922, "- N/A -   "
7.3, 212.541, 0.01227602, NaN, NaN, NaN, 0.0335714, "- N/A -   "
7.32, 213.249, 0.0123121, NaN, NaN, NaN, 0.0323506, "- N/A -   "
7.34, 213.957, 0.0123482, NaN, NaN, NaN, 0.03112983, "- N/A -   "
7.36, 214.782, 0.0123843, NaN, NaN, NaN, 0.0299091, "- N/A -   "
7.38, 215.608, 0.01242041, NaN, NaN, NaN, 0.0286883, "- N/A -   "
7.4, 216.316, 0.0124565, NaN, NaN, NaN, 0.0286883, "- N/A -   "
7.42, 217.023, 0.0124871, NaN, NaN, NaN, 0.0286883, "- N/A -   "
7.44, 217.613, 0.0125204, NaN, NaN, NaN, 0.0286883, "- N/A -   "
7.46, 218.203, 0.0125537, NaN, NaN, NaN, 0.0286883, "- N/A -   "
7.48, 218.9105, 0.0125842, NaN, NaN, NaN, 0.0299091, "- N/A -   "
7.5, 219.5, 0.0126148, NaN, NaN, NaN, 0.03112983, "- N/A -   "
7.52, 220.09, 0.0126453, NaN, NaN, NaN, 0.0323506, "- N/A -   "
7.54, 220.68, 0.0126731, NaN, NaN, NaN, 0.0347922, "- N/A -   "
7.56, 221.387, 0.0127036, NaN, NaN, NaN, 0.03601294, "- N/A -   "
7.58, 221.977, 0.01273696, NaN, NaN, NaN, 0.0372337, "- N/A -   "
7.6, 222.567, 0.0127703, NaN, NaN, NaN, 0.0372337, "- N/A -   "
7.62, 223.275, 0.012798, NaN, NaN, NaN, 0.0384545, "- N/A -   "
7.64, 223.746, 0.0128286, NaN, NaN, NaN, 0.0396753, "- N/A -   "
7.66, 224.454, 0.0128619, NaN, NaN, NaN, 0.0396753, "- N/A -   "
7.68, 225.162, 0.0128952, NaN, NaN, NaN, 0.0396753, "- N/A -   "
7.7, 225.8694, 0.0129286, NaN, NaN, NaN, 0.0396753, "- N/A -   "
7.72, 226.577, 0.0129619, NaN, NaN, NaN, 0.0396753, "- N/A -   "
7.74, 227.167, 0.0129924, NaN, NaN, NaN, 0.04089605, "- N/A -   "
7.76, 227.757, 0.013023, NaN, NaN, NaN, 0.04211683, "- N/A -   "
7.78, 228.464, 0.0130563, NaN, NaN, NaN, 0.04211683, "- N/A -   "
7.8, 229.172, 0.0130868, NaN, NaN, NaN, 0.0433376, "- N/A -   "
7.82, 229.88, 0.0131229, NaN, NaN, NaN, 0.04211683, "- N/A -   "
7.84, 230.587, 0.013159, NaN, NaN, NaN, 0.04089605, "- N/A -   "
7.86, 231.295, 0.0131923, NaN, NaN, NaN, 0.04089605, "- N/A -   "
7.88, 232.121, 0.0132312, NaN, NaN, NaN, 0.0384545, "- N/A -   "
7.9, 233.0642, 0.0132701, NaN, NaN, NaN, 0.03601294, "- N/A -   "
7.92, 233.89, 0.0133117, NaN, NaN, NaN, 0.0323506, "- N/A -   "
7.94, 234.833, 0.0133506, NaN, NaN, NaN, 0.0299091, "- N/A -   "
7.96, 235.659, 0.0133867, NaN, NaN, NaN, 0.0286883, "- N/A -   "
7.98, 236.131, 0.01342, NaN, NaN, NaN, 0.0286883, "- N/A -   "
8, 236.839, 0.0134506, NaN, NaN, NaN, 0.0299091, "- N/A -   "
8.02, 237.5462, 0.0134839, NaN, NaN, NaN, 0.0299091, "- N/A -   "
8.04, 238.136, 0.0135172, NaN, NaN, NaN, 0.0299091, "- N/A -   "
8.06, 238.962, 0.0135505, NaN, NaN, NaN, 0.0299091, "- N/A -   "
8.08, 239.669, 0.0135811, NaN, NaN, NaN, 0.03112983, "- N/A -   "
8.1, 240.259, 0.0136144, NaN, NaN, NaN, 0.03112983, "- N/A -   "
8.12, 240.967, 0.013645, NaN, NaN, NaN, 0.0323506, "- N/A -   "
8.14, 241.556, 0.0136783, NaN, NaN, NaN, 0.0323506, "- N/A -   "
8.16, 242.2641, 0.0137144, NaN, NaN, NaN, 0.0335714, "- N/A -   "
8.18, 243.089, 0.0137477, NaN, NaN, NaN, 0.0323506, "- N/A -   "
8.2, 243.7961, 0.013781, NaN, NaN, NaN, 0.0323506, "- N/A -   "
8.22, 244.503, 0.01381434, NaN, NaN, NaN, 0.0323506, "- N/A -   "
8.24, 245.092, 0.0138449, NaN, NaN, NaN, 0.0335714, "- N/A -   "
8.26, 245.799, 0.0138754, NaN, NaN, NaN, 0.0347922, "- N/A -   "
8.28, 246.27, 0.013906, NaN, NaN, NaN, 0.03601294, "- N/A -   "
8.29, 246.506, 0.0139171, NaN, NaN, NaN, 0.0384545, "- N/A -   "
8.3, 246.86, 0.013931, NaN, NaN, NaN, 0.0396753, "- N/A -   "
8.31, 247.095, 0.0139448, NaN, NaN, NaN, 0.04089605, "- N/A -   "
8.34, 247.92, 0.0139893, NaN, NaN, NaN, 0.0433376, "- N/A -   "
8.37, 248.863, 0.0140365, NaN, NaN, NaN, 0.0445584, "- N/A -   "
8.4, 249.805, 0.0140837, NaN, NaN, NaN, 0.04577916, "- N/A -   "
8.43, 250.748, 0.0141309, NaN, NaN, NaN, 0.0482207, "- N/A -   "
8.46, 251.926, 0.0141836, NaN, NaN, NaN, 0.04577916, "- N/A -   "
8.49, 253.222, 0.0142392, NaN, NaN, NaN, 0.0433376, "- N/A -   "
8.52, 254.518, 0.0142975, NaN, NaN, NaN, 0.0396753, "- N/A -   "
8.55, 255.579, 0.014353, NaN, NaN, NaN, 0.0372337, "- N/A -   "
8.58, 256.757, 0.0144086, NaN, NaN, NaN, 0.0347922, "- N/A -   "
8.61, 257.9352, 0.0144641, NaN, NaN, NaN, 0.0323506, "- N/A -   "
8.64, 258.878, 0.0145141, NaN, NaN, NaN, 0.0323506, "- N/A -   "
8.67, 259.82, 0.0145613, NaN, NaN, NaN, 0.0347922, "- N/A -   "
8.7, 260.6452, 0.0146029, NaN, NaN, NaN, 0.0372337, "- N/A -   "
8.73, 261.706, 0.0146529, NaN, NaN, NaN, 0.0372337, "- N/A -   "
8.76, 262.8839, 0.0147057, NaN, NaN, NaN, 0.03601294, "- N/A -   "
8.79, 263.944, 0.0147584, NaN, NaN, NaN, 0.0347922, "- N/A -   "
8.82, 265.0048, 0.0148112, NaN, NaN, NaN, 0.0335714, "- N/A -   "
8.85, 266.065, 0.0148667, NaN, NaN, NaN, 0.03112983, "- N/A -   "
8.88, 267.0078, 0.0149112, NaN, NaN, NaN, 0.0335714, "- N/A -   "
8.91, 267.95, 0.0149584, NaN, NaN, NaN, 0.0347922, "- N/A -   "
8.94, 268.893, 0.0150083, NaN, NaN, NaN, 0.0347922, "- N/A -   "
8.97, 269.7178, 0.0150528, NaN, NaN, NaN, 0.0372337, "- N/A -   "
9, 270.5426, 0.0150944, NaN, NaN, NaN, 0.04089605, "- N/A -   "
9.03, 271.485, 0.0151416, NaN, NaN, NaN, 0.04211683, "- N/A -   "
9.06, 272.546, 0.01519161, NaN, NaN, NaN, 0.04211683, "- N/A -   "
9.09, 273.7239, 0.0152444, NaN, NaN, NaN, 0.04089605, "- N/A -   "
9.12, 274.549, 0.0152943, NaN, NaN, NaN, 0.04089605, "- N/A -   "
9.15, 275.727, 0.0153499, NaN, NaN, NaN, 0.0384545, "- N/A -   "
9.18, 276.787, 0.0154026, NaN, NaN, NaN, 0.0372337, "- N/A -   "
9.21, 277.8478, 0.0154554, NaN, NaN, NaN, 0.03601294, "- N/A -   "
9.24, 278.6726, 0.0154998, NaN, NaN, NaN, 0.0384545, "- N/A -   "
9.27, 279.733, 0.0155498, NaN, NaN, NaN, 0.0384545, "- N/A -   "
9.3, 280.7935, 0.0156026, NaN, NaN, NaN, 0.0372337, "- N/A -   "
9.33, 281.736, 0.01565255, NaN, NaN, NaN, 0.0384545, "- N/A -   "
9.36, 282.7965, 0.0157053, NaN, NaN, NaN, 0.03601294, "- N/A -   "
9.39, 283.9748, 0.0157664, NaN, NaN, NaN, 0.0323506, "- N/A -   "
9.42, 285.035, 0.0158164, NaN, NaN, NaN, 0.03112983, "- N/A -   "
9.45, 285.978, 0.0158636, NaN, NaN, NaN, 0.0323506, "- N/A -   "
9.48, 287.038, 0.01591634, NaN, NaN, NaN, 0.0323506, "- N/A -   "
9.51, 287.981, 0.0159635, NaN, NaN, NaN, 0.0323506, "- N/A -   "
9.54, 289.041, 0.0160135, NaN, NaN, NaN, 0.0323506, "- N/A -   "
9.57, 289.984, 0.0160607, NaN, NaN, NaN, 0.0335714, "- N/A -   "
9.6, 290.927, 0.01611349, NaN, NaN, NaN, 0.0323506, "- N/A -   "
9.63, 291.987, 0.0161635, NaN, NaN, NaN, 0.0323506, "- N/A -   "
9.66, 292.812, 0.0162079, NaN, NaN, NaN, 0.0347922, "- N/A -   "
9.69, 293.637, 0.0162523, NaN, NaN, NaN, 0.0372337, "- N/A -   "
9.72, 294.4613, 0.0162968, NaN, NaN, NaN, 0.0396753, "- N/A -   "
9.75, 295.404, 0.0163412, NaN, NaN, NaN, 0.04211683, "- N/A -   "
9.78, 296.347, 0.0163884, NaN, NaN, NaN, 0.0433376, "- N/A -   "
9.81, 297.1713, 0.0164356, NaN, NaN, NaN, 0.0445584, "- N/A -   "
9.84, 298.232, 0.0164828, NaN, NaN, NaN, 0.04577916, "- N/A -   "
9.87, 299.292, 0.01653278, NaN, NaN, NaN, 0.04577916, "- N/A -   "
9.9, 300.235, 0.0165855, NaN, NaN, NaN, 0.0445584, "- N/A -   "
9.93, 301.413, 0.0166411, NaN, NaN, NaN, 0.04211683, "- N/A -   "
9.96, 302.591, 0.0166994, NaN, NaN, NaN, 0.0396753, "- N/A -   "
9.99, 303.77, 0.0167549, NaN, NaN, NaN, 0.03601294, "- N/A -   "
10.02, 304.7122, 0.01680768, NaN, NaN, NaN, 0.0347922, "- N/A -   "
10.05, 305.7726, 0.0168577, NaN, NaN, NaN, 0.03601294, "- N/A -   "
10.08, 306.833, 0.0169104, NaN, NaN, NaN, 0.0335714, "- N/A -   "
10.11, 307.893, 0.0169604, NaN, NaN, NaN, 0.0335714, "- N/A -   "
10.14, 308.8361, 0.0170104, NaN, NaN, NaN, 0.0335714, "- N/A -   "
10.17, 310.014, 0.0170687, NaN, NaN, NaN, 0.0299091, "- N/A -   "
10.2, 311.0748, 0.0171215, NaN, NaN, NaN, 0.0286883, "- N/A -   "
10.23, 312.135, 0.0171714, NaN, NaN, NaN, 0.0286883, "- N/A -   "
10.26, 312.96, 0.0172159, NaN, NaN, NaN, 0.03112983, "- N/A -   "
10.29, 314.02, 0.0172658, NaN, NaN, NaN, 0.0323506, "- N/A -   "
10.32, 314.7274, 0.0173075, NaN, NaN, NaN, 0.0347922, "- N/A -   "
10.35, 315.788, 0.0173519, NaN, NaN, NaN, 0.0372337, "- N/A -   "
10.38, 316.495, 0.01739635, NaN, NaN, NaN, 0.0396753, "- N/A -   "
10.41, 317.32, 0.0174408, NaN, NaN, NaN, 0.04211683, "- N/A -   "
10.44, 318.262, 0.0174852, NaN, NaN, NaN, 0.04577916, "- N/A -   "
10.47, 319.205, 0.0175296, NaN, NaN, NaN, 0.04699994, "- N/A -   "
10.5, 320.1474, 0.0175796, NaN, NaN, NaN, 0.04699994, "- N/A -   "
10.53, 321.326, 0.0176324, NaN, NaN, NaN, 0.04577916, "- N/A -   "
10.56, 322.622, 0.0176935, NaN, NaN, NaN, 0.04089605, "- N/A -   "
10.59, 323.8, 0.0177518, NaN, NaN, NaN, 0.0372337, "- N/A -   "
10.62, 324.86, 0.0178045, NaN, NaN, NaN, 0.03601294, "- N/A -   "
10.65, 325.921, 0.01785729, NaN, NaN, NaN, 0.0347922, "- N/A -   "
10.68, 326.9813, 0.0179073, NaN, NaN, NaN, 0.0347922, "- N/A -   "
10.71, 328.042, 0.01796003, NaN, NaN, NaN, 0.0335714, "- N/A -   "
10.74, 329.102, 0.0180183, NaN, NaN, NaN, 0.0299091, "- N/A -   "
10.77, 330.398, 0.0180739, NaN, NaN, NaN, 0.0274675, "- N/A -   "
10.8, 331.341, 0.01812386, NaN, NaN, NaN, 0.0274675, "- N/A -   "
10.83, 332.4013, 0.01817384, NaN, NaN, NaN, 0.0274675, "- N/A -   "
10.86, 333.226, 0.0182183, NaN, NaN, NaN, 0.0299091, "- N/A -   "
10.89, 334.2865, 0.01826825, NaN, NaN, NaN, 0.0299091, "- N/A -   "
10.92, 335.229, 0.0183182, NaN, NaN, NaN, 0.03112983, "- N/A -   "
10.95, 336.172, 0.01836266, NaN, NaN, NaN, 0.0323506, "- N/A -   "
10.98, 336.997, 0.01840431, NaN, NaN, NaN, 0.03601294, "- N/A -   "
11.01, 337.939, 0.018446, NaN, NaN, NaN, 0.0396753, "- N/A -   "
11.04, 338.764, 0.01849039, NaN, NaN, NaN, 0.04211683, "- N/A -   "
11.07, 339.824, 0.0185376, NaN, NaN, NaN, 0.0433376, "- N/A -   "
11.1, 340.767, 0.0185876, NaN, NaN, NaN, 0.0433376, "- N/A -   "
11.13, 341.945, 0.0186431, NaN, NaN, NaN, 0.04211683, "- N/A -   "
11.16, 342.77, 0.01868754, NaN, NaN, NaN, 0.0433376, "- N/A -   "
11.19, 343.83, 0.0187347, NaN, NaN, NaN, 0.0445584, "- N/A -   "
11.22, 345.009, 0.0187875, NaN, NaN, NaN, 0.0433376, "- N/A -   "
11.25, 346.069, 0.018843, NaN, NaN, NaN, 0.04089605, "- N/A -   "
11.28, 347.247, 0.0188986, NaN, NaN, NaN, 0.0396753, "- N/A -   "
11.31, 348.426, 0.0189541, NaN, NaN, NaN, 0.03601294, "- N/A -   "
11.34, 349.722, 0.0190152, NaN, NaN, NaN, 0.03112983, "- N/A -   "
11.37, 350.7822, 0.019068, NaN, NaN, NaN, 0.0299091, "- N/A -   "
11.4, 351.96, 0.0191207, NaN, NaN, NaN, 0.0286883, "- N/A -   "
11.43, 352.903, 0.0191707, NaN, NaN, NaN, 0.0286883, "- N/A -   "
11.46, 353.963, 0.0192179, NaN, NaN, NaN, 0.0299091, "- N/A -   "
11.49, 354.9061, 0.0192651, NaN, NaN, NaN, 0.0323506, "- N/A -   "
11.52, 355.8487, 0.0193095, NaN, NaN, NaN, 0.0335714, "- N/A -   "
11.55, 356.909, 0.0193595, NaN, NaN, NaN, 0.0335714, "- N/A -   "
11.58, 357.852, 0.01940672, NaN, NaN, NaN, 0.0347922, "- N/A -   "
11.61, 358.912, 0.0194511, NaN, NaN, NaN, 0.0372337, "- N/A -   "
11.64, 359.9726, 0.0195039, NaN, NaN, NaN, 0.03601294, "- N/A -   "
11.67, 360.915, 0.0195483, NaN, NaN, NaN, 0.0384545, "- N/A -   "
11.7, 361.858, 0.0195955, NaN, NaN, NaN, 0.0396753, "- N/A -   "
11.73, 362.8, 0.0196427, NaN, NaN, NaN, 0.04089605, "- N/A -   "
11.76, 363.743, 0.0196899, NaN, NaN, NaN, 0.04211683, "- N/A -   "
11.79, 364.9213, 0.0197399, NaN, NaN, NaN, 0.04211683, "- N/A -   "
11.82, 365.864, 0.0197871, NaN, NaN, NaN, 0.0433376, "- N/A -   "
11.85, 366.924, 0.0198371, NaN, NaN, NaN, 0.0433376, "- N/A -   "
11.88, 368.103, 0.0198871, NaN, NaN, NaN, 0.0433376, "- N/A -   "
11.91, 369.281, 0.0199454, NaN, NaN, NaN, 0.0396753, "- N/A -   "
11.94, 370.695, 0.0200093, NaN, NaN, NaN, 0.0335714, "- N/A -   "
11.97, 371.873, 0.0200648, NaN, NaN, NaN, 0.0323506, "- N/A -   "
12, 372.816, 0.020112, NaN, NaN, NaN, 0.0323506, "- N/A -   "
12.03, 373.8761, 0.0201648, NaN, NaN, NaN, 0.03112983, "- N/A -   "
12.06, 374.937, 0.0202148, NaN, NaN, NaN, 0.03112983, "- N/A -   "
12.09, 375.997, 0.020262, NaN, NaN, NaN, 0.0323506, "- N/A -   "
12.12, 376.94, 0.0203092, NaN, NaN, NaN, 0.0335714, "- N/A -   "
12.15, 378.0, 0.0203591, NaN, NaN, NaN, 0.0335714, "- N/A -   "
12.18, 379.06, 0.0204091, NaN, NaN, NaN, 0.0347922, "- N/A -   "
12.21, 380.003, 0.0204591, NaN, NaN, NaN, 0.0335714, "- N/A -   "
12.24, 381.299, 0.0205119, NaN, NaN, NaN, 0.0323506, "- N/A -   "
12.27, 382.4774, 0.0205646, NaN, NaN, NaN, 0.03112983, "- N/A -   "
12.3, 383.42, 0.0206118, NaN, NaN, NaN, 0.0323506, "- N/A -   "
12.33, 384.245, 0.0206563, NaN, NaN, NaN, 0.0347922, "- N/A -   "
12.36, 385.3052, 0.0207007, NaN, NaN, NaN, 0.0372337, "- N/A -   "
12.39, 386.366, 0.0207479, NaN, NaN, NaN, 0.0384545, "- N/A -   "
12.42, 387.19, 0.0207923, NaN, NaN, NaN, 0.04089605, "- N/A -   "
12.45, 388.2509, 0.0208423, NaN, NaN, NaN, 0.04089605, "- N/A -   "
12.48, 389.547, 0.0208951, NaN, NaN, NaN, 0.0396753, "- N/A -   "
12.51, 390.6074, 0.0209478, NaN, NaN, NaN, 0.0384545, "- N/A -   "
12.54, 391.55, 0.02099502, NaN, NaN, NaN, 0.0396753, "- N/A -   "
12.57, 392.61, 0.021045, NaN, NaN, NaN, 0.0396753, "- N/A -   "
12.6, 393.7887, 0.02109776, NaN, NaN, NaN, 0.0384545, "- N/A -   "
12.63, 394.967, 0.0211477, NaN, NaN, NaN, 0.0384545, "- N/A -   "
12.66, 396.027, 0.0212005, NaN, NaN, NaN, 0.0372337, "- N/A -   "
12.69, 397.206, 0.02125048, NaN, NaN, NaN, 0.0384545, "- N/A -   "
12.72, 398.1483, 0.0213005, NaN, NaN, NaN, 0.0384545, "- N/A -   "
12.75, 399.3265, 0.0213532, NaN, NaN, NaN, 0.0372337, "- N/A -   "
12.78, 400.623, 0.0214088, NaN, NaN, NaN, 0.0347922, "- N/A -   "
12.81, 401.683, 0.0214615, NaN, NaN, NaN, 0.0335714, "- N/A -   "
12.84, 402.743, 0.0215143, NaN, NaN, NaN, 0.0335714, "- N/A -   "
12.87, 403.804, 0.0215587, NaN, NaN, NaN, 0.0347922, "- N/A -   "
12.9, 404.747, 0.0216059, NaN, NaN, NaN, 0.03601294, "- N/A -   "
12.93, 405.807, 0.0216559, NaN, NaN, NaN, 0.03601294, "- N/A -   "
12.96, 406.985, 0.0217086, NaN, NaN, NaN, 0.03601294, "- N/A -   "
12.99, 408.046, 0.0217586, NaN, NaN, NaN, 0.0347922, "- N/A -   "
13.02, 409.2239, 0.02180861, NaN, NaN, NaN, 0.0347922, "- N/A -   "
13.05, 410.167, 0.0218558, NaN, NaN, NaN, 0.03601294, "- N/A -   "
13.08, 411.109, 0.021903, NaN, NaN, NaN, 0.0372337, "- N/A -   "
13.11, 412.287, 0.0219502, NaN, NaN, NaN, 0.0384545, "- N/A -   "
[...]
31.83, 1188.3, 0.05315536, NaN, NaN, NaN, 0.03601294, "- N/A -   "
31.85, 1189.25, 0.0531915, NaN, NaN, NaN, 0.0347922, "- N/A -   "
31.87, 1190.21, 0.0532276, NaN, NaN, NaN, 0.0335714, "- N/A -   "
31.89, 1191.04, 0.0532637, NaN, NaN, NaN, 0.0323506, "- N/A -   "
31.91, 1191.88, 0.0532942, NaN, NaN, NaN, 0.0335714, "- N/A -   "
31.93, 1192.71, 0.0533275, NaN, NaN, NaN, 0.0335714, "- N/A -   "
31.95, 1193.67, 0.0533581, NaN, NaN, NaN, 0.0347922, "- N/A -   "
31.97, 1194.263, 0.0533886, NaN, NaN, NaN, 0.03601294, "- N/A -   "
31.99, 1195.1, 0.05342193, NaN, NaN, NaN, 0.0372337, "- N/A -   "
32.01, 1196.05, 0.0534525, NaN, NaN, NaN, 0.0372337, "- N/A -   "
32.03, 1197.01, 0.0534858, NaN, NaN, NaN, 0.0372337, "- N/A -   "
32.05, 1197.96, 0.05351912, NaN, NaN, NaN, 0.0372337, "- N/A -   "
32.07, 1198.79, 0.0535552, NaN, NaN, NaN, 0.03601294, "- N/A -   "
32.09, 1199.63, 0.0535885, NaN, NaN, NaN, 0.03601294, "- N/A -   "
32.11, 1200.58, 0.0536219, NaN, NaN, NaN, 0.03601294, "- N/A -   "
32.13, 1201.54, 0.053658, NaN, NaN, NaN, 0.03601294, "- N/A -   "
32.15, 1202.49, 0.0536913, NaN, NaN, NaN, 0.0347922, "- N/A -   "
32.17, 1203.326, 0.0537218, NaN, NaN, NaN, 0.03601294, "- N/A -   "
32.19, 1204.04, 0.05375236, NaN, NaN, NaN, 0.0372337, "- N/A -   "
32.21, 1204.638, 0.0537774, NaN, NaN, NaN, 0.04089605, "- N/A -   "
32.23, 1205.47, 0.0538051, NaN, NaN, NaN, 0.0433376, "- N/A -   "
32.25, 1206.31, 0.0538384, NaN, NaN, NaN, 0.0433376, "- N/A -   "
32.27, 1207.14, 0.053869, NaN, NaN, NaN, 0.0445584, "- N/A -   "
32.29, 1207.86, 0.05389953, NaN, NaN, NaN, 0.04577916, "- N/A -   "
32.31, 1208.81, 0.0539301, NaN, NaN, NaN, 0.04699994, "- N/A -   "
32.33, 1209.77, 0.05396617, NaN, NaN, NaN, 0.04577916, "- N/A -   "
32.35, 1210.48, 0.0539995, NaN, NaN, NaN, 0.04577916, "- N/A -   "
32.37, 1211.67, 0.0540411, NaN, NaN, NaN, 0.04211683, "- N/A -   "
32.39, 1212.87, 0.0540856, NaN, NaN, NaN, 0.0372337, "- N/A -   "
32.41, 1214.06, 0.05412445, NaN, NaN, NaN, 0.0347922, "- N/A -   "
32.43, 1215.01, 0.0541605, NaN, NaN, NaN, 0.0335714, "- N/A -   "
32.45, 1215.97, 0.0541994, NaN, NaN, NaN, 0.03112983, "- N/A -   "
32.47, 1217.04, 0.0542355, NaN, NaN, NaN, 0.0299091, "- N/A -   "
32.49, 1217.87, 0.0542688, NaN, NaN, NaN, 0.0299091, "- N/A -   "
32.51, 1218.71, 0.05430216, NaN, NaN, NaN, 0.0299091, "- N/A -   "
32.53, 1219.43, 0.0543327, NaN, NaN, NaN, 0.03112983, "- N/A -   "
32.55, 1220.38, 0.0543632, NaN, NaN, NaN, 0.0323506, "- N/A -   "
32.57, 1221.09, 0.05439379, NaN, NaN, NaN, 0.0335714, "- N/A -   "
32.59, 1221.81, 0.0544243, NaN, NaN, NaN, 0.0347922, "- N/A -   "
32.61, 1222.76, 0.0544577, NaN, NaN, NaN, 0.0347922, "- N/A -   "
32.63, 1223.599, 0.05449098, NaN, NaN, NaN, 0.0347922, "- N/A -   "
32.65, 1224.43, 0.0545243, NaN, NaN, NaN, 0.0347922, "- N/A -   "
32.67, 1225.39, 0.0545576, NaN, NaN, NaN, 0.0347922, "- N/A -   "
32.69, 1226.461, 0.0545937, NaN, NaN, NaN, 0.0335714, "- N/A -   "
32.71, 1227.53, 0.0546326, NaN, NaN, NaN, 0.03112983, "- N/A -   "
32.73, 1228.49, 0.0546659, NaN, NaN, NaN, 0.03112983, "- N/A -   "
32.75, 1229.2, 0.0546992, NaN, NaN, NaN, 0.03112983, "- N/A -   "
32.77, 1230.16, 0.0547326, NaN, NaN, NaN, 0.03112983, "- N/A -   "
32.79, 1230.99, 0.0547659, NaN, NaN, NaN, 0.03112983, "- N/A -   "
32.81, 1231.708, 0.0547936, NaN, NaN, NaN, 0.0335714, "- N/A -   "
32.83, 1232.42, 0.05482419, NaN, NaN, NaN, 0.03601294, "- N/A -   "
32.85, 1233.26, 0.054852, NaN, NaN, NaN, 0.0372337, "- N/A -   "
32.87, 1233.97, 0.0548825, NaN, NaN, NaN, 0.0384545, "- N/A -   "
32.89, 1234.69, 0.0549103, NaN, NaN, NaN, 0.04089605, "- N/A -   "
32.91, 1235.64, 0.0549436, NaN, NaN, NaN, 0.04089605, "- N/A -   "
32.93, 1236.48, 0.05497691, NaN, NaN, NaN, 0.04211683, "- N/A -   "
32.95, 1237.43, 0.05501301, NaN, NaN, NaN, 0.0396753, "- N/A -   "
32.97, 1238.39, 0.0550491, NaN, NaN, NaN, 0.0384545, "- N/A -   "
32.99, 1239.22, 0.05507965, NaN, NaN, NaN, 0.0396753, "- N/A -   "
33.01, 1240.06, 0.055113, NaN, NaN, NaN, 0.0396753, "- N/A -   "
33.03, 1241.01, 0.05514629, NaN, NaN, NaN, 0.0396753, "- N/A -   "
33.05, 1241.96, 0.05517961, NaN, NaN, NaN, 0.0396753, "- N/A -   "
33.07, 1242.92, 0.05521571, NaN, NaN, NaN, 0.0384545, "- N/A -   "
33.09, 1243.87, 0.05524903, NaN, NaN, NaN, 0.0384545, "- N/A -   "
33.11, 1244.71, 0.05528235, NaN, NaN, NaN, 0.0384545, "- N/A -   "
33.13, 1245.66, 0.0553157, NaN, NaN, NaN, 0.0384545, "- N/A -   "
33.15, 1246.61, 0.055349, NaN, NaN, NaN, 0.0384545, "- N/A -   "
33.17, 1247.57, 0.0553851, NaN, NaN, NaN, 0.0372337, "- N/A -   "
33.19, 1248.4, 0.0554184, NaN, NaN, NaN, 0.0372337, "- N/A -   "
33.21, 1249.24, 0.0554517, NaN, NaN, NaN, 0.0372337, "- N/A -   "
33.23, 1250.07, 0.0554878, NaN, NaN, NaN, 0.0372337, "- N/A -   "
33.25, 1251.15, 0.0555212, NaN, NaN, NaN, 0.03601294, "- N/A -   "
33.27, 1252.1, 0.05555725, NaN, NaN, NaN, 0.0347922, "- N/A -   "
33.29, 1252.93, 0.05559335, NaN, NaN, NaN, 0.0335714, "- N/A -   "
33.31, 1253.89, 0.0556267, NaN, NaN, NaN, 0.0335714, "- N/A -   "
33.33, 1254.843, 0.05565999, NaN, NaN, NaN, 0.0335714, "- N/A -   "
33.35, 1255.56, 0.05569331, NaN, NaN, NaN, 0.0335714, "- N/A -   "
33.37, 1256.39, 0.0557239, NaN, NaN, NaN, 0.0347922, "- N/A -   "
33.39, 1257.35, 0.05575718, NaN, NaN, NaN, 0.0347922, "- N/A -   "
33.41, 1258.3, 0.0557905, NaN, NaN, NaN, 0.0347922, "- N/A -   "
33.43, 1259.26, 0.0558238, NaN, NaN, NaN, 0.0347922, "- N/A -   "
33.45, 1259.97, 0.05585714, NaN, NaN, NaN, 0.0347922, "- N/A -   "
33.47, 1260.92, 0.05589046, NaN, NaN, NaN, 0.0347922, "- N/A -   "
33.49, 1261.76, 0.0559238, NaN, NaN, NaN, 0.0347922, "- N/A -   "
33.51, 1262.59, 0.0559571, NaN, NaN, NaN, 0.0347922, "- N/A -   "
33.53, 1263.43, 0.0559904, NaN, NaN, NaN, 0.0347922, "- N/A -   "
33.55, 1264.26, 0.056021, NaN, NaN, NaN, 0.0372337, "- N/A -   "
33.57, 1264.98, 0.0560487, NaN, NaN, NaN, 0.0384545, "- N/A -   "
33.59, 1265.695, 0.0560765, NaN, NaN, NaN, 0.04089605, "- N/A -   "
33.61, 1266.53, 0.0561098, NaN, NaN, NaN, 0.04089605, "- N/A -   "
33.63, 1267.48, 0.0561431, NaN, NaN, NaN, 0.04211683, "- N/A -   "
33.65, 1268.32, 0.05617369, NaN, NaN, NaN, 0.04211683, "- N/A -   "
33.67, 1269.15, 0.05620701, NaN, NaN, NaN, 0.0433376, "- N/A -   "
33.69, 1269.99, 0.0562376, NaN, NaN, NaN, 0.0433376, "- N/A -   "
33.71, 1270.942, 0.0562737, NaN, NaN, NaN, 0.04211683, "- N/A -   "
33.73, 1272.02, 0.056307, NaN, NaN, NaN, 0.04211683, "- N/A -   "
33.75, 1272.73, 0.0563403, NaN, NaN, NaN, 0.04211683, "- N/A -   "
33.77, 1273.8, 0.0563736, NaN, NaN, NaN, 0.04211683, "- N/A -   "
33.79, 1274.758, 0.0564125, NaN, NaN, NaN, 0.0396753, "- N/A -   "
33.81, 1275.712, 0.0564514, NaN, NaN, NaN, 0.0372337, "- N/A -   "
33.83, 1276.79, 0.05649024, NaN, NaN, NaN, 0.0347922, "- N/A -   "
33.85, 1277.98, 0.05653189, NaN, NaN, NaN, 0.03112983, "- N/A -   "
33.87, 1278.81, 0.05656799, NaN, NaN, NaN, 0.0299091, "- N/A -   "
33.89, 1279.77, 0.05660131, NaN, NaN, NaN, 0.0299091, "- N/A -   "
33.91, 1280.6, 0.05663463, NaN, NaN, NaN, 0.0299091, "- N/A -   "
33.93, 1281.32, 0.05666518, NaN, NaN, NaN, 0.0323506, "- N/A -   "
33.95, 1282.15, 0.0566929, NaN, NaN, NaN, 0.0335714, "- N/A -   "
33.97, 1282.87, 0.0567235, NaN, NaN, NaN, 0.0347922, "- N/A -   "
33.99, 1283.702, 0.0567596, NaN, NaN, NaN, 0.0347922, "- N/A -   "
34.01, 1284.656, 0.0567929, NaN, NaN, NaN, 0.0347922, "- N/A -   "
34.03, 1285.73, 0.056829, NaN, NaN, NaN, 0.0323506, "- N/A -   "
34.05, 1286.68, 0.05686788, NaN, NaN, NaN, 0.0299091, "- N/A -   "
34.07, 1287.64, 0.056904, NaN, NaN, NaN, 0.0299091, "- N/A -   "
34.09, 1288.59, 0.0569373, NaN, NaN, NaN, 0.0286883, "- N/A -   "
34.11, 1289.43, 0.0569706, NaN, NaN, NaN, 0.0299091, "- N/A -   "
34.13, 1290.26, 0.0570012, NaN, NaN, NaN, 0.0299091, "- N/A -   "
34.15, 1291.21, 0.0570345, NaN, NaN, NaN, 0.0299091, "- N/A -   "
34.17, 1292.05, 0.0570678, NaN, NaN, NaN, 0.0299091, "- N/A -   "
34.19, 1293, 0.0571011, NaN, NaN, NaN, 0.0299091, "- N/A -   "
34.21, 1293.72, 0.0571317, NaN, NaN, NaN, 0.0323506, "- N/A -   "
34.23, 1294.32, 0.05715666, NaN, NaN, NaN, 0.0347922, "- N/A -   "
34.25, 1295.03, 0.0571817, NaN, NaN, NaN, 0.0384545, "- N/A -   "
34.27, 1295.75, 0.0572094, NaN, NaN, NaN, 0.04089605, "- N/A -   "
34.29, 1296.46, 0.0572372, NaN, NaN, NaN, 0.0433376, "- N/A -   "
34.31, 1297.18, 0.0572677, NaN, NaN, NaN, 0.0445584, "- N/A -   "
34.33, 1297.89, 0.0572983, NaN, NaN, NaN, 0.04577916, "- N/A -   "
34.35, 1298.85, 0.0573288, NaN, NaN, NaN, 0.04699994, "- N/A -   "
34.37, 1299.68, 0.05736214, NaN, NaN, NaN, 0.04699994, "- N/A -   "
34.39, 1300.64, 0.0573982, NaN, NaN, NaN, 0.04577916, "- N/A -   "
34.41, 1301.709, 0.0574343, NaN, NaN, NaN, 0.0445584, "- N/A -   "
34.43, 1302.663, 0.057476, NaN, NaN, NaN, 0.04089605, "- N/A -   "
34.45, 1303.74, 0.0575121, NaN, NaN, NaN, 0.0396753, "- N/A -   "
34.47, 1304.69, 0.0575482, NaN, NaN, NaN, 0.0384545, "- N/A -   "
34.49, 1305.64, 0.0575815, NaN, NaN, NaN, 0.0384545, "- N/A -   "
34.51, 1306.6, 0.0576176, NaN, NaN, NaN, 0.0372337, "- N/A -   "
34.53, 1307.55, 0.0576537, NaN, NaN, NaN, 0.03601294, "- N/A -   "
34.55, 1308.51, 0.0576898, NaN, NaN, NaN, 0.0347922, "- N/A -   "
34.57, 1309.34, 0.0577259, NaN, NaN, NaN, 0.0347922, "- N/A -   "
34.59, 1310.295, 0.0577592, NaN, NaN, NaN, 0.0335714, "- N/A -   "
34.61, 1311.25, 0.0577953, NaN, NaN, NaN, 0.0323506, "- N/A -   "
34.63, 1312.2, 0.05783141, NaN, NaN, NaN, 0.03112983, "- N/A -   "
34.65, 1313.038, 0.0578647, NaN, NaN, NaN, 0.03112983, "- N/A -   "
34.67, 1313.992, 0.0578981, NaN, NaN, NaN, 0.03112983, "- N/A -   "
34.69, 1314.946, 0.05793137, NaN, NaN, NaN, 0.03112983, "- N/A -   "
34.71, 1315.78, 0.0579647, NaN, NaN, NaN, 0.03112983, "- N/A -   "
34.73, 1316.62, 0.057998, NaN, NaN, NaN, 0.03112983, "- N/A -   "
34.75, 1317.45, 0.0580341, NaN, NaN, NaN, 0.03112983, "- N/A -   "
34.77, 1318.4, 0.0580674, NaN, NaN, NaN, 0.03112983, "- N/A -   "
34.79, 1319.239, 0.05809798, NaN, NaN, NaN, 0.03112983, "- N/A -   "
34.81, 1320.07, 0.05812852, NaN, NaN, NaN, 0.0323506, "- N/A -   "
34.83, 1320.79, 0.05815907, NaN, NaN, NaN, 0.0335714, "- N/A -   "
34.85, 1321.5, 0.0581868, NaN, NaN, NaN, 0.03601294, "- N/A -   "
34.87, 1322.22, 0.0582174, NaN, NaN, NaN, 0.0372337, "- N/A -   "
34.89, 1323.055, 0.05824515, NaN, NaN, NaN, 0.0396753, "- N/A -   "
34.91, 1323.77, 0.0582729, NaN, NaN, NaN, 0.04211683, "- N/A -   "
34.93, 1324.49, 0.0583035, NaN, NaN, NaN, 0.0445584, "- N/A -   "
34.95, 1325.32, 0.058334, NaN, NaN, NaN, 0.04577916, "- N/A -   "
34.97, 1326.04, 0.0583645, NaN, NaN, NaN, 0.04577916, "- N/A -   "
34.99, 1326.99, 0.0584006, NaN, NaN, NaN, 0.0445584, "- N/A -   "
35.01, 1327.94, 0.0584367, NaN, NaN, NaN, 0.0445584, "- N/A -   "
35.03, 1328.9, 0.0584701, NaN, NaN, NaN, 0.0445584, "- N/A -   "
35.05, 1329.73, 0.0585034, NaN, NaN, NaN, 0.0433376, "- N/A -   "
35.07, 1330.568, 0.0585367, NaN, NaN, NaN, 0.0433376, "- N/A -   "
35.09, 1331.64, 0.05857, NaN, NaN, NaN, 0.0433376, "- N/A -   "
35.11, 1332.6, 0.05860612, NaN, NaN, NaN, 0.04211683, "- N/A -   "
35.13, 1333.43, 0.05864222, NaN, NaN, NaN, 0.04089605, "- N/A -   "
35.15, 1334.5, 0.0586811, NaN, NaN, NaN, 0.0384545, "- N/A -   "
35.17, 1335.58, 0.0587172, NaN, NaN, NaN, 0.0372337, "- N/A -   "
35.19, 1336.65, 0.05875607, NaN, NaN, NaN, 0.0347922, "- N/A -   "
35.21, 1337.72, 0.05879772, NaN, NaN, NaN, 0.03112983, "- N/A -   "
35.23, 1338.92, 0.0588366, NaN, NaN, NaN, 0.0286883, "- N/A -   "
35.25, 1339.87, 0.0588755, NaN, NaN, NaN, 0.0274675, "- N/A -   "
35.27, 1340.7, 0.05890601, NaN, NaN, NaN, 0.0274675, "- N/A -   "
35.29, 1341.54, 0.0589393, NaN, NaN, NaN, 0.0274675, "- N/A -   "
35.31, 1342.37, 0.0589754, NaN, NaN, NaN, 0.0286883, "- N/A -   "
35.33, 1343.328, 0.0590088, NaN, NaN, NaN, 0.0286883, "- N/A -   "
35.35, 1344.16, 0.0590421, NaN, NaN, NaN, 0.0286883, "- N/A -   "
35.37, 1344.88, 0.0590698, NaN, NaN, NaN, 0.0299091, "- N/A -   "
35.39, 1345.59, 0.05909761, NaN, NaN, NaN, 0.0323506, "- N/A -   "
35.41, 1346.43, 0.0591282, NaN, NaN, NaN, 0.0335714, "- N/A -   "
35.43, 1347.38, 0.0591615, NaN, NaN, NaN, 0.0335714, "- N/A -   "
35.45, 1348.22, 0.0591948, NaN, NaN, NaN, 0.0335714, "- N/A -   "
35.47, 1349.052, 0.0592253, NaN, NaN, NaN, 0.0347922, "- N/A -   "
35.49, 1349.89, 0.0592587, NaN, NaN, NaN, 0.0347922, "- N/A -   "
35.51, 1350.72, 0.059292, NaN, NaN, NaN, 0.0347922, "- N/A -   "
35.53, 1351.56, 0.0593225, NaN, NaN, NaN, 0.03601294, "- N/A -   "
35.55, 1352.51, 0.0593586, NaN, NaN, NaN, 0.0347922, "- N/A -   "
35.57, 1353.35, 0.0593892, NaN, NaN, NaN, 0.03601294, "- N/A -   "
35.59, 1354.18, 0.05942249, NaN, NaN, NaN, 0.03601294, "- N/A -   "
35.61, 1354.9, 0.05944748, NaN, NaN, NaN, 0.0396753, "- N/A -   "
35.63, 1355.611, 0.0594752, NaN, NaN, NaN, 0.04211683, "- N/A -   "
35.65, 1356.33, 0.059503, NaN, NaN, NaN, 0.0445584, "- N/A -   "
35.67, 1357.16, 0.05953356, NaN, NaN, NaN, 0.04577916, "- N/A -   "
35.69, 1357.88, 0.0595641, NaN, NaN, NaN, 0.04699994, "- N/A -   "
35.71, 1358.71, 0.0595974, NaN, NaN, NaN, 0.0482207, "- N/A -   "
35.73, 1359.55, 0.0596252, NaN, NaN, NaN, 0.0494415, "- N/A -   "
35.75, 1360.5, 0.05966129, NaN, NaN, NaN, 0.0494415, "- N/A -   "
35.77, 1361.45, 0.05969461, NaN, NaN, NaN, 0.0482207, "- N/A -   "
35.79, 1362.65, 0.0597363, NaN, NaN, NaN, 0.0445584, "- N/A -   "
35.81, 1363.84, 0.05977791, NaN, NaN, NaN, 0.04089605, "- N/A -   "
35.83, 1364.91, 0.0598196, NaN, NaN, NaN, 0.0372337, "- N/A -   "
35.85, 1365.99, 0.05985844, NaN, NaN, NaN, 0.0347922, "- N/A -   "
35.87, 1366.94, 0.05989454, NaN, NaN, NaN, 0.0347922, "- N/A -   "
35.89, 1367.77, 0.05992786, NaN, NaN, NaN, 0.0335714, "- N/A -   "
35.91, 1368.73, 0.0599612, NaN, NaN, NaN, 0.0335714, "- N/A -   "
35.93, 1369.44, 0.0599945, NaN, NaN, NaN, 0.0347922, "- N/A -   "
35.95, 1370.4, 0.060025, NaN, NaN, NaN, 0.0347922, "- N/A -   "
35.97, 1371.11, 0.06005559, NaN, NaN, NaN, 0.03601294, "- N/A -   "
35.99, 1371.95, 0.06008613, NaN, NaN, NaN, 0.0372337, "- N/A -   "
36.01, 1372.78, 0.0601195, NaN, NaN, NaN, 0.0384545, "- N/A -   "
36.03, 1373.618, 0.0601528, NaN, NaN, NaN, 0.0384545, "- N/A -   "
36.05, 1374.45, 0.0601861, NaN, NaN, NaN, 0.0372337, "- N/A -   "
36.07, 1375.29, 0.06021942, NaN, NaN, NaN, 0.0372337, "- N/A -   "
36.09, 1376.36, 0.06025829, NaN, NaN, NaN, 0.03601294, "- N/A -   "
36.11, 1377.31, 0.06029439, NaN, NaN, NaN, 0.0335714, "- N/A -   "
36.13, 1378.27, 0.0603305, NaN, NaN, NaN, 0.0335714, "- N/A -   "
36.15, 1379.342, 0.0603638, NaN, NaN, NaN, 0.0323506, "- N/A -   "
36.17, 1380.06, 0.0603944, NaN, NaN, NaN, 0.0335714, "- N/A -   "
36.19, 1381.01, 0.0604277, NaN, NaN, NaN, 0.0335714, "- N/A -   "
36.21, 1381.727, 0.06045544, NaN, NaN, NaN, 0.03601294, "- N/A -   "
36.23, 1382.44, 0.06048876, NaN, NaN, NaN, 0.03601294, "- N/A -   "
36.25, 1383.28, 0.06051653, NaN, NaN, NaN, 0.0384545, "- N/A -   "
36.27, 1383.99, 0.0605471, NaN, NaN, NaN, 0.0396753, "- N/A -   "
36.29, 1384.83, 0.0605748, NaN, NaN, NaN, 0.04211683, "- N/A -   "
36.31, 1385.66, 0.0606082, NaN, NaN, NaN, 0.04211683, "- N/A -   "
36.33, 1386.38, 0.0606387, NaN, NaN, NaN, 0.0433376, "- N/A -   "
36.35, 1387.21, 0.060672, NaN, NaN, NaN, 0.0433376, "- N/A -   "
36.37, 1388.29, 0.0607081, NaN, NaN, NaN, 0.04211683, "- N/A -   "
36.39, 1389.24, 0.0607414, NaN, NaN, NaN, 0.04211683, "- N/A -   "
36.41, 1390.194, 0.0607775, NaN, NaN, NaN, 0.04211683, "- N/A -   "
36.43, 1390.91, 0.0608081, NaN, NaN, NaN, 0.04211683, "- N/A -   "
36.45, 1391.98, 0.060847, NaN, NaN, NaN, 0.0396753, "- N/A -   "
36.47, 1393.056, 0.06088584, NaN, NaN, NaN, 0.0384545, "- N/A -   "
36.49, 1394.01, 0.06091916, NaN, NaN, NaN, 0.0372337, "- N/A -   "
36.51, 1394.96, 0.0609553, NaN, NaN, NaN, 0.03601294, "- N/A -   "
36.53, 1395.8, 0.0609886, NaN, NaN, NaN, 0.03601294, "- N/A -   "
36.55, 1396.75, 0.0610219, NaN, NaN, NaN, 0.03601294, "- N/A -   "
36.57, 1397.47, 0.06105522, NaN, NaN, NaN, 0.03601294, "- N/A -   "
36.59, 1398.42, 0.0610885, NaN, NaN, NaN, 0.0372337, "- N/A -   "
36.61, 1399.26, 0.0611191, NaN, NaN, NaN, 0.0372337, "- N/A -   "
36.63, 1400.211, 0.06115518, NaN, NaN, NaN, 0.03601294, "- N/A -   "
36.65, 1401.17, 0.06119128, NaN, NaN, NaN, 0.0347922, "- N/A -   "
36.67, 1402.24, 0.0612274, NaN, NaN, NaN, 0.0335714, "- N/A -   "
36.69, 1403.07, 0.0612635, NaN, NaN, NaN, 0.0323506, "- N/A -   "
36.71, 1404.03, 0.0612968, NaN, NaN, NaN, 0.0323506, "- N/A -   "
36.73, 1404.98, 0.0613301, NaN, NaN, NaN, 0.0323506, "- N/A -   "
36.75, 1405.7, 0.06136066, NaN, NaN, NaN, 0.0335714, "- N/A -   "
36.77, 1406.65, 0.061394, NaN, NaN, NaN, 0.0335714, "- N/A -   "
36.79, 1407.49, 0.0614301, NaN, NaN, NaN, 0.0335714, "- N/A -   "
36.81, 1408.44, 0.0614634, NaN, NaN, NaN, 0.0323506, "- N/A -   "
36.83, 1409.51, 0.0614995, NaN, NaN, NaN, 0.03112983, "- N/A -   "
36.85, 1410.35, 0.06153282, NaN, NaN, NaN, 0.03112983, "- N/A -   "
36.87, 1411.06, 0.0615634, NaN, NaN, NaN, 0.0323506, "- N/A -   "
36.89, 1411.9, 0.0615967, NaN, NaN, NaN, 0.0323506, "- N/A -   "
36.91, 1412.85, 0.06163, NaN, NaN, NaN, 0.0323506, "- N/A -   "
36.93, 1413.69, 0.0616633, NaN, NaN, NaN, 0.0323506, "- N/A -   "
36.95, 1414.64, 0.06169665, NaN, NaN, NaN, 0.0323506, "- N/A -   "
36.97, 1415.36, 0.0617272, NaN, NaN, NaN, 0.0347922, "- N/A -   "
36.99, 1416.19, 0.06175496, NaN, NaN, NaN, 0.03601294, "- N/A -   "
37.01, 1416.79, 0.06178273, NaN, NaN, NaN, 0.0384545, "- N/A -   "
37.03, 1417.74, 0.0618133, NaN, NaN, NaN, 0.0396753, "- N/A -   "
37.05, 1418.46, 0.061841, NaN, NaN, NaN, 0.04211683, "- N/A -   "
37.07, 1419.053, 0.06186881, NaN, NaN, NaN, 0.0445584, "- N/A -   "
37.09, 1419.89, 0.0618966, NaN, NaN, NaN, 0.04699994, "- N/A -   "
37.11, 1420.6, 0.06192712, NaN, NaN, NaN, 0.0482207, "- N/A -   "
37.13, 1421.438, 0.0619604, NaN, NaN, NaN, 0.0482207, "- N/A -   "
37.15, 1422.63, 0.0619965, NaN, NaN, NaN, 0.04699994, "- N/A -   "
37.17, 1423.47, 0.06203264, NaN, NaN, NaN, 0.04577916, "- N/A -   "
37.19, 1424.42, 0.06206596, NaN, NaN, NaN, 0.04577916, "- N/A -   "
37.21, 1425.37, 0.0621048, NaN, NaN, NaN, 0.0433376, "- N/A -   "
37.23, 1426.45, 0.0621437, NaN, NaN, NaN, 0.04089605, "- N/A -   "
37.25, 1427.639, 0.0621798, NaN, NaN, NaN, 0.0396753, "- N/A -   "
37.27, 1428.47, 0.0622187, NaN, NaN, NaN, 0.0384545, "- N/A -   "
37.29, 1429.43, 0.062252, NaN, NaN, NaN, 0.0372337, "- N/A -   "
37.31, 1430.382, 0.0622881, NaN, NaN, NaN, 0.03601294, "- N/A -   "
37.33, 1431.34, 0.0623242, NaN, NaN, NaN, 0.0347922, "- N/A -   "
37.35, 1432.29, 0.0623575, NaN, NaN, NaN, 0.0347922, "- N/A -   "
37.37, 1433.12, 0.0623908, NaN, NaN, NaN, 0.0347922, "- N/A -   "
37.39, 1433.84, 0.06242416, NaN, NaN, NaN, 0.0347922, "- N/A -   "
37.41, 1434.91, 0.06246026, NaN, NaN, NaN, 0.0347922, "- N/A -   "
37.43, 1435.87, 0.0624936, NaN, NaN, NaN, 0.0335714, "- N/A -   "
37.45, 1436.82, 0.0625297, NaN, NaN, NaN, 0.0323506, "- N/A -   "
37.47, 1437.89, 0.0625685, NaN, NaN, NaN, 0.0299091, "- N/A -   "
37.49, 1438.85, 0.06260464, NaN, NaN, NaN, 0.0286883, "- N/A -   "
37.51, 1439.56, 0.06263797, NaN, NaN, NaN, 0.0286883, "- N/A -   "
37.53, 1440.52, 0.06267129, NaN, NaN, NaN, 0.0299091, "- N/A -   "
37.55, 1441.23, 0.06269906, NaN, NaN, NaN, 0.03112983, "- N/A -   "
37.57, 1442.19, 0.0627296, NaN, NaN, NaN, 0.0323506, "- N/A -   "
37.59, 1442.9, 0.0627601, NaN, NaN, NaN, 0.0335714, "- N/A -   "
37.61, 1443.62, 0.06278791, NaN, NaN, NaN, 0.03601294, "- N/A -   "
37.63, 1444.33, 0.06281845, NaN, NaN, NaN, 0.0372337, "- N/A -   "
37.65, 1445.17, 0.062849, NaN, NaN, NaN, 0.0384545, "- N/A -   "
37.67, 1445.88, 0.06287399, NaN, NaN, NaN, 0.04211683, "- N/A -   "
37.69, 1446.48, 0.06290454, NaN, NaN, NaN, 0.0433376, "- N/A -   "
37.71, 1447.2, 0.0629351, NaN, NaN, NaN, 0.0445584, "- N/A -   "
37.73, 1448.03, 0.0629656, NaN, NaN, NaN, 0.04577916, "- N/A -   "
37.75, 1448.99, 0.06299894, NaN, NaN, NaN, 0.04699994, "- N/A -   "
37.77, 1449.82, 0.06302949, NaN, NaN, NaN, 0.04699994, "- N/A -   "
37.79, 1450.54, 0.06306004, NaN, NaN, NaN, 0.0482207, "- N/A -   "
37.795, 1450.774, 0.06306836, NaN, NaN, NaN, 0.0482207, "- N/A -   "