File: 2_Tensile_Data/Hamel_ForceTest_Bolt9_Test2.csv
Time, Load (lb), Position (in), AxialStrain (in), TransverseStrain (in), Auxiliary (), Control Out (V), Stress (psi)
0.0, 1.06153, 0.0, NaN, NaN, NaN, 0.103156, "- N/A -   "
0.01, 1.53332, 3.3321e-05, NaN, NaN, NaN, 0.103156, "- N/A -   "
0.02, 1.88716, 6.6642e-05, NaN, NaN, NaN, 0.09461027, "- N/A -   "
0.03, 2.35895, 9.718631E-5, NaN, NaN, NaN, 0.08850638, "- N/A -   "
0.04, 2.712792, 0.000127731, NaN, NaN, NaN, 0.08362327, "- N/A -   "
0.05, 2.94869, 0.000152721, NaN, NaN, NaN, 0.07874016, "- N/A -   "
0.06, 3.30253, 0.000183266, NaN, NaN, NaN, 0.07263627, "- N/A -   "
0.07, 3.53842, 2.138099E-4, NaN, NaN, NaN, 0.06775316, "- N/A -   "
0.08, 3.89227, 0.000238801, NaN, NaN, NaN, 0.06287005, "- N/A -   "
0.09, 4.246109, 0.000266568, NaN, NaN, NaN, 0.0592077, "- N/A -   "
0.1, 4.59995, 0.000294336, NaN, NaN, NaN, 0.0543246, "- N/A -   "
0.11, 4.717899, 3.165497E-4, NaN, NaN, NaN, 0.05066227, "- N/A -   "
0.12, 5.071741, 0.000338764, NaN, NaN, NaN, 0.0482207, "- N/A -   "
0.13, 5.307636, 0.000360978, NaN, NaN, NaN, 0.04699994, "- N/A -   "
0.14, 5.425584, 3.80415E-4, NaN, NaN, NaN, 0.0445584, "- N/A -   "
0.15, 5.66148, 0.000402629, NaN, NaN, NaN, 0.04211683, "- N/A -   "
0.16, 6.01532, 0.000422066, NaN, NaN, NaN, 0.04089605, "- N/A -   "
0.17, 6.13327, 4.442803E-4, NaN, NaN, NaN, 0.0384545, "- N/A -   "
0.18, 6.369163, 4.609408E-4, NaN, NaN, NaN, 0.0384545, "- N/A -   "
0.19, 6.60506, 4.776013E-4, NaN, NaN, NaN, 0.0384545, "- N/A -   "
0.2, 6.84095, 4.970386E-4, NaN, NaN, NaN, 0.0384545, "- N/A -   "
0.21, 6.84095, 0.000510922, NaN, NaN, NaN, 0.0384545, "- N/A -   "
0.22, 7.07685, 0.000527583, NaN, NaN, NaN, 0.0384545, "- N/A -   "
0.23, 7.1948, 5.442434E-4, NaN, NaN, NaN, 0.0396753, "- N/A -   "
0.24, 7.430691, 5.553504E-4, NaN, NaN, NaN, 0.04089605, "- N/A -   "
0.25, 7.548638, 5.720109E-4, NaN, NaN, NaN, 0.04089605, "- N/A -   "
0.26, 7.666586, 5.858946E-4, NaN, NaN, NaN, 0.04211683, "- N/A -   "
0.27, 7.90248, 0.000602555, NaN, NaN, NaN, 0.04211683, "- N/A -   "
0.28, 8.138375, 0.000619216, NaN, NaN, NaN, 0.0433376, "- N/A -   "
0.29, 8.138375, 6.330994E-4, NaN, NaN, NaN, 0.0433376, "- N/A -   "
0.3, 8.37427, 6.497599E-4, NaN, NaN, NaN, 0.0433376, "- N/A -   "
0.31, 8.610166, 6.636437E-4, NaN, NaN, NaN, 0.0445584, "- N/A -   "
0.33, 8.846061, 0.000694188, NaN, NaN, NaN, 0.04577916, "- N/A -   "
0.35, 9.081955, 7.27509E-4, NaN, NaN, NaN, 0.04699994, "- N/A -   "
0.37, 9.553744, 7.6083E-4, NaN, NaN, NaN, 0.04577916, "- N/A -   "
0.39, 9.907588, 7.969278E-4, NaN, NaN, NaN, 0.0445584, "- N/A -   "
0.41, 10.26143, 8.302488E-4, NaN, NaN, NaN, 0.0445584, "- N/A -   "
0.43, 10.6153, 8.635698E-4, NaN, NaN, NaN, 0.04577916, "- N/A -   "
0.45, 10.9691, 8.941141E-4, NaN, NaN, NaN, 0.04577916, "- N/A -   "
0.47, 11.4409, 0.000930212, NaN, NaN, NaN, 0.04577916, "- N/A -   "
0.49, 11.7947, 9.635329E-4, NaN, NaN, NaN, 0.0445584, "- N/A -   "
0.51, 12.2665, 9.996307E-4, NaN, NaN, NaN, 0.0433376, "- N/A -   "
0.53, 12.6204, 0.00103573, NaN, NaN, NaN, 0.04211683, "- N/A -   "
0.55, 13.09217, 0.001074603, NaN, NaN, NaN, 0.04089605, "- N/A -   "
0.57, 13.446, 0.00111348, NaN, NaN, NaN, 0.0384545, "- N/A -   "
0.59, 13.9178, 0.00114958, NaN, NaN, NaN, 0.03601294, "- N/A -   "
0.61, 14.3896, 0.00118845, NaN, NaN, NaN, 0.0335714, "- N/A -   "
0.63, 14.7434, 0.00122455, NaN, NaN, NaN, 0.0323506, "- N/A -   "
0.65, 15.2152, 0.00126065, NaN, NaN, NaN, 0.03112983, "- N/A -   "
0.67, 15.687, 0.001296743, NaN, NaN, NaN, 0.03112983, "- N/A -   "
0.69, 16.0409, 0.00133006, NaN, NaN, NaN, 0.0299091, "- N/A -   "
0.71, 16.5126, 0.00136616, NaN, NaN, NaN, 0.0286883, "- N/A -   "
0.73, 16.86649, 0.001399483, NaN, NaN, NaN, 0.0286883, "- N/A -   "
0.75, 17.3383, 0.00143003, NaN, NaN, NaN, 0.0299091, "- N/A -   "
0.77, 17.8101, 0.00146335, NaN, NaN, NaN, 0.03112983, "- N/A -   "
0.79, 18.16391, 0.00149112, NaN, NaN, NaN, 0.0323506, "- N/A -   "
0.81, 18.5178, 0.00152166, NaN, NaN, NaN, 0.0335714, "- N/A -   "
0.83, 18.8716, 0.0015522, NaN, NaN, NaN, 0.03601294, "- N/A -   "
0.85, 19.3434, 0.00158275, NaN, NaN, NaN, 0.0372337, "- N/A -   "
0.87, 19.8152, 0.00161329, NaN, NaN, NaN, 0.0372337, "- N/A -   "
0.89, 20.287, 0.00164939, NaN, NaN, NaN, 0.0372337, "- N/A -   "
0.91, 20.6408, 0.00167993, NaN, NaN, NaN, 0.0372337, "- N/A -   "
0.93, 21.2305, 0.00171326, NaN, NaN, NaN, 0.0372337, "- N/A -   "
0.95, 21.7023, 0.00174935, NaN, NaN, NaN, 0.03601294, "- N/A -   "
0.97, 22.0562, 0.00178267, NaN, NaN, NaN, 0.0372337, "- N/A -   "
0.99, 22.41, 0.00181044, NaN, NaN, NaN, 0.0384545, "- N/A -   "
1.01, 22.7639, 0.00183821, NaN, NaN, NaN, 0.04089605, "- N/A -   "
1.03, 23.2357, 0.00186875, NaN, NaN, NaN, 0.04211683, "- N/A -   "
1.05, 23.7074, 0.001902075, NaN, NaN, NaN, 0.0433376, "- N/A -   "
1.07, 24.1792, 0.00193262, NaN, NaN, NaN, 0.0433376, "- N/A -   "
1.09, 24.65102, 0.00196316, NaN, NaN, NaN, 0.0445584, "- N/A -   "
1.11, 25.0049, 0.00199648, NaN, NaN, NaN, 0.0445584, "- N/A -   "
1.13, 25.4767, 0.00202981, NaN, NaN, NaN, 0.0445584, "- N/A -   "
1.15, 26.18434, 0.00206868, NaN, NaN, NaN, 0.0433376, "- N/A -   "
1.17, 26.6561, 0.00210755, NaN, NaN, NaN, 0.04089605, "- N/A -   "
1.19, 27.2459, 0.00214365, NaN, NaN, NaN, 0.0384545, "- N/A -   "
1.21, 27.8356, 0.002182527, NaN, NaN, NaN, 0.03601294, "- N/A -   "
1.23, 28.42534, 0.0022214, NaN, NaN, NaN, 0.0347922, "- N/A -   "
1.25, 28.89713, 0.0022575, NaN, NaN, NaN, 0.0335714, "- N/A -   "
1.27, 29.3689, 0.0022936, NaN, NaN, NaN, 0.03112983, "- N/A -   "
1.29, 29.9587, 0.00232969, NaN, NaN, NaN, 0.0299091, "- N/A -   "
1.31, 30.4304, 0.00236579, NaN, NaN, NaN, 0.0286883, "- N/A -   "
1.33, 31.0202, 0.00239911, NaN, NaN, NaN, 0.0299091, "- N/A -   "
1.35, 31.374, 0.00242966, NaN, NaN, NaN, 0.0299091, "- N/A -   "
1.37, 31.72787, 0.00245743, NaN, NaN, NaN, 0.0323506, "- N/A -   "
1.39, 32.3176, 0.00248797, NaN, NaN, NaN, 0.0335714, "- N/A -   "
1.41, 32.7894, 0.00252129, NaN, NaN, NaN, 0.0347922, "- N/A -   "
1.43, 33.1432, 0.00254906, NaN, NaN, NaN, 0.03601294, "- N/A -   "
1.45, 33.73298, 0.00258238, NaN, NaN, NaN, 0.03601294, "- N/A -   "
1.47, 34.3227, 0.00261848, NaN, NaN, NaN, 0.03601294, "- N/A -   "
1.49, 34.9125, 0.00265457, NaN, NaN, NaN, 0.0347922, "- N/A -   "
1.51, 35.2663, 0.0026879, NaN, NaN, NaN, 0.0335714, "- N/A -   "
1.53, 35.7381, 0.00272122, NaN, NaN, NaN, 0.0347922, "- N/A -   "
1.55, 36.44577, 0.00275454, NaN, NaN, NaN, 0.0335714, "- N/A -   "
1.57, 36.79961, 0.00278786, NaN, NaN, NaN, 0.0335714, "- N/A -   "
1.59, 37.2714, 0.0028184, NaN, NaN, NaN, 0.03601294, "- N/A -   "
1.61, 37.8611, 0.00284895, NaN, NaN, NaN, 0.0372337, "- N/A -   "
1.63, 38.215, 0.00287671, NaN, NaN, NaN, 0.0396753, "- N/A -   "
1.65, 38.8047, 0.00290448, NaN, NaN, NaN, 0.04089605, "- N/A -   "
1.67, 39.15856, 0.00293503, NaN, NaN, NaN, 0.04211683, "- N/A -   "
1.69, 39.7483, 0.00296835, NaN, NaN, NaN, 0.0433376, "- N/A -   "
1.71, 40.33803, 0.002998892, NaN, NaN, NaN, 0.0433376, "- N/A -   "
1.73, 40.8098, 0.003032213, NaN, NaN, NaN, 0.0433376, "- N/A -   "
1.75, 41.39956, 0.00307109, NaN, NaN, NaN, 0.04211683, "- N/A -   "
1.77, 42.1072, 0.00310441, NaN, NaN, NaN, 0.04089605, "- N/A -   "
1.79, 42.579, 0.00313773, NaN, NaN, NaN, 0.04089605, "- N/A -   "
1.81, 43.1688, 0.00317383, NaN, NaN, NaN, 0.0396753, "- N/A -   "
1.83, 43.75851, 0.00320715, NaN, NaN, NaN, 0.0396753, "- N/A -   "
1.85, 44.2303, 0.00324047, NaN, NaN, NaN, 0.0396753, "- N/A -   "
1.87, 44.82, 0.00327379, NaN, NaN, NaN, 0.0396753, "- N/A -   "
1.89, 45.40978, 0.003309888, NaN, NaN, NaN, 0.0384545, "- N/A -   "
1.91, 46.23541, 0.00334876, NaN, NaN, NaN, 0.0372337, "- N/A -   "
1.93, 46.7072, 0.00338486, NaN, NaN, NaN, 0.0347922, "- N/A -   "
1.95, 47.2969, 0.00341818, NaN, NaN, NaN, 0.0347922, "- N/A -   "
1.97, 47.7687, 0.00344873, NaN, NaN, NaN, 0.03601294, "- N/A -   "
1.99, 48.2405, 0.003482047, NaN, NaN, NaN, 0.03601294, "- N/A -   "
2.01, 48.9482, 0.003515368, NaN, NaN, NaN, 0.0372337, "- N/A -   "
2.03, 49.5379, 0.00354869, NaN, NaN, NaN, 0.0372337, "- N/A -   "
2.05, 50.0097, 0.00357923, NaN, NaN, NaN, 0.0372337, "- N/A -   "
2.07, 50.5995, 0.00361533, NaN, NaN, NaN, 0.0372337, "- N/A -   "
2.09, 51.30715, 0.00365143, NaN, NaN, NaN, 0.03601294, "- N/A -   "
2.11, 51.89689, 0.00368753, NaN, NaN, NaN, 0.0335714, "- N/A -   "
2.13, 52.48662, 0.00372362, NaN, NaN, NaN, 0.0323506, "- N/A -   "
2.15, 53.0764, 0.00375972, NaN, NaN, NaN, 0.03112983, "- N/A -   "
2.17, 53.6661, 0.00379027, NaN, NaN, NaN, 0.0323506, "- N/A -   "
2.19, 54.13789, 0.00382359, NaN, NaN, NaN, 0.0323506, "- N/A -   "
2.21, 54.6097, 0.00385413, NaN, NaN, NaN, 0.0335714, "- N/A -   "
2.23, 55.0815, 0.00388468, NaN, NaN, NaN, 0.0347922, "- N/A -   "
2.25, 55.7892, 0.00391522, NaN, NaN, NaN, 0.03601294, "- N/A -   "
2.27, 56.2609, 0.00394576, NaN, NaN, NaN, 0.0372337, "- N/A -   "
2.29, 56.9686, 0.00398464, NaN, NaN, NaN, 0.0347922, "- N/A -   "
2.31, 57.5584, 0.00402074, NaN, NaN, NaN, 0.0335714, "- N/A -   "
2.33, 58.0302, 0.00405128, NaN, NaN, NaN, 0.0347922, "- N/A -   "
2.35, 58.6199, 0.004084602, NaN, NaN, NaN, 0.0347922, "- N/A -   "
2.37, 59.3276, 0.00411515, NaN, NaN, NaN, 0.03601294, "- N/A -   "
2.39, 59.9173, 0.00414847, NaN, NaN, NaN, 0.03601294, "- N/A -   "
2.41, 60.27116, 0.00417901, NaN, NaN, NaN, 0.0372337, "- N/A -   "
2.43, 60.97884, 0.00421233, NaN, NaN, NaN, 0.0372337, "- N/A -   "
2.45, 61.3327, 0.00424288, NaN, NaN, NaN, 0.0396753, "- N/A -   "
2.47, 62.0404, 0.00427342, NaN, NaN, NaN, 0.0396753, "- N/A -   "
2.49, 62.3942, 0.00430119, NaN, NaN, NaN, 0.04211683, "- N/A -   "
2.51, 63.1019, 0.00433173, NaN, NaN, NaN, 0.0433376, "- N/A -   "
2.53, 63.6916, 0.00436783, NaN, NaN, NaN, 0.0433376, "- N/A -   "
2.55, 64.28137, 0.004398375, NaN, NaN, NaN, 0.0433376, "- N/A -   "
2.57, 64.87111, 0.004434473, NaN, NaN, NaN, 0.04211683, "- N/A -   "
2.59, 65.4608, 0.00447057, NaN, NaN, NaN, 0.04211683, "- N/A -   "
2.61, 66.16853, 0.004506668, NaN, NaN, NaN, 0.0396753, "- N/A -   "
2.63, 66.87622, 0.004545543, NaN, NaN, NaN, 0.0372337, "- N/A -   "
2.65, 67.70185, 0.004584417, NaN, NaN, NaN, 0.0347922, "- N/A -   "
2.67, 68.29159, 0.004623292, NaN, NaN, NaN, 0.0335714, "- N/A -   "
2.69, 68.8813, 0.004656613, NaN, NaN, NaN, 0.0323506, "- N/A -   "
2.71, 69.47106, 0.00468993, NaN, NaN, NaN, 0.0335714, "- N/A -   "
2.73, 70.0608, 0.004723255, NaN, NaN, NaN, 0.0323506, "- N/A -   "
2.75, 70.6505, 0.004753799, NaN, NaN, NaN, 0.0335714, "- N/A -   "
2.77, 71.24027, 0.00478712, NaN, NaN, NaN, 0.0335714, "- N/A -   "
2.79, 71.83001, 0.004823218, NaN, NaN, NaN, 0.0323506, "- N/A -   "
2.81, 72.41975, 0.004856539, NaN, NaN, NaN, 0.0323506, "- N/A -   "
2.83, 73.00948, 0.00489264, NaN, NaN, NaN, 0.0323506, "- N/A -   "
2.85, 73.71717, 0.00492596, NaN, NaN, NaN, 0.03112983, "- N/A -   "
2.87, 74.42485, 0.00496206, NaN, NaN, NaN, 0.0299091, "- N/A -   "
2.89, 75.13254, 0.004998153, NaN, NaN, NaN, 0.0286883, "- N/A -   "
2.91, 75.7223, 0.005034251, NaN, NaN, NaN, 0.0274675, "- N/A -   "
2.93, 76.31202, 0.0050648, NaN, NaN, NaN, 0.0286883, "- N/A -   "
2.95, 76.7838, 0.00509534, NaN, NaN, NaN, 0.0299091, "- N/A -   "
2.97, 77.37354, 0.00512588, NaN, NaN, NaN, 0.0323506, "- N/A -   "
2.99, 77.84533, 0.00515365, NaN, NaN, NaN, 0.0335714, "- N/A -   "
3.01, 78.31712, 0.0051842, NaN, NaN, NaN, 0.03601294, "- N/A -   "
3.03, 78.78891, 0.00521474, NaN, NaN, NaN, 0.0372337, "- N/A -   "
3.05, 79.37865, 0.00524251, NaN, NaN, NaN, 0.0396753, "- N/A -   "
3.07, 79.85043, 0.005270275, NaN, NaN, NaN, 0.04089605, "- N/A -   "
3.09, 80.44018, 0.00529804, NaN, NaN, NaN, 0.0433376, "- N/A -   "
3.11, 80.912, 0.005328587, NaN, NaN, NaN, 0.0445584, "- N/A -   "
3.13, 81.5017, 0.005359131, NaN, NaN, NaN, 0.04577916, "- N/A -   "
3.15, 82.20939, 0.005392452, NaN, NaN, NaN, 0.04577916, "- N/A -   "
3.17, 82.79912, 0.00542577, NaN, NaN, NaN, 0.04577916, "- N/A -   "
3.19, 83.50681, 0.005459094, NaN, NaN, NaN, 0.04577916, "- N/A -   "
3.21, 84.09654, 0.00549519, NaN, NaN, NaN, 0.0445584, "- N/A -   "
3.23, 84.92217, 0.00553129, NaN, NaN, NaN, 0.0433376, "- N/A -   "
3.25, 85.62987, 0.005570164, NaN, NaN, NaN, 0.04089605, "- N/A -   "
3.27, 86.33755, 0.00560904, NaN, NaN, NaN, 0.0396753, "- N/A -   "
3.29, 86.92729, 0.00564236, NaN, NaN, NaN, 0.0384545, "- N/A -   "
3.31, 87.63497, 0.00567846, NaN, NaN, NaN, 0.0372337, "- N/A -   "
3.33, 88.34265, 0.00572011, NaN, NaN, NaN, 0.0347922, "- N/A -   "
3.35, 89.05035, 0.00575343, NaN, NaN, NaN, 0.0335714, "- N/A -   "
3.37, 89.758, 0.00578953, NaN, NaN, NaN, 0.0323506, "- N/A -   "
3.39, 90.22981, 0.005820072, NaN, NaN, NaN, 0.0335714, "- N/A -   "
3.41, 90.81956, 0.005850616, NaN, NaN, NaN, 0.0347922, "- N/A -   "
3.43, 91.52724, 0.005886714, NaN, NaN, NaN, 0.0335714, "- N/A -   "
3.45, 92.23492, 0.00592281, NaN, NaN, NaN, 0.0323506, "- N/A -   "
3.47, 92.94261, 0.005961686, NaN, NaN, NaN, 0.0299091, "- N/A -   "
3.49, 93.65029, 0.005997784, NaN, NaN, NaN, 0.0286883, "- N/A -   "
3.51, 94.24, 0.006031105, NaN, NaN, NaN, 0.0286883, "- N/A -   "
3.53, 94.9477, 0.006069979, NaN, NaN, NaN, 0.0286883, "- N/A -   "
3.55, 95.5374, 0.0061033, NaN, NaN, NaN, 0.0274675, "- N/A -   "
3.57, 96.24514, 0.00613662, NaN, NaN, NaN, 0.0274675, "- N/A -   "
3.59, 96.71693, 0.006164389, NaN, NaN, NaN, 0.0299091, "- N/A -   "
3.61, 97.18872, 0.006192156, NaN, NaN, NaN, 0.0323506, "- N/A -   "
3.63, 97.6605, 0.006222701, NaN, NaN, NaN, 0.0347922, "- N/A -   "
3.65, 98.3682, 0.00625325, NaN, NaN, NaN, 0.03601294, "- N/A -   "
3.67, 98.9579, 0.006281012, NaN, NaN, NaN, 0.0372337, "- N/A -   "
3.69, 99.42972, 0.006311557, NaN, NaN, NaN, 0.0384545, "- N/A -   "
3.71, 100.019, 0.006339324, NaN, NaN, NaN, 0.04089605, "- N/A -   "
3.73, 100.491, 0.00636987, NaN, NaN, NaN, 0.0433376, "- N/A -   "
3.75, 101.199, 0.006400413, NaN, NaN, NaN, 0.0433376, "- N/A -   "
3.77, 101.789, 0.006433734, NaN, NaN, NaN, 0.0445584, "- N/A -   "
3.79, 102.496, 0.006467055, NaN, NaN, NaN, 0.0433376, "- N/A -   "
3.81, 103.086, 0.006500376, NaN, NaN, NaN, 0.0433376, "- N/A -   "
3.83, 103.794, 0.0065337, NaN, NaN, NaN, 0.0433376, "- N/A -   "
3.85, 104.384, 0.006567018, NaN, NaN, NaN, 0.0445584, "- N/A -   "
3.87, 105.091, 0.006597562, NaN, NaN, NaN, 0.0445584, "- N/A -   "
3.89, 105.563, 0.00663088, NaN, NaN, NaN, 0.04577916, "- N/A -   "
3.91, 106.271, 0.00666143, NaN, NaN, NaN, 0.04577916, "- N/A -   "
3.93, 106.978, 0.0067003, NaN, NaN, NaN, 0.0445584, "- N/A -   "
3.95, 107.804, 0.00673362, NaN, NaN, NaN, 0.0433376, "- N/A -   "
3.97, 108.512, 0.00676972, NaN, NaN, NaN, 0.04211683, "- N/A -   "
3.99, 109.3373, 0.00681137, NaN, NaN, NaN, 0.0384545, "- N/A -   "
4.01, 110.163, 0.0068558, NaN, NaN, NaN, 0.0347922, "- N/A -   "
4.03, 110.989, 0.00689467, NaN, NaN, NaN, 0.03112983, "- N/A -   "
4.05, 111.696, 0.00693077, NaN, NaN, NaN, 0.0299091, "- N/A -   "
4.07, 112.286, 0.00696409, NaN, NaN, NaN, 0.0299091, "- N/A -   "
4.09, 112.876, 0.00699464, NaN, NaN, NaN, 0.03112983, "- N/A -   "
4.11, 113.583, 0.00703074, NaN, NaN, NaN, 0.03112983, "- N/A -   "
4.13, 114.2911, 0.00706683, NaN, NaN, NaN, 0.0299091, "- N/A -   "
4.15, 114.999, 0.00710293, NaN, NaN, NaN, 0.0286883, "- N/A -   "
4.17, 115.589, 0.00713348, NaN, NaN, NaN, 0.0286883, "- N/A -   "
4.19, 116.06, 0.007161243, NaN, NaN, NaN, 0.03112983, "- N/A -   "
4.21, 116.65, 0.00718901, NaN, NaN, NaN, 0.0335714, "- N/A -   "
4.23, 117.358, 0.00722233, NaN, NaN, NaN, 0.0335714, "- N/A -   "
4.25, 118.065, 0.00725565, NaN, NaN, NaN, 0.0335714, "- N/A -   "
4.27, 118.537, 0.0072862, NaN, NaN, NaN, 0.0347922, "- N/A -   "
4.29, 119.127, 0.007319518, NaN, NaN, NaN, 0.03601294, "- N/A -   "
4.31, 119.835, 0.00735284, NaN, NaN, NaN, 0.03601294, "- N/A -   "
4.33, 120.424, 0.00738616, NaN, NaN, NaN, 0.0347922, "- N/A -   "
4.35, 121.132, 0.007419481, NaN, NaN, NaN, 0.0347922, "- N/A -   "
4.37, 121.84, 0.007452802, NaN, NaN, NaN, 0.0347922, "- N/A -   "
4.39, 122.312, 0.00748057, NaN, NaN, NaN, 0.0372337, "- N/A -   "
4.41, 122.783, 0.007511114, NaN, NaN, NaN, 0.0396753, "- N/A -   "
4.43, 123.373, 0.007536105, NaN, NaN, NaN, 0.04211683, "- N/A -   "
4.45, 123.845, 0.007563872, NaN, NaN, NaN, 0.0445584, "- N/A -   "
4.47, 124.435, 0.007594416, NaN, NaN, NaN, 0.04577916, "- N/A -   "
4.49, 125.024, 0.007624961, NaN, NaN, NaN, 0.04699994, "- N/A -   "
4.51, 125.614, 0.007658282, NaN, NaN, NaN, 0.0482207, "- N/A -   "
4.53, 126.204, 0.007688826, NaN, NaN, NaN, 0.0482207, "- N/A -   "
4.55, 127.029, 0.007724924, NaN, NaN, NaN, 0.04699994, "- N/A -   "
4.57, 127.737, 0.007763798, NaN, NaN, NaN, 0.04577916, "- N/A -   "
4.59, 128.563, 0.00780267, NaN, NaN, NaN, 0.0433376, "- N/A -   "
4.61, 129.27, 0.007841547, NaN, NaN, NaN, 0.0396753, "- N/A -   "
4.63, 130.096, 0.007880422, NaN, NaN, NaN, 0.0372337, "- N/A -   "
4.65, 130.922, 0.007919297, NaN, NaN, NaN, 0.0347922, "- N/A -   "
4.67, 131.511, 0.007955394, NaN, NaN, NaN, 0.0335714, "- N/A -   "
4.69, 132.219, 0.007994268, NaN, NaN, NaN, 0.0323506, "- N/A -   "
4.71, 132.9268, 0.008030366, NaN, NaN, NaN, 0.0299091, "- N/A -   "
4.73, 133.517, 0.008063687, NaN, NaN, NaN, 0.0299091, "- N/A -   "
4.75, 134.106, 0.008094232, NaN, NaN, NaN, 0.03112983, "- N/A -   "
4.77, 134.696, 0.008124776, NaN, NaN, NaN, 0.0323506, "- N/A -   "
4.79, 135.286, 0.00815532, NaN, NaN, NaN, 0.0335714, "- N/A -   "
4.81, 135.758, 0.008183087, NaN, NaN, NaN, 0.03601294, "- N/A -   "
4.83, 136.229, 0.008213632, NaN, NaN, NaN, 0.0372337, "- N/A -   "
4.85, 136.819, 0.008246954, NaN, NaN, NaN, 0.0372337, "- N/A -   "
4.87, 137.6447, 0.008283051, NaN, NaN, NaN, 0.03601294, "- N/A -   "
4.89, 138.352, 0.008319149, NaN, NaN, NaN, 0.0347922, "- N/A -   "
4.91, 139.06, 0.008355246, NaN, NaN, NaN, 0.0335714, "- N/A -   "
4.93, 139.65, 0.008391344, NaN, NaN, NaN, 0.0323506, "- N/A -   "
4.95, 140.357, 0.008424665, NaN, NaN, NaN, 0.0323506, "- N/A -   "
4.97, 141.065, 0.008460763, NaN, NaN, NaN, 0.03112983, "- N/A -   "
4.99, 141.419, 0.00849131, NaN, NaN, NaN, 0.0335714, "- N/A -   "
5.01, 142.1267, 0.008521851, NaN, NaN, NaN, 0.0347922, "- N/A -   "
5.03, 142.716, 0.008552396, NaN, NaN, NaN, 0.0347922, "- N/A -   "
5.05, 143.306, 0.008582939, NaN, NaN, NaN, 0.03601294, "- N/A -   "
5.07, 143.778, 0.008613484, NaN, NaN, NaN, 0.0372337, "- N/A -   "
5.09, 144.368, 0.008641251, NaN, NaN, NaN, 0.0396753, "- N/A -   "
5.11, 144.957, 0.008671796, NaN, NaN, NaN, 0.04089605, "- N/A -   "
5.13, 145.547, 0.008705117, NaN, NaN, NaN, 0.04089605, "- N/A -   "
5.15, 146.255, 0.008741215, NaN, NaN, NaN, 0.0396753, "- N/A -   "
5.17, 146.963, 0.008777313, NaN, NaN, NaN, 0.0396753, "- N/A -   "
5.19, 147.552, 0.008807857, NaN, NaN, NaN, 0.0396753, "- N/A -   "
5.21, 148.142, 0.008841177, NaN, NaN, NaN, 0.0396753, "- N/A -   "
5.23, 148.732, 0.008874499, NaN, NaN, NaN, 0.04089605, "- N/A -   "
5.25, 149.3215, 0.00890782, NaN, NaN, NaN, 0.04089605, "- N/A -   "
5.27, 150.029, 0.008943918, NaN, NaN, NaN, 0.0396753, "- N/A -   "
5.29, 150.737, 0.008980015, NaN, NaN, NaN, 0.0384545, "- N/A -   "
5.31, 151.327, 0.009013337, NaN, NaN, NaN, 0.0372337, "- N/A -   "
5.33, 152.034, 0.009046658, NaN, NaN, NaN, 0.0372337, "- N/A -   "
5.35, 152.506, 0.009079979, NaN, NaN, NaN, 0.0372337, "- N/A -   "
5.37, 153.214, 0.0091133, NaN, NaN, NaN, 0.0384545, "- N/A -   "
5.39, 153.8035, 0.00914662, NaN, NaN, NaN, 0.0372337, "- N/A -   "
5.41, 154.511, 0.009185495, NaN, NaN, NaN, 0.03601294, "- N/A -   "
5.43, 155.101, 0.009216039, NaN, NaN, NaN, 0.03601294, "- N/A -   "
5.45, 155.573, 0.009252137, NaN, NaN, NaN, 0.03601294, "- N/A -   "
5.47, 156.2804, 0.009285458, NaN, NaN, NaN, 0.0347922, "- N/A -   "
5.49, 156.988, 0.009321556, NaN, NaN, NaN, 0.0335714, "- N/A -   "
5.51, 157.696, 0.009357654, NaN, NaN, NaN, 0.0323506, "- N/A -   "
5.53, 158.2855, 0.009390975, NaN, NaN, NaN, 0.0323506, "- N/A -   "
5.55, 158.9932, 0.009424296, NaN, NaN, NaN, 0.0323506, "- N/A -   "
5.57, 159.465, 0.009457617, NaN, NaN, NaN, 0.0323506, "- N/A -   "
5.59, 160.055, 0.009490938, NaN, NaN, NaN, 0.0335714, "- N/A -   "
5.61, 160.644, 0.009518705, NaN, NaN, NaN, 0.0347922, "- N/A -   "
5.63, 161.352, 0.009554803, NaN, NaN, NaN, 0.0335714, "- N/A -   "
5.65, 161.942, 0.009588123, NaN, NaN, NaN, 0.0335714, "- N/A -   "
5.67, 162.532, 0.009624222, NaN, NaN, NaN, 0.0335714, "- N/A -   "
5.69, 163.2393, 0.009654766, NaN, NaN, NaN, 0.0335714, "- N/A -   "
5.71, 163.711, 0.009690864, NaN, NaN, NaN, 0.0323506, "- N/A -   "
5.73, 164.419, 0.009724186, NaN, NaN, NaN, 0.0323506, "- N/A -   "
5.75, 165.126, 0.009757506, NaN, NaN, NaN, 0.0323506, "- N/A -   "
5.77, 165.4803, 0.009785274, NaN, NaN, NaN, 0.0347922, "- N/A -   "
5.79, 165.952, 0.009813041, NaN, NaN, NaN, 0.0372337, "- N/A -   "
5.81, 166.542, 0.009843586, NaN, NaN, NaN, 0.0384545, "- N/A -   "
5.83, 167.132, 0.00987413, NaN, NaN, NaN, 0.0396753, "- N/A -   "
5.85, 167.603, 0.009904674, NaN, NaN, NaN, 0.04089605, "- N/A -   "
5.87, 168.193, 0.009937996, NaN, NaN, NaN, 0.04211683, "- N/A -   "
5.89, 168.901, 0.00996854, NaN, NaN, NaN, 0.04211683, "- N/A -   "
5.91, 169.491, 0.0100019, NaN, NaN, NaN, 0.04211683, "- N/A -   "
5.93, 169.962, 0.0100324, NaN, NaN, NaN, 0.0445584, "- N/A -   "
5.95, 170.788, 0.0100657, NaN, NaN, NaN, 0.0433376, "- N/A -   "
5.97, 171.378, 0.0101018, NaN, NaN, NaN, 0.04211683, "- N/A -   "
5.99, 171.9674, 0.0101351, NaN, NaN, NaN, 0.04211683, "- N/A -   "
6.01, 172.557, 0.0101712, NaN, NaN, NaN, 0.04089605, "- N/A -   "
6.03, 173.383, 0.0102101, NaN, NaN, NaN, 0.0396753, "- N/A -   "
6.05, 174.09, 0.010249, NaN, NaN, NaN, 0.0372337, "- N/A -   "
6.07, 174.798, 0.01028509, NaN, NaN, NaN, 0.0347922, "- N/A -   "
6.09, 175.506, 0.01032674, NaN, NaN, NaN, 0.0323506, "- N/A -   "
6.11, 176.096, 0.0103601, NaN, NaN, NaN, 0.0323506, "- N/A -   "
6.13, 176.6853, 0.0103934, NaN, NaN, NaN, 0.0323506, "- N/A -   "
6.15, 177.1571, 0.01042115, NaN, NaN, NaN, 0.0335714, "- N/A -   "
6.17, 177.865, 0.0104517, NaN, NaN, NaN, 0.0347922, "- N/A -   "
6.19, 178.337, 0.0104822, NaN, NaN, NaN, 0.03601294, "- N/A -   "
6.21, 179.044, 0.01051556, NaN, NaN, NaN, 0.0372337, "- N/A -   "
6.23, 179.634, 0.01054888, NaN, NaN, NaN, 0.03601294, "- N/A -   "
6.25, 180.342, 0.0105878, NaN, NaN, NaN, 0.0347922, "- N/A -   "
6.27, 180.931, 0.0106239, NaN, NaN, NaN, 0.0323506, "- N/A -   "
6.29, 181.757, 0.0106655, NaN, NaN, NaN, 0.0299091, "- N/A -   "
6.31, 182.465, 0.0107016, NaN, NaN, NaN, 0.0274675, "- N/A -   "
6.33, 183.172, 0.0107377, NaN, NaN, NaN, 0.0274675, "- N/A -   "
6.35, 183.644, 0.0107655, NaN, NaN, NaN, 0.0286883, "- N/A -   "
6.37, 184.116, 0.010796, NaN, NaN, NaN, 0.0299091, "- N/A -   "
6.39, 184.5878, 0.0108266, NaN, NaN, NaN, 0.03112983, "- N/A -   "
6.41, 185.178, 0.0108571, NaN, NaN, NaN, 0.0335714, "- N/A -   "
6.43, 185.767, 0.0108849, NaN, NaN, NaN, 0.0347922, "- N/A -   "
6.45, 186.121, 0.0109126, NaN, NaN, NaN, 0.0372337, "- N/A -   "
6.47, 186.593, 0.0109404, NaN, NaN, NaN, 0.04089605, "- N/A -   "
6.49, 187.183, 0.0109654, NaN, NaN, NaN, 0.0433376, "- N/A -   "
6.51, 187.654, 0.0109987, NaN, NaN, NaN, 0.0445584, "- N/A -   "
6.53, 188.3621, 0.011032, NaN, NaN, NaN, 0.0445584, "- N/A -   "
6.55, 188.834, 0.01106258, NaN, NaN, NaN, 0.0445584, "- N/A -   "
6.57, 189.5416, 0.0110931, NaN, NaN, NaN, 0.04577916, "- N/A -   "
6.59, 190.013, 0.0111237, NaN, NaN, NaN, 0.04699994, "- N/A -   "
6.61, 190.721, 0.0111625, NaN, NaN, NaN, 0.04577916, "- N/A -   "
6.63, 191.547, 0.0111986, NaN, NaN, NaN, 0.0433376, "- N/A -   "
6.65, 192.136, 0.0112347, NaN, NaN, NaN, 0.04211683, "- N/A -   "
6.67, 193.08, 0.0112736, NaN, NaN, NaN, 0.0396753, "- N/A -   "
6.69, 193.67, 0.0113125, NaN, NaN, NaN, 0.0372337, "- N/A -   "
6.71, 194.377, 0.0113458, NaN, NaN, NaN, 0.0372337, "- N/A -   "
6.73, 195.085, 0.0113847, NaN, NaN, NaN, 0.03601294, "- N/A -   "
6.75, 195.675, 0.011418, NaN, NaN, NaN, 0.0347922, "- N/A -   "
6.77, 196.383, 0.0114541, NaN, NaN, NaN, 0.0347922, "- N/A -   "
6.79, 196.972, 0.0114874, NaN, NaN, NaN, 0.0347922, "- N/A -   "
6.81, 197.562, 0.0115207, NaN, NaN, NaN, 0.0335714, "- N/A -   "
6.83, 198.388, 0.0115568, NaN, NaN, NaN, 0.0323506, "- N/A -   "
6.85, 199.095, 0.0115929, NaN, NaN, NaN, 0.03112983, "- N/A -   "
6.87, 199.567, 0.0116263, NaN, NaN, NaN, 0.03112983, "- N/A -   "
6.89, 200.275, 0.0116624, NaN, NaN, NaN, 0.0299091, "- N/A -   "
6.91, 200.865, 0.0116957, NaN, NaN, NaN, 0.0299091, "- N/A -   "
6.93, 201.572, 0.0117318, NaN, NaN, NaN, 0.0299091, "- N/A -   "
6.95, 202.162, 0.0117679, NaN, NaN, NaN, 0.0274675, "- N/A -   "
6.97, 202.9876, 0.0118012, NaN, NaN, NaN, 0.0274675, "- N/A -   "
6.99, 203.577, 0.0118345, NaN, NaN, NaN, 0.0286883, "- N/A -   "
7.01, 204.049, 0.0118623, NaN, NaN, NaN, 0.0299091, "- N/A -   "
7.03, 204.639, 0.0118928, NaN, NaN, NaN, 0.03112983, "- N/A -   "
7.05, 205.111, 0.0119234, NaN, NaN, NaN, 0.0323506, "- N/A -   "
7.07, 205.7, 0.0119539, NaN, NaN, NaN, 0.0347922, "- N/A -   "
7.09, 206.172, 0.0119817, NaN, NaN, NaN, 0.03601294, "- N/A -   "
7.11, 206.644, 0.0120095, NaN, NaN, NaN, 0.0384545, "- N/A -   "
7.13, 207.2337, 0.0120372, NaN, NaN, NaN, 0.04211683, "- N/A -   "
7.15, 207.823, 0.0120678, NaN, NaN, NaN, 0.04211683, "- N/A -   "
7.17, 208.531, 0.0120983, NaN, NaN, NaN, 0.0433376, "- N/A -   "
7.19, 209.003, 0.0121316, NaN, NaN, NaN, 0.0445584, "- N/A -   "
7.21, 209.711, 0.0121649, NaN, NaN, NaN, 0.0445584, "- N/A -   "
7.23, 210.3, 0.0121983, NaN, NaN, NaN, 0.0433376, "- N/A -   "
7.25, 211.008, 0.0122288, NaN, NaN, NaN, 0.0445584, "- N/A -   "
7.27, 211.598, 0.0122649, NaN, NaN, NaN, 0.0433376, "- N/A -   "
7.29, 212.305, 0.0122982, NaN, NaN, NaN, 0.0433376, "- N/A -   "
7.31, 213.013, 0.0123343, NaN, NaN, NaN, 0.04211683, "- N/A -   "
7.33, 213.721, 0.01237043, NaN, NaN, NaN, 0.04089605, "- N/A -   "
7.35, 214.4285, 0.0124093, NaN, NaN, NaN, 0.0384545, "- N/A -   "
7.37, 215.254, 0.0124454, NaN, NaN, NaN, 0.0372337, "- N/A -   "
7.39, 215.962, 0.0124815, NaN, NaN, NaN, 0.03601294, "- N/A -   "
7.41, 216.67, 0.0125232, NaN, NaN, NaN, 0.0335714, "- N/A -   "
7.43, 217.377, 0.0125592, NaN, NaN, NaN, 0.03112983, "- N/A -   "
7.45, 218.203, 0.0125953, NaN, NaN, NaN, 0.0299091, "- N/A -   "
7.47, 218.9105, 0.0126342, NaN, NaN, NaN, 0.0274675, "- N/A -   "
7.49, 219.6182, 0.0126675, NaN, NaN, NaN, 0.0274675, "- N/A -   "
7.51, 220.09, 0.0127009, NaN, NaN, NaN, 0.0274675, "- N/A -   "
7.53, 220.68, 0.0127342, NaN, NaN, NaN, 0.0286883, "- N/A -   "
7.55, 221.269, 0.012762, NaN, NaN, NaN, 0.0299091, "- N/A -   "
7.57, 221.977, 0.0127953, NaN, NaN, NaN, 0.03112983, "- N/A -   "
7.59, 222.567, 0.0128258, NaN, NaN, NaN, 0.03112983, "- N/A -   "
7.61, 223.039, 0.0128536, NaN, NaN, NaN, 0.0335714, "- N/A -   "
7.63, 223.6284, 0.01288413, NaN, NaN, NaN, 0.0347922, "- N/A -   "
7.65, 224.454, 0.01291745, NaN, NaN, NaN, 0.0347922, "- N/A -   "
7.67, 225.044, 0.0129508, NaN, NaN, NaN, 0.0347922, "- N/A -   "
7.69, 225.751, 0.0129869, NaN, NaN, NaN, 0.0347922, "- N/A -   "
7.71, 226.3412, 0.01302019, NaN, NaN, NaN, 0.0335714, "- N/A -   "
7.73, 227.049, 0.0130507, NaN, NaN, NaN, 0.0347922, "- N/A -   "
7.75, 227.639, 0.0130868, NaN, NaN, NaN, 0.0347922, "- N/A -   "
7.77, 228.464, 0.0131174, NaN, NaN, NaN, 0.0347922, "- N/A -   "
7.79, 228.936, 0.01314792, NaN, NaN, NaN, 0.03601294, "- N/A -   "
7.81, 229.526, 0.0131757, NaN, NaN, NaN, 0.0384545, "- N/A -   "
7.83, 230.116, 0.0132035, NaN, NaN, NaN, 0.04089605, "- N/A -   "
7.85, 230.587, 0.013234, NaN, NaN, NaN, 0.04211683, "- N/A -   "
7.87, 231.295, 0.0132673, NaN, NaN, NaN, 0.0433376, "- N/A -   "
7.89, 231.885, 0.0133006, NaN, NaN, NaN, 0.0433376, "- N/A -   "
7.91, 232.474, 0.0133312, NaN, NaN, NaN, 0.0445584, "- N/A -   "
7.93, 233.0642, 0.0133617, NaN, NaN, NaN, 0.0445584, "- N/A -   "
7.95, 233.89, 0.0133978, NaN, NaN, NaN, 0.0445584, "- N/A -   "
7.97, 234.598, 0.01343115, NaN, NaN, NaN, 0.0433376, "- N/A -   "
7.99, 235.3052, 0.0134672, NaN, NaN, NaN, 0.04211683, "- N/A -   "
8.01, 236.131, 0.0135089, NaN, NaN, NaN, 0.0384545, "- N/A -   "
8.03, 236.839, 0.013545, NaN, NaN, NaN, 0.0372337, "- N/A -   "
8.05, 237.664, 0.0135866, NaN, NaN, NaN, 0.0347922, "- N/A -   "
8.07, 238.608, 0.0136255, NaN, NaN, NaN, 0.0323506, "- N/A -   "
8.09, 239.197, 0.0136644, NaN, NaN, NaN, 0.03112983, "- N/A -   "
8.11, 240.0231, 0.0136977, NaN, NaN, NaN, 0.03112983, "- N/A -   "
8.13, 240.613, 0.013731, NaN, NaN, NaN, 0.0299091, "- N/A -   "
8.15, 241.321, 0.01376436, NaN, NaN, NaN, 0.03112983, "- N/A -   "
8.17, 241.91, 0.0137921, NaN, NaN, NaN, 0.0323506, "- N/A -   "
8.19, 242.5, 0.0138199, NaN, NaN, NaN, 0.0347922, "- N/A -   "
8.21, 243.089, 0.0138532, NaN, NaN, NaN, 0.0347922, "- N/A -   "
8.23, 243.678, 0.01388376, NaN, NaN, NaN, 0.03601294, "- N/A -   "
8.25, 244.2674, 0.0139171, NaN, NaN, NaN, 0.03601294, "- N/A -   "
8.27, 244.974, 0.0139504, NaN, NaN, NaN, 0.03601294, "- N/A -   "
8.29, 245.6813, 0.0139837, NaN, NaN, NaN, 0.03601294, "- N/A -   "
8.31, 246.388, 0.0140226, NaN, NaN, NaN, 0.0347922, "- N/A -   "
8.33, 247.213, 0.0140615, NaN, NaN, NaN, 0.0323506, "- N/A -   "
8.35, 247.92, 0.0140948, NaN, NaN, NaN, 0.03112983, "- N/A -   "
8.37, 248.627, 0.01413089, NaN, NaN, NaN, 0.03112983, "- N/A -   "
8.39, 249.334, 0.0141587, NaN, NaN, NaN, 0.0323506, "- N/A -   "
8.41, 249.923, 0.0141892, NaN, NaN, NaN, 0.0335714, "- N/A -   "
8.43, 250.394, 0.0142197, NaN, NaN, NaN, 0.03601294, "- N/A -   "
8.45, 250.983, 0.0142475, NaN, NaN, NaN, 0.0372337, "- N/A -   "
8.47, 251.5726, 0.0142753, NaN, NaN, NaN, 0.0396753, "- N/A -   "
8.49, 252.162, 0.0143058, NaN, NaN, NaN, 0.04089605, "- N/A -   "
8.51, 252.751, 0.0143364, NaN, NaN, NaN, 0.04211683, "- N/A -   "
8.53, 253.34, 0.0143697, NaN, NaN, NaN, 0.0433376, "- N/A -   "
8.55, 254.165, 0.014403, NaN, NaN, NaN, 0.0433376, "- N/A -   "
8.57, 254.872, 0.0144391, NaN, NaN, NaN, 0.04211683, "- N/A -   "
8.59, 255.579, 0.0144697, NaN, NaN, NaN, 0.04211683, "- N/A -   "
8.61, 256.168, 0.0145058, NaN, NaN, NaN, 0.04089605, "- N/A -   "
8.63, 256.9926, 0.0145391, NaN, NaN, NaN, 0.04089605, "- N/A -   "
8.65, 257.6996, 0.0145724, NaN, NaN, NaN, 0.04089605, "- N/A -   "
8.67, 258.2887, 0.0146085, NaN, NaN, NaN, 0.04089605, "- N/A -   "
8.69, 258.996, 0.014639, NaN, NaN, NaN, 0.04089605, "- N/A -   "
8.71, 259.82, 0.0146779, NaN, NaN, NaN, 0.0384545, "- N/A -   "
8.73, 260.6452, 0.0147168, NaN, NaN, NaN, 0.0372337, "- N/A -   "
8.75, 261.352, 0.0147501, NaN, NaN, NaN, 0.03601294, "- N/A -   "
8.77, 262.059, 0.0147862, NaN, NaN, NaN, 0.0347922, "- N/A -   "
8.79, 262.766, 0.0148195, NaN, NaN, NaN, 0.0347922, "- N/A -   "
8.8, 263.12, 0.014839, NaN, NaN, NaN, 0.0347922, "- N/A -   "
8.81, 263.473, 0.0148528, NaN, NaN, NaN, 0.0347922, "- N/A -   "
8.82, 263.8265, 0.0148695, NaN, NaN, NaN, 0.0347922, "- N/A -   "
8.83, 264.0622, 0.0148862, NaN, NaN, NaN, 0.03601294, "- N/A -   "
8.84, 264.533, 0.0149028, NaN, NaN, NaN, 0.0347922, "- N/A -   "
8.85, 264.769, 0.0149195, NaN, NaN, NaN, 0.0347922, "- N/A -   "
8.86, 265.0048, 0.0149361, NaN, NaN, NaN, 0.0347922, "- N/A -   "
8.87, 265.476, 0.01495281, NaN, NaN, NaN, 0.03601294, "- N/A -   "
8.88, 265.712, 0.0149695, NaN, NaN, NaN, 0.0347922, "- N/A -   "
8.89, 266.183, 0.0149889, NaN, NaN, NaN, 0.0347922, "- N/A -   "
8.9, 266.4187, 0.0150056, NaN, NaN, NaN, 0.0335714, "- N/A -   "
8.91, 266.89, 0.0150222, NaN, NaN, NaN, 0.0335714, "- N/A -   "
8.92, 267.3613, 0.0150417, NaN, NaN, NaN, 0.0335714, "- N/A -   "
8.93, 267.597, 0.0150583, NaN, NaN, NaN, 0.0323506, "- N/A -   "
8.94, 268.068, 0.015075, NaN, NaN, NaN, 0.0323506, "- N/A -   "
8.95, 268.304, 0.0150889, NaN, NaN, NaN, 0.0335714, "- N/A -   "
8.96, 268.657, 0.0151055, NaN, NaN, NaN, 0.0347922, "- N/A -   "
8.97, 269.011, 0.0151194, NaN, NaN, NaN, 0.0347922, "- N/A -   "
8.98, 269.247, 0.0151361, NaN, NaN, NaN, 0.0347922, "- N/A -   "
8.99, 269.6, 0.0151527, NaN, NaN, NaN, 0.0347922, "- N/A -   "
9, 269.836, 0.0151694, NaN, NaN, NaN, 0.0347922, "- N/A -   "
9.01, 270.189, 0.0151833, NaN, NaN, NaN, 0.03601294, "- N/A -   "
9.02, 270.425, 0.01519994, NaN, NaN, NaN, 0.03601294, "- N/A -   "
9.03, 270.8961, 0.0152166, NaN, NaN, NaN, 0.03601294, "- N/A -   "
9.04, 271.367, 0.015236, NaN, NaN, NaN, 0.03601294, "- N/A -   "
9.05, 271.603, 0.0152527, NaN, NaN, NaN, 0.0347922, "- N/A -   "
9.06, 271.9565, 0.01526936, NaN, NaN, NaN, 0.0347922, "- N/A -   "
9.07, 272.31, 0.015286, NaN, NaN, NaN, 0.0347922, "- N/A -   "
9.08, 272.7813, 0.0152999, NaN, NaN, NaN, 0.03601294, "- N/A -   "
9.09, 272.899, 0.0153166, NaN, NaN, NaN, 0.0372337, "- N/A -   "
9.1, 273.253, 0.0153332, NaN, NaN, NaN, 0.0372337, "- N/A -   "
9.11, 273.606, 0.0153499, NaN, NaN, NaN, 0.0372337, "- N/A -   "
9.12, 273.96, 0.0153665, NaN, NaN, NaN, 0.03601294, "- N/A -   "
9.13, 274.195, 0.0153832, NaN, NaN, NaN, 0.03601294, "- N/A -   "
9.14, 274.549, 0.0153999, NaN, NaN, NaN, 0.0372337, "- N/A -   "
9.15, 275.02, 0.01541375, NaN, NaN, NaN, 0.0372337, "- N/A -   "
9.16, 275.256, 0.0154304, NaN, NaN, NaN, 0.0372337, "- N/A -   "
9.17, 275.609, 0.0154443, NaN, NaN, NaN, 0.0384545, "- N/A -   "
9.18, 275.963, 0.015461, NaN, NaN, NaN, 0.0384545, "- N/A -   "
9.19, 276.3161, 0.0154776, NaN, NaN, NaN, 0.0396753, "- N/A -   "
9.2, 276.552, 0.0154915, NaN, NaN, NaN, 0.0396753, "- N/A -   "
9.21, 276.9052, 0.01550816, NaN, NaN, NaN, 0.04089605, "- N/A -   "
9.22, 277.2587, 0.015522, NaN, NaN, NaN, 0.04089605, "- N/A -   "
9.23, 277.494, 0.0155415, NaN, NaN, NaN, 0.04089605, "- N/A -   "
9.24, 277.966, 0.0155581, NaN, NaN, NaN, 0.04089605, "- N/A -   "
9.25, 278.319, 0.0155748, NaN, NaN, NaN, 0.04089605, "- N/A -   "
9.26, 278.6726, 0.0155915, NaN, NaN, NaN, 0.0396753, "- N/A -   "
9.27, 278.908, 0.0156053, NaN, NaN, NaN, 0.04089605, "- N/A -   "
9.28, 279.38, 0.0156248, NaN, NaN, NaN, 0.0396753, "- N/A -   "
9.29, 279.615, 0.0156414, NaN, NaN, NaN, 0.0396753, "- N/A -   "
9.3, 280.087, 0.0156581, NaN, NaN, NaN, 0.04089605, "- N/A -   "
9.31, 280.44, 0.0156748, NaN, NaN, NaN, 0.0396753, "- N/A -   "
9.32, 280.911, 0.0156914, NaN, NaN, NaN, 0.0396753, "- N/A -   "
9.33, 281.147, 0.0157109, NaN, NaN, NaN, 0.0396753, "- N/A -   "
9.34, 281.5, 0.0157247, NaN, NaN, NaN, 0.0396753, "- N/A -   "
9.35, 281.8539, 0.0157442, NaN, NaN, NaN, 0.0384545, "- N/A -   "
9.36, 282.325, 0.0157608, NaN, NaN, NaN, 0.0384545, "- N/A -   "
9.37, 282.6787, 0.0157803, NaN, NaN, NaN, 0.0384545, "- N/A -   "
9.38, 283.032, 0.0157969, NaN, NaN, NaN, 0.0372337, "- N/A -   "
9.39, 283.503, 0.01581638, NaN, NaN, NaN, 0.0372337, "- N/A -   "
9.4, 283.857, 0.015833, NaN, NaN, NaN, 0.0372337, "- N/A -   "
9.41, 284.21, 0.0158497, NaN, NaN, NaN, 0.03601294, "- N/A -   "
9.42, 284.446, 0.01586636, NaN, NaN, NaN, 0.03601294, "- N/A -   "
9.43, 284.8, 0.015883, NaN, NaN, NaN, 0.03601294, "- N/A -   "
9.44, 285.271, 0.0158997, NaN, NaN, NaN, 0.03601294, "- N/A -   "
9.45, 285.624, 0.0159163, NaN, NaN, NaN, 0.03601294, "- N/A -   "
9.46, 285.86, 0.01593578, NaN, NaN, NaN, 0.0347922, "- N/A -   "
9.47, 286.213, 0.01595244, NaN, NaN, NaN, 0.0347922, "- N/A -   "
9.48, 286.685, 0.0159691, NaN, NaN, NaN, 0.0347922, "- N/A -   "
9.49, 287.156, 0.0159913, NaN, NaN, NaN, 0.0335714, "- N/A -   "
9.5, 287.51, 0.016008, NaN, NaN, NaN, 0.0323506, "- N/A -   "
9.51, 287.863, 0.0160246, NaN, NaN, NaN, 0.0323506, "- N/A -   "
9.54, 288.806, 0.01607184, NaN, NaN, NaN, 0.0335714, "- N/A -   "
9.57, 289.63, 0.0161135, NaN, NaN, NaN, 0.0372337, "- N/A -   "
9.6, 290.573, 0.0161635, NaN, NaN, NaN, 0.0372337, "- N/A -   "
9.63, 291.633, 0.0162107, NaN, NaN, NaN, 0.0384545, "- N/A -   "
9.66, 292.576, 0.01626066, NaN, NaN, NaN, 0.0384545, "- N/A -   "
9.69, 293.754, 0.01631064, NaN, NaN, NaN, 0.0384545, "- N/A -   "
9.72, 294.9326, 0.0163662, NaN, NaN, NaN, 0.0372337, "- N/A -   "
9.75, 295.8752, 0.0164162, NaN, NaN, NaN, 0.03601294, "- N/A -   "
9.78, 297.0535, 0.0164689, NaN, NaN, NaN, 0.0347922, "- N/A -   "
9.81, 298.232, 0.0165217, NaN, NaN, NaN, 0.0335714, "- N/A -   "
9.84, 299.292, 0.0165689, NaN, NaN, NaN, 0.0347922, "- N/A -   "
9.87, 299.999, 0.01661053, NaN, NaN, NaN, 0.0384545, "- N/A -   "
9.9, 300.9417, 0.016655, NaN, NaN, NaN, 0.04211683, "- N/A -   "
9.93, 302.0022, 0.01670494, NaN, NaN, NaN, 0.04211683, "- N/A -   "
9.96, 303.063, 0.0167549, NaN, NaN, NaN, 0.04211683, "- N/A -   "
9.99, 304.123, 0.0168021, NaN, NaN, NaN, 0.0433376, "- N/A -   "
10.02, 305.183, 0.0168521, NaN, NaN, NaN, 0.04211683, "- N/A -   "
10.05, 306.362, 0.0169076, NaN, NaN, NaN, 0.04089605, "- N/A -   "
10.08, 307.658, 0.016966, NaN, NaN, NaN, 0.0372337, "- N/A -   "
10.11, 308.8361, 0.0170187, NaN, NaN, NaN, 0.0347922, "- N/A -   "
10.14, 309.8965, 0.0170742, NaN, NaN, NaN, 0.0335714, "- N/A -   "
10.17, 311.1926, 0.0171242, NaN, NaN, NaN, 0.0323506, "- N/A -   "
10.2, 312.135, 0.0171714, NaN, NaN, NaN, 0.0335714, "- N/A -   "
10.23, 313.078, 0.0172214, NaN, NaN, NaN, 0.0335714, "- N/A -   "
10.26, 314.492, 0.0172825, NaN, NaN, NaN, 0.0286883, "- N/A -   "
10.29, 315.67, 0.0173353, NaN, NaN, NaN, 0.0274675, "- N/A -   "
10.32, 316.6126, 0.0173825, NaN, NaN, NaN, 0.0286883, "- N/A -   "
10.35, 317.791, 0.0174297, NaN, NaN, NaN, 0.0299091, "- N/A -   "
10.38, 318.7335, 0.0174797, NaN, NaN, NaN, 0.0299091, "- N/A -   "
10.41, 319.7939, 0.01752686, NaN, NaN, NaN, 0.03112983, "- N/A -   "
10.44, 320.737, 0.0175713, NaN, NaN, NaN, 0.0335714, "- N/A -   "
10.47, 321.679, 0.0176157, NaN, NaN, NaN, 0.03601294, "- N/A -   "
10.5, 322.622, 0.0176601, NaN, NaN, NaN, 0.0384545, "- N/A -   "
10.53, 323.447, 0.01770457, NaN, NaN, NaN, 0.04089605, "- N/A -   "
10.56, 324.389, 0.0177462, NaN, NaN, NaN, 0.0445584, "- N/A -   "
10.59, 325.332, 0.0177934, NaN, NaN, NaN, 0.04699994, "- N/A -   "
10.62, 326.392, 0.0178434, NaN, NaN, NaN, 0.04577916, "- N/A -   "
10.65, 327.688, 0.0178962, NaN, NaN, NaN, 0.0445584, "- N/A -   "
10.68, 328.7487, 0.0179461, NaN, NaN, NaN, 0.04577916, "- N/A -   "
10.71, 329.927, 0.0179961, NaN, NaN, NaN, 0.0445584, "- N/A -   "
10.74, 331.105, 0.01805444, NaN, NaN, NaN, 0.04089605, "- N/A -   "
10.77, 332.4013, 0.0181072, NaN, NaN, NaN, 0.0396753, "- N/A -   "
10.8, 333.462, 0.0181627, NaN, NaN, NaN, 0.0372337, "- N/A -   "
10.83, 334.876, 0.0182238, NaN, NaN, NaN, 0.0335714, "- N/A -   "
10.86, 336.29, 0.0182821, NaN, NaN, NaN, 0.0286883, "- N/A -   "
10.89, 337.35, 0.0183377, NaN, NaN, NaN, 0.0262467, "- N/A -   "
10.92, 338.528, 0.0183849, NaN, NaN, NaN, 0.0274675, "- N/A -   "
10.95, 339.4709, 0.0184321, NaN, NaN, NaN, 0.0286883, "- N/A -   "
10.98, 340.5313, 0.0184821, NaN, NaN, NaN, 0.0286883, "- N/A -   "
11.01, 341.592, 0.0185265, NaN, NaN, NaN, 0.03112983, "- N/A -   "
11.04, 342.652, 0.0185737, NaN, NaN, NaN, 0.0323506, "- N/A -   "
11.07, 343.713, 0.0186237, NaN, NaN, NaN, 0.0335714, "- N/A -   "
11.1, 344.6552, 0.0186681, NaN, NaN, NaN, 0.0347922, "- N/A -   "
11.13, 345.716, 0.0187209, NaN, NaN, NaN, 0.0347922, "- N/A -   "
11.16, 346.894, 0.0187681, NaN, NaN, NaN, 0.0347922, "- N/A -   "
11.19, 347.954, 0.018818, NaN, NaN, NaN, 0.0347922, "- N/A -   "
11.22, 349.015, 0.0188625, NaN, NaN, NaN, 0.0372337, "- N/A -   "
11.25, 349.84, 0.0189069, NaN, NaN, NaN, 0.0396753, "- N/A -   "
11.28, 350.9, 0.0189513, NaN, NaN, NaN, 0.04211683, "- N/A -   "
11.31, 351.96, 0.01899576, NaN, NaN, NaN, 0.0445584, "- N/A -   "
11.34, 352.903, 0.019043, NaN, NaN, NaN, 0.04577916, "- N/A -   "
11.37, 354.081, 0.0190929, NaN, NaN, NaN, 0.04577916, "- N/A -   "
11.4, 355.3774, 0.01914848, NaN, NaN, NaN, 0.0433376, "- N/A -   "
11.43, 356.673, 0.0192068, NaN, NaN, NaN, 0.04089605, "- N/A -   "
11.46, 358.0874, 0.0192679, NaN, NaN, NaN, 0.0347922, "- N/A -   "
11.49, 359.383, 0.01932064, NaN, NaN, NaN, 0.0335714, "- N/A -   "
11.52, 360.562, 0.0193762, NaN, NaN, NaN, 0.0323506, "- N/A -   "
11.55, 361.74, 0.0194289, NaN, NaN, NaN, 0.0299091, "- N/A -   "
11.58, 362.8, 0.0194761, NaN, NaN, NaN, 0.03112983, "- N/A -   "
11.61, 363.743, 0.0195233, NaN, NaN, NaN, 0.0323506, "- N/A -   "
11.64, 364.9213, 0.0195705, NaN, NaN, NaN, 0.0335714, "- N/A -   "
11.67, 365.864, 0.0196178, NaN, NaN, NaN, 0.0347922, "- N/A -   "
11.7, 367.042, 0.01967051, NaN, NaN, NaN, 0.0335714, "- N/A -   "
[...]
19.11, 667.7382, 0.03202428, NaN, NaN, NaN, 0.0323506, "- N/A -   "
19.14, 669.0393, 0.032077, NaN, NaN, NaN, 0.03112983, "- N/A -   "
19.17, 670.3404, 0.03212702, NaN, NaN, NaN, 0.03112983, "- N/A -   "
19.2, 671.642, 0.032177, NaN, NaN, NaN, 0.03112983, "- N/A -   "
19.23, 672.943, 0.0322242, NaN, NaN, NaN, 0.0335714, "- N/A -   "
19.26, 674.007, 0.03227141, NaN, NaN, NaN, 0.0335714, "- N/A -   "
19.29, 675.308, 0.0323214, NaN, NaN, NaN, 0.0335714, "- N/A -   "
19.32, 676.6093, 0.0323714, NaN, NaN, NaN, 0.0335714, "- N/A -   "
19.35, 677.9104, 0.0324214, NaN, NaN, NaN, 0.0335714, "- N/A -   "
19.38, 679.3298, 0.0324741, NaN, NaN, NaN, 0.0335714, "- N/A -   "
19.41, 680.3943, 0.0325185, NaN, NaN, NaN, 0.0347922, "- N/A -   "
19.44, 681.3405, 0.0325602, NaN, NaN, NaN, 0.0384545, "- N/A -   "
19.47, 682.6416, 0.03260462, NaN, NaN, NaN, 0.04089605, "- N/A -   "
19.5, 683.8244, 0.0326574, NaN, NaN, NaN, 0.04089605, "- N/A -   "
19.53, 685.1255, 0.0327046, NaN, NaN, NaN, 0.04211683, "- N/A -   "
19.56, 686.19, 0.0327462, NaN, NaN, NaN, 0.0445584, "- N/A -   "
19.59, 687.491, 0.03279622, NaN, NaN, NaN, 0.04577916, "- N/A -   "
19.62, 688.7922, 0.032849, NaN, NaN, NaN, 0.0445584, "- N/A -   "
19.65, 690.3299, 0.0329017, NaN, NaN, NaN, 0.0433376, "- N/A -   "
19.68, 691.8675, 0.03296, NaN, NaN, NaN, 0.0384545, "- N/A -   "
19.71, 693.405, 0.0330211, NaN, NaN, NaN, 0.0347922, "- N/A -   "
19.74, 694.9429, 0.03307389, NaN, NaN, NaN, 0.0323506, "- N/A -   "
19.77, 696.0073, 0.0331211, NaN, NaN, NaN, 0.0335714, "- N/A -   "
19.8, 697.1901, 0.0331711, NaN, NaN, NaN, 0.0347922, "- N/A -   "
19.83, 698.373, 0.0332155, NaN, NaN, NaN, 0.03601294, "- N/A -   "
19.86, 699.7923, 0.03326549, NaN, NaN, NaN, 0.03601294, "- N/A -   "
19.89, 701.093, 0.0333182, NaN, NaN, NaN, 0.03601294, "- N/A -   "
19.92, 702.3945, 0.033371, NaN, NaN, NaN, 0.0335714, "- N/A -   "
19.95, 703.9321, 0.0334293, NaN, NaN, NaN, 0.03112983, "- N/A -   "
19.98, 705.352, 0.0334793, NaN, NaN, NaN, 0.0299091, "- N/A -   "
20.01, 706.534, 0.0335265, NaN, NaN, NaN, 0.03112983, "- N/A -   "
20.04, 707.7171, 0.0335737, NaN, NaN, NaN, 0.0323506, "- N/A -   "
20.07, 708.7817, 0.0336181, NaN, NaN, NaN, 0.0347922, "- N/A -   "
20.1, 709.8462, 0.0336598, NaN, NaN, NaN, 0.0396753, "- N/A -   "
20.13, 710.7925, 0.03369866, NaN, NaN, NaN, 0.0433376, "- N/A -   "
20.16, 712.0935, 0.03374864, NaN, NaN, NaN, 0.0445584, "- N/A -   "
20.19, 713.395, 0.03379585, NaN, NaN, NaN, 0.0445584, "- N/A -   "
20.22, 714.6957, 0.03384305, NaN, NaN, NaN, 0.04577916, "- N/A -   "
20.25, 715.9968, 0.03389859, NaN, NaN, NaN, 0.0445584, "- N/A -   "
20.28, 717.5344, 0.0339513, NaN, NaN, NaN, 0.04211683, "- N/A -   "
20.31, 718.8356, 0.0340041, NaN, NaN, NaN, 0.04089605, "- N/A -   "
20.34, 720.2549, 0.0340596, NaN, NaN, NaN, 0.0396753, "- N/A -   "
20.37, 721.7926, 0.0341152, NaN, NaN, NaN, 0.03601294, "- N/A -   "
20.4, 723.2119, 0.03416793, NaN, NaN, NaN, 0.0347922, "- N/A -   "
20.43, 724.6313, 0.0342207, NaN, NaN, NaN, 0.0347922, "- N/A -   "
20.46, 725.9324, 0.03427345, NaN, NaN, NaN, 0.0323506, "- N/A -   "
20.49, 727.47, 0.03433176, NaN, NaN, NaN, 0.0286883, "- N/A -   "
20.52, 728.889, 0.0343901, NaN, NaN, NaN, 0.0262467, "- N/A -   "
20.55, 730.3088, 0.0344401, NaN, NaN, NaN, 0.0250259, "- N/A -   "
20.58, 731.6099, 0.03449, NaN, NaN, NaN, 0.0262467, "- N/A -   "
20.61, 732.6744, 0.03453446, NaN, NaN, NaN, 0.0274675, "- N/A -   "
20.64, 733.8572, 0.03458167, NaN, NaN, NaN, 0.0299091, "- N/A -   "
20.67, 734.922, 0.0346261, NaN, NaN, NaN, 0.0323506, "- N/A -   "
20.7, 735.986, 0.03466775, NaN, NaN, NaN, 0.0347922, "- N/A -   "
20.73, 737.287, 0.0347122, NaN, NaN, NaN, 0.0372337, "- N/A -   "
20.76, 738.352, 0.03475938, NaN, NaN, NaN, 0.0396753, "- N/A -   "
20.79, 739.5347, 0.034801, NaN, NaN, NaN, 0.04211683, "- N/A -   "
20.82, 740.836, 0.0348482, NaN, NaN, NaN, 0.0433376, "- N/A -   "
20.85, 742.0186, 0.03489544, NaN, NaN, NaN, 0.0445584, "- N/A -   "
20.88, 743.4379, 0.0349482, NaN, NaN, NaN, 0.0433376, "- N/A -   "
20.91, 744.7391, 0.0349982, NaN, NaN, NaN, 0.0433376, "- N/A -   "
20.94, 746.0401, 0.03504816, NaN, NaN, NaN, 0.0433376, "- N/A -   "
20.97, 747.341, 0.0351009, NaN, NaN, NaN, 0.04211683, "- N/A -   "
21, 748.761, 0.0351509, NaN, NaN, NaN, 0.04211683, "- N/A -   "
21.03, 750.2983, 0.0352064, NaN, NaN, NaN, 0.0396753, "- N/A -   "
21.06, 751.954, 0.0352675, NaN, NaN, NaN, 0.03601294, "- N/A -   "
21.09, 753.4918, 0.0353258, NaN, NaN, NaN, 0.03112983, "- N/A -   "
21.12, 754.911, 0.0353814, NaN, NaN, NaN, 0.0286883, "- N/A -   "
21.15, 756.331, 0.0354286, NaN, NaN, NaN, 0.0299091, "- N/A -   "
21.18, 757.5134, 0.03547856, NaN, NaN, NaN, 0.03112983, "- N/A -   "
21.21, 758.5779, 0.03552576, NaN, NaN, NaN, 0.0323506, "- N/A -   "
21.24, 759.879, 0.03557019, NaN, NaN, NaN, 0.0335714, "- N/A -   "
21.27, 761.0618, 0.0356174, NaN, NaN, NaN, 0.0347922, "- N/A -   "
21.3, 762.363, 0.03566738, NaN, NaN, NaN, 0.03601294, "- N/A -   "
21.33, 763.664, 0.03571458, NaN, NaN, NaN, 0.0372337, "- N/A -   "
21.36, 765.0833, 0.0357646, NaN, NaN, NaN, 0.0372337, "- N/A -   "
21.39, 766.2662, 0.0358145, NaN, NaN, NaN, 0.03601294, "- N/A -   "
21.42, 767.5672, 0.0358618, NaN, NaN, NaN, 0.0372337, "- N/A -   "
21.45, 768.75, 0.035909, NaN, NaN, NaN, 0.0384545, "- N/A -   "
21.48, 769.933, 0.0359534, NaN, NaN, NaN, 0.04089605, "- N/A -   "
21.51, 770.997, 0.03599781, NaN, NaN, NaN, 0.0433376, "- N/A -   "
21.54, 772.1802, 0.036045, NaN, NaN, NaN, 0.0445584, "- N/A -   "
21.57, 773.4813, 0.03609222, NaN, NaN, NaN, 0.04577916, "- N/A -   "
21.6, 774.901, 0.03614498, NaN, NaN, NaN, 0.0445584, "- N/A -   "
21.63, 776.438, 0.0362005, NaN, NaN, NaN, 0.0433376, "- N/A -   "
21.66, 777.976, 0.0362616, NaN, NaN, NaN, 0.0384545, "- N/A -   "
21.69, 779.6319, 0.0363199, NaN, NaN, NaN, 0.03601294, "- N/A -   "
21.72, 780.933, 0.0363727, NaN, NaN, NaN, 0.0335714, "- N/A -   "
21.75, 782.471, 0.03642543, NaN, NaN, NaN, 0.0323506, "- N/A -   "
21.78, 783.89, 0.0364837, NaN, NaN, NaN, 0.0299091, "- N/A -   "
21.81, 785.0728, 0.03653095, NaN, NaN, NaN, 0.0299091, "- N/A -   "
21.84, 786.2557, 0.0365726, NaN, NaN, NaN, 0.0335714, "- N/A -   "
21.87, 787.4384, 0.0366198, NaN, NaN, NaN, 0.0347922, "- N/A -   "
21.9, 788.74, 0.0366726, NaN, NaN, NaN, 0.0347922, "- N/A -   "
21.93, 790.1589, 0.03672532, NaN, NaN, NaN, 0.0323506, "- N/A -   "
21.96, 791.5783, 0.0367753, NaN, NaN, NaN, 0.0323506, "- N/A -   "
21.99, 792.9976, 0.03683084, NaN, NaN, NaN, 0.03112983, "- N/A -   "
22.02, 794.299, 0.036878, NaN, NaN, NaN, 0.03112983, "- N/A -   "
22.05, 795.3632, 0.03692247, NaN, NaN, NaN, 0.0335714, "- N/A -   "
22.08, 796.428, 0.0369641, NaN, NaN, NaN, 0.0372337, "- N/A -   "
22.11, 797.6106, 0.0370113, NaN, NaN, NaN, 0.0396753, "- N/A -   "
22.14, 798.9116, 0.0370558, NaN, NaN, NaN, 0.04089605, "- N/A -   "
22.17, 799.9762, 0.03710296, NaN, NaN, NaN, 0.0433376, "- N/A -   "
22.2, 801.2773, 0.03715294, NaN, NaN, NaN, 0.04211683, "- N/A -   "
22.23, 802.697, 0.0372029, NaN, NaN, NaN, 0.04211683, "- N/A -   "
22.26, 803.998, 0.0372557, NaN, NaN, NaN, 0.04211683, "- N/A -   "
22.29, 805.4171, 0.03730566, NaN, NaN, NaN, 0.04089605, "- N/A -   "
22.32, 806.8365, 0.0373584, NaN, NaN, NaN, 0.0396753, "- N/A -   "
22.35, 808.1376, 0.0374084, NaN, NaN, NaN, 0.0396753, "- N/A -   "
22.38, 809.557, 0.03746116, NaN, NaN, NaN, 0.0384545, "- N/A -   "
22.41, 810.858, 0.03751392, NaN, NaN, NaN, 0.0384545, "- N/A -   "
22.44, 812.277, 0.0375639, NaN, NaN, NaN, 0.0372337, "- N/A -   "
22.47, 813.5785, 0.03761388, NaN, NaN, NaN, 0.0372337, "- N/A -   "
22.5, 814.88, 0.0376611, NaN, NaN, NaN, 0.0384545, "- N/A -   "
22.53, 816.0624, 0.0377111, NaN, NaN, NaN, 0.0384545, "- N/A -   "
22.56, 817.4818, 0.0377666, NaN, NaN, NaN, 0.0372337, "- N/A -   "
22.59, 818.9011, 0.03781936, NaN, NaN, NaN, 0.0347922, "- N/A -   "
22.62, 820.321, 0.03786934, NaN, NaN, NaN, 0.0347922, "- N/A -   "
22.65, 821.5033, 0.0379165, NaN, NaN, NaN, 0.03601294, "- N/A -   "
22.68, 822.804, 0.0379693, NaN, NaN, NaN, 0.0347922, "- N/A -   "
22.71, 824.342, 0.03802484, NaN, NaN, NaN, 0.0335714, "- N/A -   "
22.74, 825.6432, 0.0380748, NaN, NaN, NaN, 0.0335714, "- N/A -   "
22.77, 827.0625, 0.0381276, NaN, NaN, NaN, 0.03112983, "- N/A -   "
22.8, 828.245, 0.03817756, NaN, NaN, NaN, 0.03112983, "- N/A -   "
22.83, 829.4281, 0.03822199, NaN, NaN, NaN, 0.0335714, "- N/A -   "
22.86, 830.4927, 0.0382664, NaN, NaN, NaN, 0.0372337, "- N/A -   "
22.89, 831.6755, 0.0383108, NaN, NaN, NaN, 0.0384545, "- N/A -   "
22.92, 832.74, 0.0383525, NaN, NaN, NaN, 0.04211683, "- N/A -   "
22.95, 834.0411, 0.03840248, NaN, NaN, NaN, 0.0433376, "- N/A -   "
22.98, 835.2239, 0.0384469, NaN, NaN, NaN, 0.0445584, "- N/A -   "
23.01, 836.525, 0.03849689, NaN, NaN, NaN, 0.0445584, "- N/A -   "
23.04, 838.0626, 0.03855242, NaN, NaN, NaN, 0.0433376, "- N/A -   "
23.07, 839.482, 0.0386052, NaN, NaN, NaN, 0.04211683, "- N/A -   "
23.1, 841.02, 0.0386607, NaN, NaN, NaN, 0.0384545, "- N/A -   "
23.13, 842.5573, 0.038719, NaN, NaN, NaN, 0.03601294, "- N/A -   "
23.16, 844.095, 0.03877456, NaN, NaN, NaN, 0.0323506, "- N/A -   "
23.19, 845.396, 0.0388245, NaN, NaN, NaN, 0.0323506, "- N/A -   "
23.22, 846.697, 0.0388773, NaN, NaN, NaN, 0.0323506, "- N/A -   "
23.25, 848.116, 0.03893006, NaN, NaN, NaN, 0.0299091, "- N/A -   "
23.28, 849.4176, 0.03898004, NaN, NaN, NaN, 0.0299091, "- N/A -   "
23.31, 850.7187, 0.03903, NaN, NaN, NaN, 0.0299091, "- N/A -   "
23.34, 852.256, 0.0390883, NaN, NaN, NaN, 0.0262467, "- N/A -   "
23.37, 853.5574, 0.0391383, NaN, NaN, NaN, 0.0262467, "- N/A -   "
23.4, 854.74, 0.03918552, NaN, NaN, NaN, 0.0286883, "- N/A -   "
23.43, 855.923, 0.0392299, NaN, NaN, NaN, 0.0299091, "- N/A -   "
23.46, 857.2241, 0.0392744, NaN, NaN, NaN, 0.0323506, "- N/A -   "
23.49, 858.289, 0.0393188, NaN, NaN, NaN, 0.0347922, "- N/A -   "
23.52, 859.3532, 0.0393605, NaN, NaN, NaN, 0.0384545, "- N/A -   "
23.55, 860.4177, 0.03940488, NaN, NaN, NaN, 0.04211683, "- N/A -   "
23.58, 861.6, 0.03944931, NaN, NaN, NaN, 0.0433376, "- N/A -   "
23.61, 862.665, 0.03949374, NaN, NaN, NaN, 0.04577916, "- N/A -   "
23.64, 864.0844, 0.0395409, NaN, NaN, NaN, 0.04699994, "- N/A -   "
23.67, 865.3855, 0.0395937, NaN, NaN, NaN, 0.04699994, "- N/A -   "
23.7, 866.8049, 0.03964924, NaN, NaN, NaN, 0.0445584, "- N/A -   "
23.73, 868.4608, 0.0397048, NaN, NaN, NaN, 0.04089605, "- N/A -   "
23.76, 869.6437, 0.0397548, NaN, NaN, NaN, 0.04089605, "- N/A -   "
23.79, 871.3, 0.0398131, NaN, NaN, NaN, 0.0384545, "- N/A -   "
23.82, 872.719, 0.0398658, NaN, NaN, NaN, 0.03601294, "- N/A -   "
23.85, 874.02, 0.0399186, NaN, NaN, NaN, 0.0347922, "- N/A -   "
23.88, 875.3211, 0.0399686, NaN, NaN, NaN, 0.0347922, "- N/A -   "
23.91, 876.977, 0.0400241, NaN, NaN, NaN, 0.0323506, "- N/A -   "
23.94, 878.3964, 0.04007686, NaN, NaN, NaN, 0.03112983, "- N/A -   "
23.97, 879.579, 0.0401296, NaN, NaN, NaN, 0.03112983, "- N/A -   "
24, 880.8803, 0.0401796, NaN, NaN, NaN, 0.03112983, "- N/A -   "
24.03, 882.2996, 0.0402296, NaN, NaN, NaN, 0.0299091, "- N/A -   "
24.06, 883.601, 0.04027956, NaN, NaN, NaN, 0.0299091, "- N/A -   "
24.09, 884.784, 0.0403268, NaN, NaN, NaN, 0.0323506, "- N/A -   "
24.12, 885.9664, 0.0403712, NaN, NaN, NaN, 0.0335714, "- N/A -   "
24.15, 887.1492, 0.0404128, NaN, NaN, NaN, 0.0372337, "- N/A -   "
24.18, 888.095, 0.04045727, NaN, NaN, NaN, 0.0396753, "- N/A -   "
24.21, 889.3965, 0.0405045, NaN, NaN, NaN, 0.04211683, "- N/A -   "
24.24, 890.698, 0.04055446, NaN, NaN, NaN, 0.04089605, "- N/A -   "
24.27, 891.9987, 0.0406044, NaN, NaN, NaN, 0.04211683, "- N/A -   "
24.3, 893.1815, 0.0406489, NaN, NaN, NaN, 0.0433376, "- N/A -   "
24.33, 894.4826, 0.0406989, NaN, NaN, NaN, 0.0445584, "- N/A -   "
24.36, 895.7837, 0.0407461, NaN, NaN, NaN, 0.0445584, "- N/A -   "
24.39, 897.321, 0.0408016, NaN, NaN, NaN, 0.04211683, "- N/A -   "
24.42, 898.504, 0.0408571, NaN, NaN, NaN, 0.0396753, "- N/A -   "
24.45, 900.2783, 0.0409154, NaN, NaN, NaN, 0.03601294, "- N/A -   "
24.48, 901.934, 0.0409765, NaN, NaN, NaN, 0.0323506, "- N/A -   "
24.51, 903.472, 0.04103206, NaN, NaN, NaN, 0.0286883, "- N/A -   "
24.54, 904.8913, 0.0410876, NaN, NaN, NaN, 0.0274675, "- N/A -   "
24.57, 906.074, 0.0411348, NaN, NaN, NaN, 0.0286883, "- N/A -   "
24.6, 907.3752, 0.04118478, NaN, NaN, NaN, 0.0274675, "- N/A -   "
24.63, 908.676, 0.04123199, NaN, NaN, NaN, 0.0286883, "- N/A -   "
24.66, 909.859, 0.0412792, NaN, NaN, NaN, 0.0299091, "- N/A -   "
24.69, 911.0419, 0.0413236, NaN, NaN, NaN, 0.0323506, "- N/A -   "
24.72, 912.225, 0.04136805, NaN, NaN, NaN, 0.0347922, "- N/A -   "
24.75, 913.526, 0.041418, NaN, NaN, NaN, 0.0347922, "- N/A -   "
24.78, 914.8269, 0.04146801, NaN, NaN, NaN, 0.03601294, "- N/A -   "
24.81, 916.0097, 0.0415152, NaN, NaN, NaN, 0.03601294, "- N/A -   "
24.84, 917.3108, 0.0415652, NaN, NaN, NaN, 0.03601294, "- N/A -   "
24.87, 918.6119, 0.0416124, NaN, NaN, NaN, 0.0372337, "- N/A -   "
24.9, 919.795, 0.04165683, NaN, NaN, NaN, 0.0396753, "- N/A -   "
24.93, 920.9775, 0.0417013, NaN, NaN, NaN, 0.04211683, "- N/A -   "
24.96, 922.16, 0.0417485, NaN, NaN, NaN, 0.0433376, "- N/A -   "
24.99, 923.461, 0.0417957, NaN, NaN, NaN, 0.0445584, "- N/A -   "
25.02, 924.6442, 0.04184287, NaN, NaN, NaN, 0.04577916, "- N/A -   "
25.05, 925.9453, 0.0418956, NaN, NaN, NaN, 0.04577916, "- N/A -   "
25.08, 927.601, 0.0419512, NaN, NaN, NaN, 0.04211683, "- N/A -   "
25.11, 929.257, 0.0420123, NaN, NaN, NaN, 0.0372337, "- N/A -   "
25.14, 930.6765, 0.042065, NaN, NaN, NaN, 0.03601294, "- N/A -   "
25.17, 931.9776, 0.04212055, NaN, NaN, NaN, 0.0347922, "- N/A -   "
25.2, 933.515, 0.0421733, NaN, NaN, NaN, 0.0335714, "- N/A -   "
25.23, 934.6981, 0.04222051, NaN, NaN, NaN, 0.0347922, "- N/A -   "
25.26, 935.8809, 0.0422649, NaN, NaN, NaN, 0.03601294, "- N/A -   "
25.29, 937.182, 0.04231492, NaN, NaN, NaN, 0.0372337, "- N/A -   "
25.32, 938.4831, 0.0423621, NaN, NaN, NaN, 0.0372337, "- N/A -   "
25.35, 939.666, 0.0424121, NaN, NaN, NaN, 0.0384545, "- N/A -   "
25.38, 941.085, 0.0424649, NaN, NaN, NaN, 0.03601294, "- N/A -   "
25.41, 942.505, 0.0425204, NaN, NaN, NaN, 0.0347922, "- N/A -   "
25.44, 944.042, 0.0425732, NaN, NaN, NaN, 0.0323506, "- N/A -   "
25.47, 945.3434, 0.0426259, NaN, NaN, NaN, 0.03112983, "- N/A -   "
25.5, 946.5262, 0.0426703, NaN, NaN, NaN, 0.0335714, "- N/A -   "
25.53, 947.709, 0.04271477, NaN, NaN, NaN, 0.03601294, "- N/A -   "
25.56, 949.0101, 0.042762, NaN, NaN, NaN, 0.0372337, "- N/A -   "
25.59, 950.1929, 0.04280918, NaN, NaN, NaN, 0.0384545, "- N/A -   "
25.62, 951.494, 0.0428592, NaN, NaN, NaN, 0.0384545, "- N/A -   "
25.65, 952.913, 0.0429091, NaN, NaN, NaN, 0.0384545, "- N/A -   "
25.68, 953.978, 0.0429564, NaN, NaN, NaN, 0.0396753, "- N/A -   "
25.71, 955.3972, 0.0430036, NaN, NaN, NaN, 0.04089605, "- N/A -   "
25.74, 956.8166, 0.0430563, NaN, NaN, NaN, 0.0396753, "- N/A -   "
25.77, 958.236, 0.0431146, NaN, NaN, NaN, 0.0372337, "- N/A -   "
25.8, 959.655, 0.0431646, NaN, NaN, NaN, 0.03601294, "- N/A -   "
25.83, 960.9565, 0.0432174, NaN, NaN, NaN, 0.03601294, "- N/A -   "
25.86, 962.3758, 0.0432701, NaN, NaN, NaN, 0.0347922, "- N/A -   "
25.89, 963.677, 0.0433173, NaN, NaN, NaN, 0.0347922, "- N/A -   "
25.92, 964.978, 0.0433701, NaN, NaN, NaN, 0.0347922, "- N/A -   "
25.95, 966.2791, 0.04342007, NaN, NaN, NaN, 0.0347922, "- N/A -   "
25.98, 967.8167, 0.0434756, NaN, NaN, NaN, 0.0323506, "- N/A -   "
26.01, 969.1178, 0.0435256, NaN, NaN, NaN, 0.03112983, "- N/A -   "
26.04, 970.5372, 0.0435756, NaN, NaN, NaN, 0.03112983, "- N/A -   "
26.07, 971.72, 0.04362555, NaN, NaN, NaN, 0.03112983, "- N/A -   "
26.1, 973.021, 0.04367275, NaN, NaN, NaN, 0.0323506, "- N/A -   "
26.13, 974.3222, 0.04372551, NaN, NaN, NaN, 0.0323506, "- N/A -   "
26.16, 975.6232, 0.0437727, NaN, NaN, NaN, 0.0335714, "- N/A -   "
26.19, 977.043, 0.0438255, NaN, NaN, NaN, 0.0323506, "- N/A -   "
26.22, 978.2254, 0.0438727, NaN, NaN, NaN, 0.0335714, "- N/A -   "
26.25, 979.408, 0.04391433, NaN, NaN, NaN, 0.0372337, "- N/A -   "
26.28, 980.3545, 0.043956, NaN, NaN, NaN, 0.04089605, "- N/A -   "
26.31, 981.6556, 0.044006, NaN, NaN, NaN, 0.04089605, "- N/A -   "
26.34, 982.957, 0.0440504, NaN, NaN, NaN, 0.0433376, "- N/A -   "
26.37, 984.139, 0.04409759, NaN, NaN, NaN, 0.0445584, "- N/A -   "
26.4, 985.322, 0.0441448, NaN, NaN, NaN, 0.04699994, "- N/A -   "
26.43, 986.742, 0.04419756, NaN, NaN, NaN, 0.04577916, "- N/A -   "
26.46, 988.161, 0.0442475, NaN, NaN, NaN, 0.0445584, "- N/A -   "
26.49, 989.58, 0.0443031, NaN, NaN, NaN, 0.04211683, "- N/A -   "
26.52, 991.118, 0.0443614, NaN, NaN, NaN, 0.0396753, "- N/A -   "
26.55, 992.6557, 0.04441692, NaN, NaN, NaN, 0.03601294, "- N/A -   "
26.58, 994.0751, 0.0444697, NaN, NaN, NaN, 0.0347922, "- N/A -   "
26.61, 995.376, 0.0445169, NaN, NaN, NaN, 0.03601294, "- N/A -   "
26.64, 996.677, 0.04456964, NaN, NaN, NaN, 0.0347922, "- N/A -   "
26.67, 998.0966, 0.0446196, NaN, NaN, NaN, 0.03601294, "- N/A -   "
26.7, 999.2794, 0.0446668, NaN, NaN, NaN, 0.03601294, "- N/A -   "
26.73, 1000.7, 0.0447196, NaN, NaN, NaN, 0.0347922, "- N/A -   "
26.76, 1002.12, 0.04477512, NaN, NaN, NaN, 0.0323506, "- N/A -   "
26.79, 1003.54, 0.04482788, NaN, NaN, NaN, 0.0323506, "- N/A -   "
26.82, 1004.96, 0.0448806, NaN, NaN, NaN, 0.0299091, "- N/A -   "
26.85, 1006.258, 0.0449306, NaN, NaN, NaN, 0.03112983, "- N/A -   "
26.88, 1007.32, 0.04497505, NaN, NaN, NaN, 0.0335714, "- N/A -   "
26.91, 1008.39, 0.0450139, NaN, NaN, NaN, 0.0372337, "- N/A -   "
26.94, 1009.57, 0.04505835, NaN, NaN, NaN, 0.04089605, "- N/A -   "
26.97, 1010.63, 0.04510278, NaN, NaN, NaN, 0.0433376, "- N/A -   "
27, 1011.82, 0.0451472, NaN, NaN, NaN, 0.0445584, "- N/A -   "
27.03, 1013, 0.0451944, NaN, NaN, NaN, 0.04577916, "- N/A -   "
27.06, 1014.31, 0.0452388, NaN, NaN, NaN, 0.0482207, "- N/A -   "
27.09, 1015.74, 0.0452944, NaN, NaN, NaN, 0.04699994, "- N/A -   "
27.12, 1017.17, 0.04534991, NaN, NaN, NaN, 0.0433376, "- N/A -   "
27.15, 1018.96, 0.045411, NaN, NaN, NaN, 0.0384545, "- N/A -   "
27.18, 1020.75, 0.04546931, NaN, NaN, NaN, 0.0347922, "- N/A -   "
27.21, 1022.06, 0.0455248, NaN, NaN, NaN, 0.0323506, "- N/A -   "
27.24, 1023.49, 0.0455776, NaN, NaN, NaN, 0.0323506, "- N/A -   "
27.27, 1024.81, 0.0456248, NaN, NaN, NaN, 0.0323506, "- N/A -   "
27.3, 1026.12, 0.04567479, NaN, NaN, NaN, 0.0323506, "- N/A -   "
27.33, 1027.55, 0.0457303, NaN, NaN, NaN, 0.0299091, "- N/A -   "
27.36, 1028.98, 0.04578586, NaN, NaN, NaN, 0.0286883, "- N/A -   "
27.39, 1030.53, 0.0458386, NaN, NaN, NaN, 0.0274675, "- N/A -   "
27.42, 1031.72, 0.0458858, NaN, NaN, NaN, 0.0274675, "- N/A -   "
27.45, 1033.03, 0.0459358, NaN, NaN, NaN, 0.0286883, "- N/A -   "
27.48, 1034.35, 0.04598023, NaN, NaN, NaN, 0.03112983, "- N/A -   "
27.51, 1035.42, 0.0460274, NaN, NaN, NaN, 0.0323506, "- N/A -   "
27.54, 1036.61, 0.0460691, NaN, NaN, NaN, 0.0347922, "- N/A -   "
27.57, 1037.45, 0.046108, NaN, NaN, NaN, 0.0396753, "- N/A -   "
27.6, 1038.52, 0.0461496, NaN, NaN, NaN, 0.0433376, "- N/A -   "
27.63, 1039.71, 0.04619404, NaN, NaN, NaN, 0.04699994, "- N/A -   "
27.66, 1041.02, 0.04624125, NaN, NaN, NaN, 0.0482207, "- N/A -   "
27.69, 1042.46, 0.04629123, NaN, NaN, NaN, 0.04699994, "- N/A -   "
27.72, 1043.767, 0.04634121, NaN, NaN, NaN, 0.04699994, "- N/A -   "
27.75, 1045.198, 0.04639397, NaN, NaN, NaN, 0.04577916, "- N/A -   "
27.78, 1046.629, 0.0464467, NaN, NaN, NaN, 0.0445584, "- N/A -   "
27.81, 1047.94, 0.0464967, NaN, NaN, NaN, 0.0445584, "- N/A -   "
27.84, 1049.37, 0.0465495, NaN, NaN, NaN, 0.0433376, "- N/A -   "
27.87, 1051.16, 0.0466106, NaN, NaN, NaN, 0.0384545, "- N/A -   "
27.9, 1052.71, 0.04667442, NaN, NaN, NaN, 0.0335714, "- N/A -   "
27.93, 1054.38, 0.04673273, NaN, NaN, NaN, 0.0299091, "- N/A -   "
27.96, 1055.93, 0.0467827, NaN, NaN, NaN, 0.0286883, "- N/A -   "
27.99, 1057.12, 0.0468327, NaN, NaN, NaN, 0.0286883, "- N/A -   "
28.02, 1058.32, 0.0468799, NaN, NaN, NaN, 0.0299091, "- N/A -   "
28.023, 1058.55, 0.0468855, NaN, NaN, NaN, 0.0299091, "- N/A -   "