File: 2_Tensile_Data/Hamel_ForceTest_Bolt10_Test4.csv
Time, Load (lb), Position (in), AxialStrain (in), TransverseStrain (in), Auxiliary (), Control Out (V), Stress (psi)
0.0, 1.06153, 0.0, NaN, NaN, NaN, 0.08850638, "- N/A -   "
0.01, 1.53332, 2.49908e-05, NaN, NaN, NaN, 0.09705182, "- N/A -   "
0.02, 2.005107, 5.27583e-05, NaN, NaN, NaN, 0.104376, "- N/A -   "
0.03, 2.59484, 8.33026e-05, NaN, NaN, NaN, 0.103156, "- N/A -   "
0.04, 3.18458, 0.000116624, NaN, NaN, NaN, 0.09705182, "- N/A -   "
0.05, 3.774319, 0.000147168, NaN, NaN, NaN, 0.09094793, "- N/A -   "
0.06, 4.36406, 0.000177712, NaN, NaN, NaN, 0.084844, "- N/A -   "
0.07, 4.953794, 0.000208256, NaN, NaN, NaN, 0.07874016, "- N/A -   "
0.08, 5.54353, 2.360239E-4, NaN, NaN, NaN, 0.07385705, "- N/A -   "
0.09, 6.01532, 0.000263791, NaN, NaN, NaN, 0.06775316, "- N/A -   "
0.1, 6.487111, 0.000291559, NaN, NaN, NaN, 0.0640908, "- N/A -   "
0.11, 6.9589, 3.165497E-4, NaN, NaN, NaN, 0.0592077, "- N/A -   "
0.12, 7.430691, 0.00034154, NaN, NaN, NaN, 0.0555454, "- N/A -   "
0.13, 7.90248, 0.000366531, NaN, NaN, NaN, 0.05188305, "- N/A -   "
0.14, 8.37427, 0.000391522, NaN, NaN, NaN, 0.0494415, "- N/A -   "
0.15, 8.728113, 0.000410959, NaN, NaN, NaN, 0.04699994, "- N/A -   "
0.16, 9.081955, 0.000430397, NaN, NaN, NaN, 0.04577916, "- N/A -   "
0.17, 9.435798, 0.000449834, NaN, NaN, NaN, 0.0445584, "- N/A -   "
0.18, 9.78964, 4.664943E-4, NaN, NaN, NaN, 0.0445584, "- N/A -   "
0.19, 10.26143, 4.831548E-4, NaN, NaN, NaN, 0.0445584, "- N/A -   "
0.2, 10.3794, 0.000502592, NaN, NaN, NaN, 0.0433376, "- N/A -   "
0.21, 10.73322, 5.164758E-4, NaN, NaN, NaN, 0.0445584, "- N/A -   "
0.22, 10.9691, 0.000533136, NaN, NaN, NaN, 0.0445584, "- N/A -   "
0.23, 11.205, 5.470201E-4, NaN, NaN, NaN, 0.04577916, "- N/A -   "
0.24, 11.5589, 5.636806E-4, NaN, NaN, NaN, 0.04699994, "- N/A -   "
0.25, 11.7947, 0.000577564, NaN, NaN, NaN, 0.0482207, "- N/A -   "
0.26, 12.14859, 5.942249E-4, NaN, NaN, NaN, 0.0482207, "- N/A -   "
0.27, 12.3845, 0.000608109, NaN, NaN, NaN, 0.0482207, "- N/A -   "
0.28, 12.7383, 0.000624769, NaN, NaN, NaN, 0.0482207, "- N/A -   "
0.29, 13.09217, 6.414297E-4, NaN, NaN, NaN, 0.0482207, "- N/A -   "
0.3, 13.3281, 0.000655313, NaN, NaN, NaN, 0.0494415, "- N/A -   "
0.31, 13.564, 6.719739E-4, NaN, NaN, NaN, 0.0494415, "- N/A -   "
0.32, 13.9178, 0.000688634, NaN, NaN, NaN, 0.0494415, "- N/A -   "
0.33, 14.2716, 0.000705295, NaN, NaN, NaN, 0.0494415, "- N/A -   "
0.34, 14.6255, 7.219555E-4, NaN, NaN, NaN, 0.0494415, "- N/A -   "
0.35, 14.8614, 7.38616E-4, NaN, NaN, NaN, 0.0494415, "- N/A -   "
0.36, 15.0973, 0.000758053, NaN, NaN, NaN, 0.0494415, "- N/A -   "
0.38, 15.9229, 0.000791374, NaN, NaN, NaN, 0.0482207, "- N/A -   "
0.4, 16.6306, 0.000833026, NaN, NaN, NaN, 0.04577916, "- N/A -   "
0.42, 17.3383, 8.691233E-4, NaN, NaN, NaN, 0.0445584, "- N/A -   "
0.44, 18.2819, 9.052211E-4, NaN, NaN, NaN, 0.04211683, "- N/A -   "
0.46, 18.8716, 0.000946872, NaN, NaN, NaN, 0.0396753, "- N/A -   "
0.48, 19.6972, 9.857469E-4, NaN, NaN, NaN, 0.03601294, "- N/A -   "
0.5, 20.287, 0.00102184, NaN, NaN, NaN, 0.0347922, "- N/A -   "
0.52, 20.99465, 0.00105794, NaN, NaN, NaN, 0.0347922, "- N/A -   "
0.54, 21.7023, 0.00109126, NaN, NaN, NaN, 0.0335714, "- N/A -   "
0.56, 22.1741, 0.00112458, NaN, NaN, NaN, 0.0335714, "- N/A -   "
0.58, 22.88181, 0.00115791, NaN, NaN, NaN, 0.0335714, "- N/A -   "
0.6, 23.4715, 0.001194, NaN, NaN, NaN, 0.0323506, "- N/A -   "
0.62, 24.29718, 0.0012301, NaN, NaN, NaN, 0.03112983, "- N/A -   "
0.64, 25.0049, 0.00126898, NaN, NaN, NaN, 0.0299091, "- N/A -   "
0.66, 25.5946, 0.00129952, NaN, NaN, NaN, 0.0299091, "- N/A -   "
0.68, 26.18434, 0.00133284, NaN, NaN, NaN, 0.0299091, "- N/A -   "
0.7, 26.7741, 0.00136339, NaN, NaN, NaN, 0.03112983, "- N/A -   "
0.72, 27.5997, 0.001399483, NaN, NaN, NaN, 0.03112983, "- N/A -   "
0.74, 28.1894, 0.0014328, NaN, NaN, NaN, 0.0299091, "- N/A -   "
0.76, 28.89713, 0.00146335, NaN, NaN, NaN, 0.03112983, "- N/A -   "
0.78, 29.3689, 0.00149112, NaN, NaN, NaN, 0.0335714, "- N/A -   "
0.8, 29.9587, 0.00152166, NaN, NaN, NaN, 0.0347922, "- N/A -   "
0.82, 30.5484, 0.0015522, NaN, NaN, NaN, 0.03601294, "- N/A -   "
0.84, 31.0202, 0.00158275, NaN, NaN, NaN, 0.0384545, "- N/A -   "
0.86, 31.72787, 0.00161329, NaN, NaN, NaN, 0.0396753, "- N/A -   "
0.88, 32.1997, 0.00164106, NaN, NaN, NaN, 0.04089605, "- N/A -   "
0.9, 32.9073, 0.00166883, NaN, NaN, NaN, 0.0433376, "- N/A -   "
0.92, 33.49708, 0.00170215, NaN, NaN, NaN, 0.0433376, "- N/A -   "
0.94, 34.08682, 0.00173269, NaN, NaN, NaN, 0.0445584, "- N/A -   "
0.96, 34.7945, 0.00176601, NaN, NaN, NaN, 0.0445584, "- N/A -   "
0.98, 35.3842, 0.00179934, NaN, NaN, NaN, 0.0445584, "- N/A -   "
1, 36.0919, 0.00183266, NaN, NaN, NaN, 0.0445584, "- N/A -   "
1.02, 36.79961, 0.00186598, NaN, NaN, NaN, 0.0445584, "- N/A -   "
1.04, 37.5073, 0.001902075, NaN, NaN, NaN, 0.0433376, "- N/A -   "
1.06, 38.097, 0.001935396, NaN, NaN, NaN, 0.0433376, "- N/A -   "
1.08, 38.9227, 0.00197149, NaN, NaN, NaN, 0.04211683, "- N/A -   "
1.1, 39.6304, 0.00200481, NaN, NaN, NaN, 0.04211683, "- N/A -   "
1.12, 40.33803, 0.00204091, NaN, NaN, NaN, 0.04211683, "- N/A -   "
1.14, 41.04572, 0.00207423, NaN, NaN, NaN, 0.04089605, "- N/A -   "
1.16, 41.7534, 0.002113108, NaN, NaN, NaN, 0.0384545, "- N/A -   "
1.18, 42.579, 0.00215198, NaN, NaN, NaN, 0.03601294, "- N/A -   "
1.2, 43.5226, 0.00219641, NaN, NaN, NaN, 0.0323506, "- N/A -   "
1.22, 44.2303, 0.00223529, NaN, NaN, NaN, 0.0299091, "- N/A -   "
1.24, 45.05593, 0.00226583, NaN, NaN, NaN, 0.0299091, "- N/A -   "
1.26, 45.6457, 0.00229915, NaN, NaN, NaN, 0.0299091, "- N/A -   "
1.28, 46.23541, 0.00233247, NaN, NaN, NaN, 0.03112983, "- N/A -   "
1.3, 46.9431, 0.002363016, NaN, NaN, NaN, 0.03112983, "- N/A -   "
1.32, 47.5328, 0.002396337, NaN, NaN, NaN, 0.0323506, "- N/A -   "
1.34, 48.3585, 0.002429658, NaN, NaN, NaN, 0.03112983, "- N/A -   "
1.36, 48.9482, 0.002462979, NaN, NaN, NaN, 0.0323506, "- N/A -   "
1.38, 49.5379, 0.00249075, NaN, NaN, NaN, 0.0347922, "- N/A -   "
1.4, 50.2456, 0.00252129, NaN, NaN, NaN, 0.0347922, "- N/A -   "
1.42, 50.83536, 0.00255461, NaN, NaN, NaN, 0.0347922, "- N/A -   "
1.44, 51.66099, 0.00258793, NaN, NaN, NaN, 0.0347922, "- N/A -   "
1.46, 52.25073, 0.00261848, NaN, NaN, NaN, 0.03601294, "- N/A -   "
1.48, 52.9584, 0.002651798, NaN, NaN, NaN, 0.03601294, "- N/A -   "
1.5, 53.54815, 0.00268234, NaN, NaN, NaN, 0.0372337, "- N/A -   "
1.52, 54.2558, 0.00271289, NaN, NaN, NaN, 0.0384545, "- N/A -   "
1.54, 54.9635, 0.00274621, NaN, NaN, NaN, 0.0384545, "- N/A -   "
1.56, 55.6712, 0.00277953, NaN, NaN, NaN, 0.0384545, "- N/A -   "
1.58, 56.37889, 0.00281285, NaN, NaN, NaN, 0.0396753, "- N/A -   "
1.6, 56.85068, 0.00284062, NaN, NaN, NaN, 0.04089605, "- N/A -   "
1.62, 57.5584, 0.00286838, NaN, NaN, NaN, 0.0433376, "- N/A -   "
1.64, 58.26605, 0.00290171, NaN, NaN, NaN, 0.0433376, "- N/A -   "
1.66, 58.8558, 0.00293225, NaN, NaN, NaN, 0.0445584, "- N/A -   "
1.68, 59.5635, 0.00296279, NaN, NaN, NaN, 0.04577916, "- N/A -   "
1.7, 60.27116, 0.00299612, NaN, NaN, NaN, 0.04577916, "- N/A -   "
1.72, 60.8609, 0.00302944, NaN, NaN, NaN, 0.04577916, "- N/A -   "
1.74, 61.8045, 0.003065534, NaN, NaN, NaN, 0.0445584, "- N/A -   "
1.76, 62.6301, 0.00310719, NaN, NaN, NaN, 0.04211683, "- N/A -   "
1.78, 63.45574, 0.00314606, NaN, NaN, NaN, 0.0384545, "- N/A -   "
1.8, 64.28137, 0.00318493, NaN, NaN, NaN, 0.03601294, "- N/A -   "
1.82, 65.22495, 0.00322103, NaN, NaN, NaN, 0.0347922, "- N/A -   "
1.84, 65.93263, 0.00325991, NaN, NaN, NaN, 0.0323506, "- N/A -   "
1.86, 66.75827, 0.003298781, NaN, NaN, NaN, 0.03112983, "- N/A -   "
1.88, 67.5839, 0.00333488, NaN, NaN, NaN, 0.0286883, "- N/A -   "
1.9, 68.29159, 0.00337098, NaN, NaN, NaN, 0.0286883, "- N/A -   "
1.92, 68.8813, 0.00340152, NaN, NaN, NaN, 0.0299091, "- N/A -   "
1.94, 69.589, 0.00343207, NaN, NaN, NaN, 0.0299091, "- N/A -   "
1.96, 70.0608, 0.00345983, NaN, NaN, NaN, 0.0323506, "- N/A -   "
1.98, 70.88643, 0.00349038, NaN, NaN, NaN, 0.0347922, "- N/A -   "
2, 71.59412, 0.00352092, NaN, NaN, NaN, 0.0347922, "- N/A -   "
2.02, 72.1838, 0.00355424, NaN, NaN, NaN, 0.0347922, "- N/A -   "
2.04, 73.00948, 0.00359034, NaN, NaN, NaN, 0.0335714, "- N/A -   "
2.06, 73.71717, 0.00362366, NaN, NaN, NaN, 0.0335714, "- N/A -   "
2.08, 74.42485, 0.003659759, NaN, NaN, NaN, 0.0323506, "- N/A -   "
2.1, 75.13254, 0.00369308, NaN, NaN, NaN, 0.0323506, "- N/A -   "
2.12, 75.95817, 0.003726401, NaN, NaN, NaN, 0.0323506, "- N/A -   "
2.14, 76.5479, 0.00375695, NaN, NaN, NaN, 0.0335714, "- N/A -   "
2.16, 77.13765, 0.00378749, NaN, NaN, NaN, 0.03601294, "- N/A -   "
2.18, 77.96328, 0.003818034, NaN, NaN, NaN, 0.03601294, "- N/A -   "
2.2, 78.55301, 0.003848578, NaN, NaN, NaN, 0.0372337, "- N/A -   "
2.22, 79.2607, 0.003881899, NaN, NaN, NaN, 0.0372337, "- N/A -   "
2.24, 79.85043, 0.00391244, NaN, NaN, NaN, 0.0384545, "- N/A -   "
2.26, 80.32223, 0.003940211, NaN, NaN, NaN, 0.04211683, "- N/A -   "
2.28, 80.912, 0.00397076, NaN, NaN, NaN, 0.0433376, "- N/A -   "
2.3, 81.7376, 0.004004076, NaN, NaN, NaN, 0.04211683, "- N/A -   "
2.32, 82.44528, 0.004037397, NaN, NaN, NaN, 0.04211683, "- N/A -   "
2.34, 83.15297, 0.004073495, NaN, NaN, NaN, 0.04089605, "- N/A -   "
2.36, 83.86065, 0.004106816, NaN, NaN, NaN, 0.04089605, "- N/A -   "
2.38, 84.56834, 0.004140137, NaN, NaN, NaN, 0.04089605, "- N/A -   "
2.4, 85.39397, 0.004176235, NaN, NaN, NaN, 0.0396753, "- N/A -   "
2.42, 85.9837, 0.00420956, NaN, NaN, NaN, 0.04089605, "- N/A -   "
2.44, 86.80934, 0.00424565, NaN, NaN, NaN, 0.0384545, "- N/A -   "
2.46, 87.51702, 0.00428175, NaN, NaN, NaN, 0.0384545, "- N/A -   "
2.48, 88.22471, 0.004315072, NaN, NaN, NaN, 0.0372337, "- N/A -   "
2.5, 88.9324, 0.00434839, NaN, NaN, NaN, 0.0372337, "- N/A -   "
2.52, 89.6401, 0.00438171, NaN, NaN, NaN, 0.0372337, "- N/A -   "
2.54, 90.34776, 0.00441504, NaN, NaN, NaN, 0.0372337, "- N/A -   "
2.56, 91.05545, 0.00444836, NaN, NaN, NaN, 0.0372337, "- N/A -   "
2.58, 91.76313, 0.00448168, NaN, NaN, NaN, 0.0372337, "- N/A -   "
2.6, 92.35287, 0.004515, NaN, NaN, NaN, 0.0372337, "- N/A -   "
2.62, 93.1785, 0.0045511, NaN, NaN, NaN, 0.03601294, "- N/A -   "
2.64, 93.8862, 0.00458997, NaN, NaN, NaN, 0.0347922, "- N/A -   "
2.66, 94.7118, 0.00462607, NaN, NaN, NaN, 0.0323506, "- N/A -   "
2.68, 95.41951, 0.00465939, NaN, NaN, NaN, 0.0323506, "- N/A -   "
2.7, 96.00924, 0.00469271, NaN, NaN, NaN, 0.0335714, "- N/A -   "
2.72, 96.599, 0.004723255, NaN, NaN, NaN, 0.0335714, "- N/A -   "
2.74, 97.30666, 0.004753799, NaN, NaN, NaN, 0.0347922, "- N/A -   "
2.76, 97.8964, 0.00478712, NaN, NaN, NaN, 0.0347922, "- N/A -   "
2.78, 98.60408, 0.00482044, NaN, NaN, NaN, 0.0347922, "- N/A -   "
2.8, 99.3118, 0.00485376, NaN, NaN, NaN, 0.03601294, "- N/A -   "
2.82, 99.9015, 0.004887083, NaN, NaN, NaN, 0.0347922, "- N/A -   "
2.84, 100.727, 0.004923181, NaN, NaN, NaN, 0.0335714, "- N/A -   "
2.86, 101.317, 0.004959279, NaN, NaN, NaN, 0.0323506, "- N/A -   "
2.88, 102.025, 0.0049926, NaN, NaN, NaN, 0.0323506, "- N/A -   "
2.9, 102.732, 0.005028697, NaN, NaN, NaN, 0.03112983, "- N/A -   "
2.92, 103.44, 0.00505924, NaN, NaN, NaN, 0.0323506, "- N/A -   "
2.94, 104.03, 0.00508979, NaN, NaN, NaN, 0.0347922, "- N/A -   "
2.96, 104.501, 0.00511755, NaN, NaN, NaN, 0.03601294, "- N/A -   "
2.98, 105.091, 0.0051481, NaN, NaN, NaN, 0.0384545, "- N/A -   "
3, 105.681, 0.00517864, NaN, NaN, NaN, 0.0384545, "- N/A -   "
3.02, 106.389, 0.005209187, NaN, NaN, NaN, 0.0396753, "- N/A -   "
3.04, 106.978, 0.00524251, NaN, NaN, NaN, 0.04089605, "- N/A -   "
3.06, 107.45, 0.00527028, NaN, NaN, NaN, 0.04211683, "- N/A -   "
3.08, 108.04, 0.00530082, NaN, NaN, NaN, 0.0433376, "- N/A -   "
3.1, 108.63, 0.00533136, NaN, NaN, NaN, 0.0445584, "- N/A -   "
3.12, 109.3373, 0.00536746, NaN, NaN, NaN, 0.0433376, "- N/A -   "
3.14, 110.045, 0.005400782, NaN, NaN, NaN, 0.0445584, "- N/A -   "
3.16, 110.753, 0.0054341, NaN, NaN, NaN, 0.0433376, "- N/A -   "
3.18, 111.46, 0.00547298, NaN, NaN, NaN, 0.04211683, "- N/A -   "
3.2, 112.168, 0.00550908, NaN, NaN, NaN, 0.0396753, "- N/A -   "
3.22, 112.994, 0.00555073, NaN, NaN, NaN, 0.0372337, "- N/A -   "
3.24, 113.701, 0.0055896, NaN, NaN, NaN, 0.0335714, "- N/A -   "
3.26, 114.409, 0.0056257, NaN, NaN, NaN, 0.0323506, "- N/A -   "
3.28, 115.117, 0.00565902, NaN, NaN, NaN, 0.0323506, "- N/A -   "
3.3, 115.824, 0.00569234, NaN, NaN, NaN, 0.0323506, "- N/A -   "
3.32, 116.414, 0.00572566, NaN, NaN, NaN, 0.0335714, "- N/A -   "
3.34, 117.004, 0.005756206, NaN, NaN, NaN, 0.0335714, "- N/A -   "
3.36, 117.476, 0.00578953, NaN, NaN, NaN, 0.0335714, "- N/A -   "
3.38, 118.183, 0.005820072, NaN, NaN, NaN, 0.0347922, "- N/A -   "
3.4, 118.891, 0.00585617, NaN, NaN, NaN, 0.0335714, "- N/A -   "
3.42, 119.599, 0.00589227, NaN, NaN, NaN, 0.0323506, "- N/A -   "
3.44, 120.306, 0.00592837, NaN, NaN, NaN, 0.03112983, "- N/A -   "
3.46, 120.896, 0.00596446, NaN, NaN, NaN, 0.0299091, "- N/A -   "
3.48, 121.722, 0.005997784, NaN, NaN, NaN, 0.0299091, "- N/A -   "
3.5, 122.194, 0.00603111, NaN, NaN, NaN, 0.03112983, "- N/A -   "
3.52, 122.783, 0.00606165, NaN, NaN, NaN, 0.03112983, "- N/A -   "
3.54, 123.373, 0.00609497, NaN, NaN, NaN, 0.0335714, "- N/A -   "
3.56, 123.963, 0.00612551, NaN, NaN, NaN, 0.0335714, "- N/A -   "
3.58, 124.553, 0.00615606, NaN, NaN, NaN, 0.0347922, "- N/A -   "
3.6, 125.024, 0.00618938, NaN, NaN, NaN, 0.03601294, "- N/A -   "
3.62, 125.496, 0.00621715, NaN, NaN, NaN, 0.0372337, "- N/A -   "
3.64, 126.086, 0.00624491, NaN, NaN, NaN, 0.0396753, "- N/A -   "
3.66, 126.558, 0.00627546, NaN, NaN, NaN, 0.04089605, "- N/A -   "
3.68, 127.265, 0.006306004, NaN, NaN, NaN, 0.04211683, "- N/A -   "
3.7, 127.855, 0.006336548, NaN, NaN, NaN, 0.0433376, "- N/A -   "
3.72, 128.4448, 0.006367092, NaN, NaN, NaN, 0.04577916, "- N/A -   "
3.74, 129.035, 0.00639486, NaN, NaN, NaN, 0.04699994, "- N/A -   "
3.76, 129.506, 0.006430958, NaN, NaN, NaN, 0.04699994, "- N/A -   "
3.78, 130.214, 0.00646705, NaN, NaN, NaN, 0.0445584, "- N/A -   "
3.8, 130.922, 0.00650315, NaN, NaN, NaN, 0.0445584, "- N/A -   "
3.82, 131.629, 0.00653925, NaN, NaN, NaN, 0.04211683, "- N/A -   "
3.84, 132.337, 0.00657813, NaN, NaN, NaN, 0.04089605, "- N/A -   "
3.86, 133.045, 0.00661422, NaN, NaN, NaN, 0.0384545, "- N/A -   "
3.88, 133.752, 0.00665032, NaN, NaN, NaN, 0.0372337, "- N/A -   "
3.9, 134.342, 0.006683642, NaN, NaN, NaN, 0.0372337, "- N/A -   "
3.92, 135.1678, 0.00671974, NaN, NaN, NaN, 0.03601294, "- N/A -   "
3.94, 135.758, 0.00675584, NaN, NaN, NaN, 0.0347922, "- N/A -   "
3.96, 136.229, 0.006786382, NaN, NaN, NaN, 0.0372337, "- N/A -   "
3.98, 136.819, 0.006819702, NaN, NaN, NaN, 0.03601294, "- N/A -   "
4, 137.527, 0.0068558, NaN, NaN, NaN, 0.0347922, "- N/A -   "
4.02, 138.47, 0.00689745, NaN, NaN, NaN, 0.03112983, "- N/A -   "
4.04, 139.178, 0.006936326, NaN, NaN, NaN, 0.0286883, "- N/A -   "
4.06, 139.768, 0.00696965, NaN, NaN, NaN, 0.0286883, "- N/A -   "
4.08, 140.24, 0.00700297, NaN, NaN, NaN, 0.0286883, "- N/A -   "
4.1, 140.829, 0.00703351, NaN, NaN, NaN, 0.0299091, "- N/A -   "
4.12, 141.419, 0.00706683, NaN, NaN, NaN, 0.0299091, "- N/A -   "
4.14, 142.1267, 0.00710015, NaN, NaN, NaN, 0.0299091, "- N/A -   "
4.16, 142.5985, 0.007133476, NaN, NaN, NaN, 0.03112983, "- N/A -   "
4.18, 143.188, 0.00716402, NaN, NaN, NaN, 0.03112983, "- N/A -   "
4.2, 143.66, 0.007191787, NaN, NaN, NaN, 0.0335714, "- N/A -   "
4.22, 144.25, 0.007222332, NaN, NaN, NaN, 0.0347922, "- N/A -   "
4.24, 144.722, 0.007250099, NaN, NaN, NaN, 0.0372337, "- N/A -   "
4.26, 145.311, 0.007280643, NaN, NaN, NaN, 0.0384545, "- N/A -   "
4.28, 145.783, 0.007311188, NaN, NaN, NaN, 0.04089605, "- N/A -   "
4.3, 146.3728, 0.007338955, NaN, NaN, NaN, 0.04211683, "- N/A -   "
4.32, 146.963, 0.007369499, NaN, NaN, NaN, 0.0433376, "- N/A -   "
4.34, 147.552, 0.00740282, NaN, NaN, NaN, 0.0433376, "- N/A -   "
4.36, 148.142, 0.007436141, NaN, NaN, NaN, 0.0445584, "- N/A -   "
4.38, 148.732, 0.00746946, NaN, NaN, NaN, 0.0445584, "- N/A -   "
4.4, 149.439, 0.007502783, NaN, NaN, NaN, 0.0433376, "- N/A -   "
4.42, 149.911, 0.00753333, NaN, NaN, NaN, 0.0445584, "- N/A -   "
4.44, 150.619, 0.007566649, NaN, NaN, NaN, 0.0445584, "- N/A -   "
4.46, 151.209, 0.00759997, NaN, NaN, NaN, 0.0445584, "- N/A -   "
4.48, 151.798, 0.007636067, NaN, NaN, NaN, 0.0445584, "- N/A -   "
4.5, 152.506, 0.007672165, NaN, NaN, NaN, 0.04211683, "- N/A -   "
4.52, 153.214, 0.007708263, NaN, NaN, NaN, 0.04089605, "- N/A -   "
4.54, 153.8035, 0.00774436, NaN, NaN, NaN, 0.0396753, "- N/A -   "
4.56, 154.511, 0.007780459, NaN, NaN, NaN, 0.0396753, "- N/A -   "
4.58, 155.219, 0.007819333, NaN, NaN, NaN, 0.03601294, "- N/A -   "
4.6, 156.0445, 0.007858207, NaN, NaN, NaN, 0.0335714, "- N/A -   "
4.62, 156.752, 0.007897083, NaN, NaN, NaN, 0.03112983, "- N/A -   "
4.64, 157.46, 0.007935957, NaN, NaN, NaN, 0.0299091, "- N/A -   "
4.66, 158.0496, 0.007969277, NaN, NaN, NaN, 0.0286883, "- N/A -   "
4.68, 158.639, 0.008002599, NaN, NaN, NaN, 0.0286883, "- N/A -   "
4.7, 159.229, 0.00803592, NaN, NaN, NaN, 0.0299091, "- N/A -   "
4.72, 159.819, 0.008066465, NaN, NaN, NaN, 0.0299091, "- N/A -   "
4.74, 160.5265, 0.008099785, NaN, NaN, NaN, 0.0299091, "- N/A -   "
4.76, 160.998, 0.008133107, NaN, NaN, NaN, 0.0299091, "- N/A -   "
4.78, 161.352, 0.008158097, NaN, NaN, NaN, 0.0335714, "- N/A -   "
4.8, 162.06, 0.008185865, NaN, NaN, NaN, 0.03601294, "- N/A -   "
4.82, 162.532, 0.008219185, NaN, NaN, NaN, 0.0372337, "- N/A -   "
4.84, 163.2393, 0.008252507, NaN, NaN, NaN, 0.03601294, "- N/A -   "
4.86, 163.947, 0.008288605, NaN, NaN, NaN, 0.0347922, "- N/A -   "
4.88, 164.537, 0.008321925, NaN, NaN, NaN, 0.0347922, "- N/A -   "
4.9, 165.009, 0.00835247, NaN, NaN, NaN, 0.03601294, "- N/A -   "
4.92, 165.7162, 0.008383013, NaN, NaN, NaN, 0.0372337, "- N/A -   "
4.94, 166.188, 0.008416335, NaN, NaN, NaN, 0.0372337, "- N/A -   "
4.96, 166.778, 0.008449656, NaN, NaN, NaN, 0.0372337, "- N/A -   "
4.98, 167.485, 0.0084802, NaN, NaN, NaN, 0.0384545, "- N/A -   "
5, 167.9572, 0.008507968, NaN, NaN, NaN, 0.04089605, "- N/A -   "
5.02, 168.547, 0.008538512, NaN, NaN, NaN, 0.04211683, "- N/A -   "
5.04, 169.137, 0.008571833, NaN, NaN, NaN, 0.0433376, "- N/A -   "
5.06, 169.726, 0.008605153, NaN, NaN, NaN, 0.04211683, "- N/A -   "
5.08, 170.1982, 0.008635698, NaN, NaN, NaN, 0.0433376, "- N/A -   "
5.1, 170.906, 0.008666243, NaN, NaN, NaN, 0.0445584, "- N/A -   "
5.12, 171.614, 0.008699563, NaN, NaN, NaN, 0.0445584, "- N/A -   "
5.14, 172.203, 0.008738438, NaN, NaN, NaN, 0.0433376, "- N/A -   "
5.16, 173.029, 0.008777313, NaN, NaN, NaN, 0.04089605, "- N/A -   "
5.18, 173.855, 0.008816187, NaN, NaN, NaN, 0.0372337, "- N/A -   "
5.2, 174.562, 0.008855062, NaN, NaN, NaN, 0.0347922, "- N/A -   "
5.22, 175.27, 0.008893936, NaN, NaN, NaN, 0.0323506, "- N/A -   "
5.24, 175.978, 0.008930034, NaN, NaN, NaN, 0.03112983, "- N/A -   "
5.26, 176.567, 0.008963356, NaN, NaN, NaN, 0.03112983, "- N/A -   "
5.28, 177.1571, 0.008993899, NaN, NaN, NaN, 0.0323506, "- N/A -   "
5.3, 177.511, 0.009024444, NaN, NaN, NaN, 0.0347922, "- N/A -   "
5.32, 178.219, 0.009057764, NaN, NaN, NaN, 0.0347922, "- N/A -   "
5.34, 178.808, 0.00908831, NaN, NaN, NaN, 0.03601294, "- N/A -   "
5.36, 179.28, 0.009118853, NaN, NaN, NaN, 0.03601294, "- N/A -   "
5.38, 179.988, 0.009152174, NaN, NaN, NaN, 0.03601294, "- N/A -   "
5.4, 180.578, 0.009185496, NaN, NaN, NaN, 0.03601294, "- N/A -   "
5.42, 181.285, 0.009218816, NaN, NaN, NaN, 0.03601294, "- N/A -   "
5.44, 181.875, 0.00925214, NaN, NaN, NaN, 0.0372337, "- N/A -   "
5.46, 182.583, 0.009288236, NaN, NaN, NaN, 0.0347922, "- N/A -   "
5.48, 183.172, 0.009321556, NaN, NaN, NaN, 0.0347922, "- N/A -   "
5.5, 183.8801, 0.009357654, NaN, NaN, NaN, 0.0335714, "- N/A -   "
5.52, 184.706, 0.009396528, NaN, NaN, NaN, 0.0323506, "- N/A -   "
5.54, 185.178, 0.00942707, NaN, NaN, NaN, 0.0323506, "- N/A -   "
5.56, 185.885, 0.009460394, NaN, NaN, NaN, 0.0323506, "- N/A -   "
5.58, 186.475, 0.009493714, NaN, NaN, NaN, 0.0323506, "- N/A -   "
5.6, 187.065, 0.009524259, NaN, NaN, NaN, 0.0335714, "- N/A -   "
5.62, 187.654, 0.009552026, NaN, NaN, NaN, 0.03601294, "- N/A -   "
5.64, 188.244, 0.009582572, NaN, NaN, NaN, 0.0372337, "- N/A -   "
5.66, 188.716, 0.009610338, NaN, NaN, NaN, 0.0396753, "- N/A -   "
5.68, 189.188, 0.00964366, NaN, NaN, NaN, 0.0396753, "- N/A -   "
5.7, 189.777, 0.00967698, NaN, NaN, NaN, 0.0396753, "- N/A -   "
5.72, 190.367, 0.009710302, NaN, NaN, NaN, 0.0396753, "- N/A -   "
5.74, 191.193, 0.00974362, NaN, NaN, NaN, 0.0396753, "- N/A -   "
5.76, 191.901, 0.009776944, NaN, NaN, NaN, 0.0396753, "- N/A -   "
5.78, 192.608, 0.009813041, NaN, NaN, NaN, 0.0384545, "- N/A -   "
5.8, 193.198, 0.009846362, NaN, NaN, NaN, 0.0384545, "- N/A -   "
5.82, 193.7877, 0.009879684, NaN, NaN, NaN, 0.0384545, "- N/A -   "
5.84, 194.495, 0.009913004, NaN, NaN, NaN, 0.0384545, "- N/A -   "
5.86, 195.203, 0.009946326, NaN, NaN, NaN, 0.0384545, "- N/A -   "
5.88, 195.7928, 0.009982424, NaN, NaN, NaN, 0.0372337, "- N/A -   "
5.9, 196.383, 0.0100185, NaN, NaN, NaN, 0.0372337, "- N/A -   "
5.92, 196.972, 0.0100491, NaN, NaN, NaN, 0.0372337, "- N/A -   "
5.94, 197.68, 0.01007961, NaN, NaN, NaN, 0.0384545, "- N/A -   "
5.96, 198.388, 0.01011293, NaN, NaN, NaN, 0.0384545, "- N/A -   "
5.98, 198.859, 0.0101463, NaN, NaN, NaN, 0.0384545, "- N/A -   "
6, 199.567, 0.01018235, NaN, NaN, NaN, 0.0384545, "- N/A -   "
6.02, 200.275, 0.0102157, NaN, NaN, NaN, 0.0372337, "- N/A -   "
6.04, 201.1, 0.0102518, NaN, NaN, NaN, 0.03601294, "- N/A -   "
6.06, 201.69, 0.0102879, NaN, NaN, NaN, 0.0347922, "- N/A -   "
6.08, 202.28, 0.010324, NaN, NaN, NaN, 0.0347922, "- N/A -   "
6.1, 202.9876, 0.0103573, NaN, NaN, NaN, 0.0335714, "- N/A -   "
6.12, 203.577, 0.0103906, NaN, NaN, NaN, 0.0335714, "- N/A -   "
6.14, 204.285, 0.0104239, NaN, NaN, NaN, 0.0335714, "- N/A -   "
6.16, 204.9927, 0.0104572, NaN, NaN, NaN, 0.0335714, "- N/A -   "
6.18, 205.7, 0.0104906, NaN, NaN, NaN, 0.0335714, "- N/A -   "
6.2, 206.29, 0.01052389, NaN, NaN, NaN, 0.0335714, "- N/A -   "
6.22, 206.9978, 0.0105572, NaN, NaN, NaN, 0.0335714, "- N/A -   "
6.24, 207.588, 0.0105933, NaN, NaN, NaN, 0.0335714, "- N/A -   "
6.26, 208.295, 0.0106239, NaN, NaN, NaN, 0.0335714, "- N/A -   "
6.28, 208.885, 0.01066, NaN, NaN, NaN, 0.0323506, "- N/A -   "
6.3, 209.593, 0.010696, NaN, NaN, NaN, 0.03112983, "- N/A -   "
6.32, 210.182, 0.0107266, NaN, NaN, NaN, 0.0323506, "- N/A -   "
6.34, 210.772, 0.0107571, NaN, NaN, NaN, 0.0335714, "- N/A -   "
6.36, 211.362, 0.0107849, NaN, NaN, NaN, 0.03601294, "- N/A -   "
6.38, 211.9516, 0.0108154, NaN, NaN, NaN, 0.0372337, "- N/A -   "
6.4, 212.541, 0.010846, NaN, NaN, NaN, 0.0384545, "- N/A -   "
6.42, 213.131, 0.0108793, NaN, NaN, NaN, 0.0384545, "- N/A -   "
6.44, 213.721, 0.0109099, NaN, NaN, NaN, 0.04089605, "- N/A -   "
6.46, 214.311, 0.0109404, NaN, NaN, NaN, 0.04211683, "- N/A -   "
6.48, 214.9, 0.0109709, NaN, NaN, NaN, 0.04211683, "- N/A -   "
6.5, 215.49, 0.0110043, NaN, NaN, NaN, 0.0433376, "- N/A -   "
6.52, 216.198, 0.0110348, NaN, NaN, NaN, 0.0433376, "- N/A -   "
6.54, 216.787, 0.0110681, NaN, NaN, NaN, 0.0433376, "- N/A -   "
6.56, 217.377, 0.0111015, NaN, NaN, NaN, 0.0433376, "- N/A -   "
6.58, 218.321, 0.0111376, NaN, NaN, NaN, 0.04211683, "- N/A -   "
6.6, 219.028, 0.0111792, NaN, NaN, NaN, 0.0384545, "- N/A -   "
6.62, 219.8541, 0.0112181, NaN, NaN, NaN, 0.0372337, "- N/A -   "
6.64, 220.562, 0.0112542, NaN, NaN, NaN, 0.0347922, "- N/A -   "
6.66, 221.269, 0.0112903, NaN, NaN, NaN, 0.0335714, "- N/A -   "
6.68, 221.977, 0.0113236, NaN, NaN, NaN, 0.0335714, "- N/A -   "
6.7, 222.685, 0.0113597, NaN, NaN, NaN, 0.0335714, "- N/A -   "
6.72, 223.3925, 0.0113902, NaN, NaN, NaN, 0.0335714, "- N/A -   "
6.74, 223.982, 0.0114236, NaN, NaN, NaN, 0.0347922, "- N/A -   "
6.76, 224.572, 0.0114541, NaN, NaN, NaN, 0.0347922, "- N/A -   "
6.78, 225.28, 0.0114874, NaN, NaN, NaN, 0.0347922, "- N/A -   "
6.8, 225.987, 0.0115235, NaN, NaN, NaN, 0.0335714, "- N/A -   "
6.82, 226.695, 0.0115596, NaN, NaN, NaN, 0.0335714, "- N/A -   "
6.84, 227.403, 0.0115957, NaN, NaN, NaN, 0.0323506, "- N/A -   "
6.86, 228.11, 0.011629, NaN, NaN, NaN, 0.03112983, "- N/A -   "
6.88, 228.936, 0.0116679, NaN, NaN, NaN, 0.0286883, "- N/A -   "
6.9, 229.526, 0.0117012, NaN, NaN, NaN, 0.0286883, "- N/A -   "
6.92, 230.233, 0.0117318, NaN, NaN, NaN, 0.0299091, "- N/A -   "
6.94, 230.8232, 0.0117651, NaN, NaN, NaN, 0.03112983, "- N/A -   "
6.96, 231.413, 0.0117929, NaN, NaN, NaN, 0.0323506, "- N/A -   "
6.98, 232.003, 0.0118262, NaN, NaN, NaN, 0.0323506, "- N/A -   "
7, 232.592, 0.0118567, NaN, NaN, NaN, 0.0347922, "- N/A -   "
7.02, 233.182, 0.0118845, NaN, NaN, NaN, 0.03601294, "- N/A -   "
7.04, 233.772, 0.011915, NaN, NaN, NaN, 0.0372337, "- N/A -   "
7.06, 234.362, 0.0119428, NaN, NaN, NaN, 0.04089605, "- N/A -   "
7.08, 234.833, 0.0119706, NaN, NaN, NaN, 0.04211683, "- N/A -   "
7.1, 235.423, 0.0120011, NaN, NaN, NaN, 0.0433376, "- N/A -   "
7.12, 236.0129, 0.0120317, NaN, NaN, NaN, 0.0445584, "- N/A -   "
7.14, 236.721, 0.01206221, NaN, NaN, NaN, 0.04577916, "- N/A -   "
7.16, 237.3103, 0.0120955, NaN, NaN, NaN, 0.04699994, "- N/A -   "
7.18, 238.136, 0.0121289, NaN, NaN, NaN, 0.04577916, "- N/A -   "
7.2, 238.844, 0.0121649, NaN, NaN, NaN, 0.0445584, "- N/A -   "
7.22, 239.551, 0.0122038, NaN, NaN, NaN, 0.04211683, "- N/A -   "
7.24, 240.495, 0.0122427, NaN, NaN, NaN, 0.0396753, "- N/A -   "
7.26, 241.203, 0.0122788, NaN, NaN, NaN, 0.0396753, "- N/A -   "
7.28, 241.91, 0.0123121, NaN, NaN, NaN, 0.0384545, "- N/A -   "
7.3, 242.736, 0.012351, NaN, NaN, NaN, 0.0372337, "- N/A -   "
7.32, 243.443, 0.01238709, NaN, NaN, NaN, 0.03601294, "- N/A -   "
7.34, 244.15, 0.0124204, NaN, NaN, NaN, 0.0347922, "- N/A -   "
7.36, 244.857, 0.0124565, NaN, NaN, NaN, 0.0347922, "- N/A -   "
7.38, 245.446, 0.01248983, NaN, NaN, NaN, 0.0347922, "- N/A -   "
7.4, 246.27, 0.0125259, NaN, NaN, NaN, 0.0335714, "- N/A -   "
7.42, 247.095, 0.012562, NaN, NaN, NaN, 0.03112983, "- N/A -   "
7.44, 247.92, 0.0126009, NaN, NaN, NaN, 0.0299091, "- N/A -   "
7.46, 248.509, 0.012637, NaN, NaN, NaN, 0.0286883, "- N/A -   "
7.48, 249.216, 0.0126703, NaN, NaN, NaN, 0.0286883, "- N/A -   "
7.5, 249.805, 0.0127009, NaN, NaN, NaN, 0.0286883, "- N/A -   "
7.52, 250.63, 0.0127342, NaN, NaN, NaN, 0.0286883, "- N/A -   "
7.54, 251.219, 0.0127703, NaN, NaN, NaN, 0.0286883, "- N/A -   "
7.56, 251.926, 0.0128008, NaN, NaN, NaN, 0.0286883, "- N/A -   "
7.58, 252.397, 0.01283137, NaN, NaN, NaN, 0.0299091, "- N/A -   "
7.6, 253.222, 0.0128591, NaN, NaN, NaN, 0.0323506, "- N/A -   "
7.62, 253.576, 0.0128897, NaN, NaN, NaN, 0.0335714, "- N/A -   "
7.64, 254.165, 0.01291745, NaN, NaN, NaN, 0.03601294, "- N/A -   "
7.66, 254.872, 0.0129508, NaN, NaN, NaN, 0.0372337, "- N/A -   "
7.68, 255.579, 0.0129813, NaN, NaN, NaN, 0.0372337, "- N/A -   "
7.7, 256.168, 0.0130091, NaN, NaN, NaN, 0.0396753, "- N/A -   "
7.72, 256.639, 0.0130396, NaN, NaN, NaN, 0.04211683, "- N/A -   "
7.74, 257.346, 0.0130702, NaN, NaN, NaN, 0.0433376, "- N/A -   "
7.76, 258.053, 0.0131007, NaN, NaN, NaN, 0.0433376, "- N/A -   "
7.78, 258.642, 0.01313126, NaN, NaN, NaN, 0.0445584, "- N/A -   "
7.8, 259.349, 0.0131674, NaN, NaN, NaN, 0.0433376, "- N/A -   "
7.82, 260.0561, 0.0132007, NaN, NaN, NaN, 0.0433376, "- N/A -   "
7.84, 260.8809, 0.013234, NaN, NaN, NaN, 0.0433376, "- N/A -   "
7.86, 261.588, 0.0132701, NaN, NaN, NaN, 0.0433376, "- N/A -   "
7.88, 262.295, 0.0133034, NaN, NaN, NaN, 0.04211683, "- N/A -   "
7.9, 263.12, 0.0133395, NaN, NaN, NaN, 0.04211683, "- N/A -   "
7.92, 263.8265, 0.0133756, NaN, NaN, NaN, 0.04089605, "- N/A -   "
7.94, 264.769, 0.0134145, NaN, NaN, NaN, 0.0384545, "- N/A -   "
7.96, 265.476, 0.0134506, NaN, NaN, NaN, 0.03601294, "- N/A -   "
7.97, 265.83, 0.01347, NaN, NaN, NaN, 0.0347922, "- N/A -   "
7.98, 266.301, 0.0134895, NaN, NaN, NaN, 0.0335714, "- N/A -   "
8, 267.126, 0.0135283, NaN, NaN, NaN, 0.03112983, "- N/A -   "
8.02, 267.95, 0.01356721, NaN, NaN, NaN, 0.0299091, "- N/A -   "
8.04, 268.7752, 0.0136033, NaN, NaN, NaN, 0.0274675, "- N/A -   "
8.06, 269.364, 0.0136366, NaN, NaN, NaN, 0.0274675, "- N/A -   "
8.08, 269.836, 0.0136644, NaN, NaN, NaN, 0.03112983, "- N/A -   "
8.1, 270.5426, 0.01369494, NaN, NaN, NaN, 0.0323506, "- N/A -   "
8.12, 271.25, 0.0137283, NaN, NaN, NaN, 0.0323506, "- N/A -   "
8.14, 271.9565, 0.0137644, NaN, NaN, NaN, 0.0323506, "- N/A -   "
8.16, 272.7813, 0.0137977, NaN, NaN, NaN, 0.0323506, "- N/A -   "
8.18, 273.37, 0.0138282, NaN, NaN, NaN, 0.0323506, "- N/A -   "
8.2, 274.195, 0.0138615, NaN, NaN, NaN, 0.0335714, "- N/A -   "
8.22, 274.784, 0.01389209, NaN, NaN, NaN, 0.0335714, "- N/A -   "
8.24, 275.4913, 0.0139254, NaN, NaN, NaN, 0.0335714, "- N/A -   "
8.26, 276.08, 0.013956, NaN, NaN, NaN, 0.03601294, "- N/A -   "
8.28, 276.787, 0.0139837, NaN, NaN, NaN, 0.0372337, "- N/A -   "
8.3, 277.377, 0.0140143, NaN, NaN, NaN, 0.0384545, "- N/A -   "
8.32, 278.2013, 0.0140476, NaN, NaN, NaN, 0.0384545, "- N/A -   "
8.34, 278.79, 0.0140837, NaN, NaN, NaN, 0.0384545, "- N/A -   "
8.36, 279.497, 0.0141142, NaN, NaN, NaN, 0.0384545, "- N/A -   "
8.38, 280.204, 0.0141448, NaN, NaN, NaN, 0.0396753, "- N/A -   "
8.4, 280.7935, 0.0141753, NaN, NaN, NaN, 0.04089605, "- N/A -   "
8.42, 281.3826, 0.0142059, NaN, NaN, NaN, 0.0433376, "- N/A -   "
8.44, 282.09, 0.0142336, NaN, NaN, NaN, 0.0445584, "- N/A -   "
8.46, 282.6787, 0.014267, NaN, NaN, NaN, 0.04577916, "- N/A -   "
8.48, 283.503, 0.0143003, NaN, NaN, NaN, 0.0445584, "- N/A -   "
8.5, 284.21, 0.0143336, NaN, NaN, NaN, 0.0445584, "- N/A -   "
8.52, 285.035, 0.0143669, NaN, NaN, NaN, 0.0445584, "- N/A -   "
8.54, 285.7422, 0.0144002, NaN, NaN, NaN, 0.0445584, "- N/A -   "
8.56, 286.3313, 0.0144363, NaN, NaN, NaN, 0.0433376, "- N/A -   "
8.58, 287.274, 0.0144752, NaN, NaN, NaN, 0.04089605, "- N/A -   "
8.6, 288.217, 0.0145169, NaN, NaN, NaN, 0.0372337, "- N/A -   "
8.62, 289.159, 0.0145585, NaN, NaN, NaN, 0.0335714, "- N/A -   "
8.64, 289.984, 0.0145946, NaN, NaN, NaN, 0.0335714, "- N/A -   "
8.66, 290.6909, 0.0146307, NaN, NaN, NaN, 0.03112983, "- N/A -   "
8.68, 291.633, 0.0146668, NaN, NaN, NaN, 0.03112983, "- N/A -   "
8.7, 292.34, 0.0147029, NaN, NaN, NaN, 0.0299091, "- N/A -   "
8.72, 292.93, 0.0147334, NaN, NaN, NaN, 0.0299091, "- N/A -   "
8.74, 293.637, 0.014764, NaN, NaN, NaN, 0.03112983, "- N/A -   "
8.76, 294.108, 0.0147918, NaN, NaN, NaN, 0.0335714, "- N/A -   "
8.78, 294.697, 0.0148223, NaN, NaN, NaN, 0.0347922, "- N/A -   "
8.8, 295.522, 0.0148528, NaN, NaN, NaN, 0.03601294, "- N/A -   "
8.82, 296.2287, 0.0148862, NaN, NaN, NaN, 0.03601294, "- N/A -   "
8.84, 296.936, 0.0149195, NaN, NaN, NaN, 0.03601294, "- N/A -   "
8.86, 297.6426, 0.01495281, NaN, NaN, NaN, 0.0372337, "- N/A -   "
8.88, 298.35, 0.0149861, NaN, NaN, NaN, 0.03601294, "- N/A -   "
8.9, 299.174, 0.0150222, NaN, NaN, NaN, 0.0347922, "- N/A -   "
8.92, 299.999, 0.0150583, NaN, NaN, NaN, 0.0335714, "- N/A -   "
8.94, 300.8239, 0.0150916, NaN, NaN, NaN, 0.0335714, "- N/A -   "
8.96, 301.413, 0.015125, NaN, NaN, NaN, 0.0335714, "- N/A -   "
8.98, 302.238, 0.0151583, NaN, NaN, NaN, 0.0335714, "- N/A -   "
9, 302.709, 0.0151888, NaN, NaN, NaN, 0.0347922, "- N/A -   "
9.02, 303.5339, 0.0152194, NaN, NaN, NaN, 0.03601294, "- N/A -   "
9.04, 304.241, 0.0152499, NaN, NaN, NaN, 0.0372337, "- N/A -   "
9.06, 304.83, 0.0152805, NaN, NaN, NaN, 0.0384545, "- N/A -   "
9.08, 305.419, 0.01531101, NaN, NaN, NaN, 0.0396753, "- N/A -   "
9.1, 306.1261, 0.0153388, NaN, NaN, NaN, 0.04211683, "- N/A -   "
9.12, 306.833, 0.0153721, NaN, NaN, NaN, 0.04211683, "- N/A -   "
9.14, 307.54, 0.0154054, NaN, NaN, NaN, 0.04211683, "- N/A -   "
9.16, 308.247, 0.0154387, NaN, NaN, NaN, 0.04211683, "- N/A -   "
9.18, 309.072, 0.0154748, NaN, NaN, NaN, 0.04211683, "- N/A -   "
9.2, 309.8965, 0.01550816, NaN, NaN, NaN, 0.04089605, "- N/A -   "
9.22, 310.603, 0.01554148, NaN, NaN, NaN, 0.04089605, "- N/A -   "
9.24, 311.31, 0.0155776, NaN, NaN, NaN, 0.0396753, "- N/A -   "
9.26, 312.135, 0.0156109, NaN, NaN, NaN, 0.0396753, "- N/A -   "
9.28, 312.842, 0.015647, NaN, NaN, NaN, 0.0384545, "- N/A -   "
9.3, 313.7848, 0.0156831, NaN, NaN, NaN, 0.0372337, "- N/A -   "
9.32, 314.492, 0.0157192, NaN, NaN, NaN, 0.03601294, "- N/A -   "
9.34, 315.1987, 0.0157525, NaN, NaN, NaN, 0.03601294, "- N/A -   "
9.36, 316.1413, 0.0157858, NaN, NaN, NaN, 0.03601294, "- N/A -   "
9.38, 316.73, 0.0158219, NaN, NaN, NaN, 0.03601294, "- N/A -   "
9.4, 317.5552, 0.0158553, NaN, NaN, NaN, 0.0347922, "- N/A -   "
9.42, 318.262, 0.0158886, NaN, NaN, NaN, 0.03601294, "- N/A -   "
9.44, 318.969, 0.01591912, NaN, NaN, NaN, 0.03601294, "- N/A -   "
9.46, 319.6761, 0.0159552, NaN, NaN, NaN, 0.03601294, "- N/A -   "
9.48, 320.501, 0.0159885, NaN, NaN, NaN, 0.0347922, "- N/A -   "
9.5, 321.208, 0.0160246, NaN, NaN, NaN, 0.0335714, "- N/A -   "
9.52, 322.033, 0.016058, NaN, NaN, NaN, 0.0335714, "- N/A -   "
9.54, 322.8574, 0.0160913, NaN, NaN, NaN, 0.0335714, "- N/A -   "
9.56, 323.447, 0.0161274, NaN, NaN, NaN, 0.0323506, "- N/A -   "
9.58, 324.2713, 0.0161607, NaN, NaN, NaN, 0.0323506, "- N/A -   "
9.6, 324.978, 0.01619124, NaN, NaN, NaN, 0.0335714, "- N/A -   "
9.62, 325.567, 0.0162218, NaN, NaN, NaN, 0.0347922, "- N/A -   "
9.64, 326.274, 0.0162523, NaN, NaN, NaN, 0.03601294, "- N/A -   "
9.66, 326.9813, 0.01628565, NaN, NaN, NaN, 0.03601294, "- N/A -   "
9.68, 327.688, 0.016319, NaN, NaN, NaN, 0.03601294, "- N/A -   "
9.7, 328.395, 0.0163523, NaN, NaN, NaN, 0.03601294, "- N/A -   "
9.72, 329.338, 0.01638839, NaN, NaN, NaN, 0.0347922, "- N/A -   "
9.74, 330.0448, 0.0164189, NaN, NaN, NaN, 0.03601294, "- N/A -   "
9.76, 330.752, 0.0164523, NaN, NaN, NaN, 0.03601294, "- N/A -   "
9.78, 331.4587, 0.0164828, NaN, NaN, NaN, 0.0372337, "- N/A -   "
9.8, 332.048, 0.0165133, NaN, NaN, NaN, 0.0384545, "- N/A -   "
9.82, 332.7548, 0.0165439, NaN, NaN, NaN, 0.0396753, "- N/A -   "
9.84, 333.462, 0.0165772, NaN, NaN, NaN, 0.04089605, "- N/A -   "
9.86, 334.1687, 0.0166078, NaN, NaN, NaN, 0.04089605, "- N/A -   "
9.88, 334.876, 0.0166411, NaN, NaN, NaN, 0.04089605, "- N/A -   "
9.9, 335.5826, 0.0166716, NaN, NaN, NaN, 0.0433376, "- N/A -   "
9.92, 336.4074, 0.0167022, NaN, NaN, NaN, 0.0433376, "- N/A -   "
9.94, 336.997, 0.0167355, NaN, NaN, NaN, 0.0445584, "- N/A -   "
9.96, 337.821, 0.016766, NaN, NaN, NaN, 0.0445584, "- N/A -   "
9.98, 338.528, 0.0168021, NaN, NaN, NaN, 0.0433376, "- N/A -   "
10, 339.4709, 0.016841, NaN, NaN, NaN, 0.04089605, "- N/A -   "
10.02, 340.296, 0.0168799, NaN, NaN, NaN, 0.0384545, "- N/A -   "
10.04, 341.238, 0.0169187, NaN, NaN, NaN, 0.03601294, "- N/A -   "
10.06, 341.945, 0.0169548, NaN, NaN, NaN, 0.0347922, "- N/A -   "
10.08, 342.888, 0.0169909, NaN, NaN, NaN, 0.0335714, "- N/A -   "
10.1, 343.713, 0.017027, NaN, NaN, NaN, 0.0323506, "- N/A -   "
10.12, 344.4196, 0.0170604, NaN, NaN, NaN, 0.0323506, "- N/A -   "
10.14, 345.127, 0.0170937, NaN, NaN, NaN, 0.0335714, "- N/A -   "
10.16, 345.9513, 0.017127, NaN, NaN, NaN, 0.0335714, "- N/A -   "
10.18, 346.658, 0.0171603, NaN, NaN, NaN, 0.0335714, "- N/A -   "
10.2, 347.365, 0.0171936, NaN, NaN, NaN, 0.0323506, "- N/A -   "
10.22, 348.19, 0.0172297, NaN, NaN, NaN, 0.0323506, "- N/A -   "
10.24, 349.1326, 0.0172658, NaN, NaN, NaN, 0.03112983, "- N/A -   "
10.26, 349.9574, 0.0173019, NaN, NaN, NaN, 0.0286883, "- N/A -   "
10.28, 350.664, 0.01733804, NaN, NaN, NaN, 0.0274675, "- N/A -   "
10.3, 351.371, 0.01737136, NaN, NaN, NaN, 0.0274675, "- N/A -   "
10.32, 352.078, 0.0174019, NaN, NaN, NaN, 0.0286883, "- N/A -   "
10.34, 352.6674, 0.01743245, NaN, NaN, NaN, 0.0299091, "- N/A -   "
10.36, 353.4922, 0.017463, NaN, NaN, NaN, 0.03112983, "- N/A -   "
10.38, 354.199, 0.0174935, NaN, NaN, NaN, 0.0323506, "- N/A -   "
10.4, 354.788, 0.01752686, NaN, NaN, NaN, 0.0335714, "- N/A -   "
10.42, 355.4952, 0.0175546, NaN, NaN, NaN, 0.0347922, "- N/A -   "
10.44, 356.084, 0.0175824, NaN, NaN, NaN, 0.0372337, "- N/A -   "
10.46, 356.556, 0.01761016, NaN, NaN, NaN, 0.0396753, "- N/A -   "
10.48, 357.2626, 0.0176407, NaN, NaN, NaN, 0.04211683, "- N/A -   "
10.5, 357.97, 0.0176685, NaN, NaN, NaN, 0.0433376, "- N/A -   "
10.52, 358.5587, 0.0176962, NaN, NaN, NaN, 0.04577916, "- N/A -   "
10.54, 359.266, 0.0177268, NaN, NaN, NaN, 0.04699994, "- N/A -   "
10.56, 359.9726, 0.0177573, NaN, NaN, NaN, 0.0482207, "- N/A -   "
10.58, 360.68, 0.0177879, NaN, NaN, NaN, 0.0494415, "- N/A -   "
10.6, 361.504, 0.01782397, NaN, NaN, NaN, 0.0482207, "- N/A -   "
10.62, 362.447, 0.0178628, NaN, NaN, NaN, 0.04577916, "- N/A -   "
10.64, 363.3896, 0.0179045, NaN, NaN, NaN, 0.04211683, "- N/A -   "
10.66, 364.332, 0.0179461, NaN, NaN, NaN, 0.0384545, "- N/A -   "
10.68, 365.157, 0.0179822, NaN, NaN, NaN, 0.0372337, "- N/A -   "
10.7, 366.1, 0.0180183, NaN, NaN, NaN, 0.03601294, "- N/A -   "
10.72, 366.924, 0.0180572, NaN, NaN, NaN, 0.0347922, "- N/A -   "
10.74, 367.867, 0.0180933, NaN, NaN, NaN, 0.0323506, "- N/A -   "
10.76, 368.5739, 0.0181266, NaN, NaN, NaN, 0.0323506, "- N/A -   "
10.78, 369.281, 0.01816, NaN, NaN, NaN, 0.0323506, "- N/A -   "
10.8, 369.87, 0.0181877, NaN, NaN, NaN, 0.0347922, "- N/A -   "
10.82, 370.813, 0.0182238, NaN, NaN, NaN, 0.0335714, "- N/A -   "
10.84, 371.6374, 0.0182627, NaN, NaN, NaN, 0.03112983, "- N/A -   "
10.86, 372.4622, 0.018296, NaN, NaN, NaN, 0.03112983, "- N/A -   "
10.88, 373.169, 0.01832934, NaN, NaN, NaN, 0.03112983, "- N/A -   "
10.9, 373.9939, 0.01836266, NaN, NaN, NaN, 0.03112983, "- N/A -   "
10.92, 374.8187, 0.0184015, NaN, NaN, NaN, 0.0299091, "- N/A -   "
10.94, 375.643, 0.0184349, NaN, NaN, NaN, 0.0286883, "- N/A -   "
10.96, 376.35, 0.018471, NaN, NaN, NaN, 0.0286883, "- N/A -   "
10.98, 377.057, 0.0185015, NaN, NaN, NaN, 0.0299091, "- N/A -   "
11, 377.764, 0.018532, NaN, NaN, NaN, 0.03112983, "- N/A -   "
11.02, 378.353, 0.0185626, NaN, NaN, NaN, 0.03112983, "- N/A -   "
11.04, 379.178, 0.0185904, NaN, NaN, NaN, 0.0335714, "- N/A -   "
11.06, 379.885, 0.0186237, NaN, NaN, NaN, 0.0347922, "- N/A -   "
11.08, 380.3565, 0.0186514, NaN, NaN, NaN, 0.0372337, "- N/A -   "
11.1, 381.1813, 0.018682, NaN, NaN, NaN, 0.0384545, "- N/A -   "
11.12, 381.888, 0.0187125, NaN, NaN, NaN, 0.0384545, "- N/A -   "
11.14, 382.4774, 0.0187431, NaN, NaN, NaN, 0.0396753, "- N/A -   "
11.16, 383.184, 0.01877362, NaN, NaN, NaN, 0.04089605, "- N/A -   "
11.18, 384.009, 0.0188097, NaN, NaN, NaN, 0.0396753, "- N/A -   "
11.2, 384.834, 0.018843, NaN, NaN, NaN, 0.0396753, "- N/A -   "
11.22, 385.541, 0.0188764, NaN, NaN, NaN, 0.0396753, "- N/A -   "
11.24, 386.366, 0.0189069, NaN, NaN, NaN, 0.04089605, "- N/A -   "
11.26, 387.0726, 0.0189402, NaN, NaN, NaN, 0.04211683, "- N/A -   "
11.28, 387.8974, 0.0189735, NaN, NaN, NaN, 0.04089605, "- N/A -   "
11.3, 388.604, 0.0190069, NaN, NaN, NaN, 0.04089605, "- N/A -   "
11.32, 389.3113, 0.0190402, NaN, NaN, NaN, 0.04089605, "- N/A -   "
11.34, 390.1361, 0.0190735, NaN, NaN, NaN, 0.04089605, "- N/A -   "
11.36, 390.843, 0.01910683, NaN, NaN, NaN, 0.04089605, "- N/A -   "
11.38, 391.668, 0.0191429, NaN, NaN, NaN, 0.04089605, "- N/A -   "
11.4, 392.4926, 0.0191735, NaN, NaN, NaN, 0.04089605, "- N/A -   "
11.42, 393.317, 0.0192123, NaN, NaN, NaN, 0.0384545, "- N/A -   "
11.44, 394.26, 0.0192484, NaN, NaN, NaN, 0.0372337, "- N/A -   "
11.46, 395.085, 0.0192845, NaN, NaN, NaN, 0.03601294, "- N/A -   "
11.48, 395.792, 0.01932064, NaN, NaN, NaN, 0.03601294, "- N/A -   "
11.5, 396.499, 0.0193512, NaN, NaN, NaN, 0.03601294, "- N/A -   "
11.52, 397.3235, 0.0193845, NaN, NaN, NaN, 0.03601294, "- N/A -   "
11.54, 398.03, 0.0194178, NaN, NaN, NaN, 0.0372337, "- N/A -   "
11.56, 398.855, 0.0194539, NaN, NaN, NaN, 0.03601294, "- N/A -   "
11.58, 399.798, 0.01949, NaN, NaN, NaN, 0.0347922, "- N/A -   "
11.6, 400.623, 0.0195233, NaN, NaN, NaN, 0.0335714, "- N/A -   "
11.62, 401.447, 0.0195594, NaN, NaN, NaN, 0.0323506, "- N/A -   "
11.64, 402.2722, 0.0195955, NaN, NaN, NaN, 0.03112983, "- N/A -   "
11.66, 403.097, 0.0196261, NaN, NaN, NaN, 0.0323506, "- N/A -   "
[...]
22.08, 834.5142, 0.0369752, NaN, NaN, NaN, 0.04089605, "- N/A -   "
22.1, 835.2239, 0.037003, NaN, NaN, NaN, 0.0433376, "- N/A -   "
22.12, 836.0519, 0.03703354, NaN, NaN, NaN, 0.0445584, "- N/A -   "
22.14, 836.762, 0.0370669, NaN, NaN, NaN, 0.0445584, "- N/A -   "
22.16, 837.5895, 0.0370974, NaN, NaN, NaN, 0.04577916, "- N/A -   "
22.18, 838.4175, 0.03713073, NaN, NaN, NaN, 0.04577916, "- N/A -   "
22.2, 839.2454, 0.0371668, NaN, NaN, NaN, 0.0445584, "- N/A -   "
22.22, 840.31, 0.0372029, NaN, NaN, NaN, 0.0433376, "- N/A -   "
22.24, 841.3745, 0.0372418, NaN, NaN, NaN, 0.04089605, "- N/A -   "
22.26, 842.321, 0.03728067, NaN, NaN, NaN, 0.0384545, "- N/A -   "
22.28, 843.385, 0.03732232, NaN, NaN, NaN, 0.0347922, "- N/A -   "
22.3, 844.332, 0.0373612, NaN, NaN, NaN, 0.0323506, "- N/A -   "
22.32, 845.396, 0.0373973, NaN, NaN, NaN, 0.0323506, "- N/A -   "
22.34, 846.224, 0.0374306, NaN, NaN, NaN, 0.03112983, "- N/A -   "
22.36, 847.1703, 0.0374667, NaN, NaN, NaN, 0.0299091, "- N/A -   "
22.38, 847.88, 0.0374973, NaN, NaN, NaN, 0.03112983, "- N/A -   "
22.4, 848.708, 0.0375278, NaN, NaN, NaN, 0.0323506, "- N/A -   "
22.42, 849.5359, 0.0375583, NaN, NaN, NaN, 0.0335714, "- N/A -   "
22.44, 850.246, 0.03758889, NaN, NaN, NaN, 0.0347922, "- N/A -   "
22.46, 851.0735, 0.03762221, NaN, NaN, NaN, 0.0347922, "- N/A -   "
22.48, 851.9015, 0.0376528, NaN, NaN, NaN, 0.03601294, "- N/A -   "
22.5, 852.8477, 0.0376889, NaN, NaN, NaN, 0.03601294, "- N/A -   "
22.52, 853.794, 0.0377222, NaN, NaN, NaN, 0.0347922, "- N/A -   "
22.54, 854.74, 0.0377583, NaN, NaN, NaN, 0.0347922, "- N/A -   "
22.56, 855.5682, 0.03779437, NaN, NaN, NaN, 0.0323506, "- N/A -   "
22.58, 856.633, 0.03782769, NaN, NaN, NaN, 0.0323506, "- N/A -   "
22.6, 857.4607, 0.0378638, NaN, NaN, NaN, 0.03112983, "- N/A -   "
22.62, 858.289, 0.0378943, NaN, NaN, NaN, 0.0323506, "- N/A -   "
22.64, 858.9983, 0.0379277, NaN, NaN, NaN, 0.0335714, "- N/A -   "
22.66, 859.8263, 0.0379554, NaN, NaN, NaN, 0.0347922, "- N/A -   "
22.68, 860.536, 0.03798319, NaN, NaN, NaN, 0.0372337, "- N/A -   "
22.7, 861.246, 0.0380137, NaN, NaN, NaN, 0.0384545, "- N/A -   "
22.72, 862.074, 0.0380443, NaN, NaN, NaN, 0.0396753, "- N/A -   "
22.74, 862.7833, 0.0380776, NaN, NaN, NaN, 0.04089605, "- N/A -   "
22.76, 863.73, 0.0381054, NaN, NaN, NaN, 0.04211683, "- N/A -   "
22.78, 864.558, 0.0381387, NaN, NaN, NaN, 0.04211683, "- N/A -   "
22.8, 865.3855, 0.0381748, NaN, NaN, NaN, 0.04089605, "- N/A -   "
22.82, 866.3317, 0.0382109, NaN, NaN, NaN, 0.0396753, "- N/A -   "
22.84, 867.1597, 0.0382442, NaN, NaN, NaN, 0.0396753, "- N/A -   "
22.86, 867.9877, 0.0382747, NaN, NaN, NaN, 0.04089605, "- N/A -   "
22.88, 868.8156, 0.0383108, NaN, NaN, NaN, 0.0396753, "- N/A -   "
22.9, 869.7619, 0.0383442, NaN, NaN, NaN, 0.0396753, "- N/A -   "
22.92, 870.59, 0.0383775, NaN, NaN, NaN, 0.0396753, "- N/A -   "
22.94, 871.5361, 0.0384136, NaN, NaN, NaN, 0.0396753, "- N/A -   "
22.96, 872.3641, 0.0384469, NaN, NaN, NaN, 0.0384545, "- N/A -   "
22.98, 873.3103, 0.0384802, NaN, NaN, NaN, 0.0384545, "- N/A -   "
23, 874.257, 0.03851355, NaN, NaN, NaN, 0.0384545, "- N/A -   "
23.02, 875.2028, 0.0385469, NaN, NaN, NaN, 0.0384545, "- N/A -   "
23.04, 875.794, 0.03857741, NaN, NaN, NaN, 0.0396753, "- N/A -   "
23.06, 876.7405, 0.0386107, NaN, NaN, NaN, 0.0396753, "- N/A -   "
23.08, 877.5685, 0.0386468, NaN, NaN, NaN, 0.0396753, "- N/A -   "
23.1, 878.633, 0.0386829, NaN, NaN, NaN, 0.0372337, "- N/A -   "
23.12, 879.697, 0.0387218, NaN, NaN, NaN, 0.0347922, "- N/A -   "
23.14, 880.525, 0.0387551, NaN, NaN, NaN, 0.0347922, "- N/A -   "
23.16, 881.4717, 0.03879122, NaN, NaN, NaN, 0.0335714, "- N/A -   "
23.18, 882.4179, 0.03882732, NaN, NaN, NaN, 0.0323506, "- N/A -   "
23.2, 883.1276, 0.0388579, NaN, NaN, NaN, 0.0335714, "- N/A -   "
23.22, 883.9556, 0.0388912, NaN, NaN, NaN, 0.0335714, "- N/A -   "
23.24, 884.9018, 0.0389245, NaN, NaN, NaN, 0.0335714, "- N/A -   "
23.26, 885.73, 0.03895783, NaN, NaN, NaN, 0.0347922, "- N/A -   "
23.28, 886.5578, 0.03899115, NaN, NaN, NaN, 0.0335714, "- N/A -   "
23.3, 887.386, 0.03902447, NaN, NaN, NaN, 0.0335714, "- N/A -   "
23.32, 888.214, 0.03905779, NaN, NaN, NaN, 0.0335714, "- N/A -   "
23.34, 889.16, 0.03909111, NaN, NaN, NaN, 0.0335714, "- N/A -   "
23.36, 889.9879, 0.03912721, NaN, NaN, NaN, 0.0323506, "- N/A -   "
23.38, 890.8159, 0.0391578, NaN, NaN, NaN, 0.0335714, "- N/A -   "
23.4, 891.5256, 0.0391883, NaN, NaN, NaN, 0.0347922, "- N/A -   "
23.42, 892.3535, 0.0392188, NaN, NaN, NaN, 0.0372337, "- N/A -   "
23.44, 893.1815, 0.0392494, NaN, NaN, NaN, 0.0384545, "- N/A -   "
23.46, 893.8912, 0.0392827, NaN, NaN, NaN, 0.0384545, "- N/A -   "
23.48, 894.9557, 0.039316, NaN, NaN, NaN, 0.0372337, "- N/A -   "
23.5, 895.6654, 0.03934935, NaN, NaN, NaN, 0.0372337, "- N/A -   "
23.52, 896.3751, 0.0393771, NaN, NaN, NaN, 0.0396753, "- N/A -   "
23.54, 897.0848, 0.03940488, NaN, NaN, NaN, 0.04211683, "- N/A -   "
23.56, 897.9127, 0.0394354, NaN, NaN, NaN, 0.0433376, "- N/A -   "
23.58, 898.7407, 0.03946875, NaN, NaN, NaN, 0.0445584, "- N/A -   "
23.6, 899.569, 0.0394993, NaN, NaN, NaN, 0.0445584, "- N/A -   "
23.62, 900.5149, 0.0395326, NaN, NaN, NaN, 0.0445584, "- N/A -   "
23.64, 901.4612, 0.03957149, NaN, NaN, NaN, 0.04211683, "- N/A -   "
23.66, 902.4074, 0.0396104, NaN, NaN, NaN, 0.0396753, "- N/A -   "
23.68, 903.5903, 0.03964924, NaN, NaN, NaN, 0.0372337, "- N/A -   "
23.7, 904.5365, 0.03969089, NaN, NaN, NaN, 0.0347922, "- N/A -   "
23.72, 905.601, 0.0397298, NaN, NaN, NaN, 0.0323506, "- N/A -   "
23.74, 906.547, 0.03976308, NaN, NaN, NaN, 0.03112983, "- N/A -   "
23.76, 907.3752, 0.0397936, NaN, NaN, NaN, 0.0323506, "- N/A -   "
23.78, 908.2031, 0.039827, NaN, NaN, NaN, 0.0323506, "- N/A -   "
23.8, 909.0312, 0.03986027, NaN, NaN, NaN, 0.0323506, "- N/A -   "
23.82, 909.859, 0.0398936, NaN, NaN, NaN, 0.0323506, "- N/A -   "
23.84, 910.6871, 0.0399269, NaN, NaN, NaN, 0.0323506, "- N/A -   "
23.86, 911.633, 0.03996023, NaN, NaN, NaN, 0.0335714, "- N/A -   "
23.88, 912.4613, 0.03999633, NaN, NaN, NaN, 0.0323506, "- N/A -   "
23.9, 913.526, 0.0400324, NaN, NaN, NaN, 0.0299091, "- N/A -   "
23.92, 914.472, 0.0400685, NaN, NaN, NaN, 0.0286883, "- N/A -   "
23.94, 915.3, 0.0401046, NaN, NaN, NaN, 0.0274675, "- N/A -   "
23.96, 916.128, 0.0401379, NaN, NaN, NaN, 0.0274675, "- N/A -   "
23.98, 917.0743, 0.0401713, NaN, NaN, NaN, 0.0274675, "- N/A -   "
24, 917.784, 0.0402018, NaN, NaN, NaN, 0.0286883, "- N/A -   "
24.02, 918.4936, 0.0402324, NaN, NaN, NaN, 0.0299091, "- N/A -   "
24.04, 919.4399, 0.04026012, NaN, NaN, NaN, 0.0323506, "- N/A -   "
24.06, 920.031, 0.04029067, NaN, NaN, NaN, 0.0335714, "- N/A -   "
24.08, 920.7409, 0.0403184, NaN, NaN, NaN, 0.03601294, "- N/A -   "
24.1, 921.4506, 0.0403462, NaN, NaN, NaN, 0.0384545, "- N/A -   "
24.12, 922.16, 0.04037675, NaN, NaN, NaN, 0.04089605, "- N/A -   "
24.14, 922.87, 0.0404045, NaN, NaN, NaN, 0.04211683, "- N/A -   "
24.16, 923.698, 0.0404351, NaN, NaN, NaN, 0.0433376, "- N/A -   "
24.18, 924.526, 0.0404684, NaN, NaN, NaN, 0.0445584, "- N/A -   "
24.2, 925.2356, 0.04049615, NaN, NaN, NaN, 0.04577916, "- N/A -   "
24.22, 925.9453, 0.04052669, NaN, NaN, NaN, 0.04699994, "- N/A -   "
24.24, 926.8916, 0.04056279, NaN, NaN, NaN, 0.04699994, "- N/A -   "
24.26, 927.8378, 0.04059611, NaN, NaN, NaN, 0.04577916, "- N/A -   "
24.28, 928.784, 0.040635, NaN, NaN, NaN, 0.0445584, "- N/A -   "
24.3, 929.8486, 0.04067386, NaN, NaN, NaN, 0.04089605, "- N/A -   "
24.32, 930.6765, 0.04071, NaN, NaN, NaN, 0.0396753, "- N/A -   "
24.34, 931.741, 0.0407461, NaN, NaN, NaN, 0.0384545, "- N/A -   "
24.36, 932.6873, 0.0407822, NaN, NaN, NaN, 0.0372337, "- N/A -   "
24.38, 933.515, 0.0408155, NaN, NaN, NaN, 0.0372337, "- N/A -   "
24.4, 934.3432, 0.0408488, NaN, NaN, NaN, 0.0372337, "- N/A -   "
24.42, 935.1712, 0.0408821, NaN, NaN, NaN, 0.0372337, "- N/A -   "
24.44, 935.999, 0.0409154, NaN, NaN, NaN, 0.0372337, "- N/A -   "
24.46, 937.064, 0.04095153, NaN, NaN, NaN, 0.03601294, "- N/A -   "
24.48, 938.01, 0.04099041, NaN, NaN, NaN, 0.0335714, "- N/A -   "
24.5, 938.9562, 0.0410265, NaN, NaN, NaN, 0.0323506, "- N/A -   "
24.52, 939.902, 0.04106538, NaN, NaN, NaN, 0.03112983, "- N/A -   "
24.54, 940.8487, 0.0411015, NaN, NaN, NaN, 0.0299091, "- N/A -   "
24.56, 941.677, 0.0411348, NaN, NaN, NaN, 0.0286883, "- N/A -   "
24.58, 942.6229, 0.04116812, NaN, NaN, NaN, 0.0286883, "- N/A -   "
24.6, 943.569, 0.0412014, NaN, NaN, NaN, 0.0286883, "- N/A -   "
24.62, 944.2788, 0.04123476, NaN, NaN, NaN, 0.0286883, "- N/A -   "
24.64, 945.3434, 0.04127086, NaN, NaN, NaN, 0.0274675, "- N/A -   "
24.66, 946.053, 0.0413014, NaN, NaN, NaN, 0.0286883, "- N/A -   "
24.68, 946.7627, 0.04133195, NaN, NaN, NaN, 0.0299091, "- N/A -   "
24.7, 947.4724, 0.0413597, NaN, NaN, NaN, 0.0323506, "- N/A -   "
24.72, 948.064, 0.0413875, NaN, NaN, NaN, 0.0347922, "- N/A -   "
24.74, 948.7735, 0.0414125, NaN, NaN, NaN, 0.0384545, "- N/A -   "
24.76, 949.483, 0.0414402, NaN, NaN, NaN, 0.04089605, "- N/A -   "
24.78, 950.0746, 0.04146801, NaN, NaN, NaN, 0.0433376, "- N/A -   "
24.8, 950.7843, 0.0414958, NaN, NaN, NaN, 0.04577916, "- N/A -   "
24.82, 951.612, 0.04152632, NaN, NaN, NaN, 0.04699994, "- N/A -   "
24.84, 952.4402, 0.04156242, NaN, NaN, NaN, 0.04699994, "- N/A -   "
24.86, 953.505, 0.0415985, NaN, NaN, NaN, 0.0445584, "- N/A -   "
24.88, 954.451, 0.0416346, NaN, NaN, NaN, 0.0433376, "- N/A -   "
24.9, 955.279, 0.0416679, NaN, NaN, NaN, 0.0433376, "- N/A -   "
24.92, 956.2252, 0.041704, NaN, NaN, NaN, 0.0433376, "- N/A -   "
24.94, 957.053, 0.0417374, NaN, NaN, NaN, 0.04211683, "- N/A -   "
24.96, 957.9994, 0.0417707, NaN, NaN, NaN, 0.04211683, "- N/A -   "
24.98, 958.8274, 0.041804, NaN, NaN, NaN, 0.04211683, "- N/A -   "
25, 959.655, 0.04183732, NaN, NaN, NaN, 0.04211683, "- N/A -   "
25.02, 960.602, 0.0418762, NaN, NaN, NaN, 0.04089605, "- N/A -   "
25.04, 961.7844, 0.0419151, NaN, NaN, NaN, 0.0372337, "- N/A -   "
25.06, 962.967, 0.0419595, NaN, NaN, NaN, 0.0323506, "- N/A -   "
25.08, 964.032, 0.0420011, NaN, NaN, NaN, 0.0286883, "- N/A -   "
25.1, 964.978, 0.04204002, NaN, NaN, NaN, 0.0274675, "- N/A -   "
25.12, 966.043, 0.0420733, NaN, NaN, NaN, 0.0262467, "- N/A -   "
25.14, 966.8705, 0.0421094, NaN, NaN, NaN, 0.0250259, "- N/A -   "
25.16, 967.6984, 0.04214276, NaN, NaN, NaN, 0.0250259, "- N/A -   "
25.18, 968.6447, 0.04217608, NaN, NaN, NaN, 0.0250259, "- N/A -   "
25.2, 969.3544, 0.0422066, NaN, NaN, NaN, 0.0262467, "- N/A -   "
25.22, 970.1823, 0.04223995, NaN, NaN, NaN, 0.0274675, "- N/A -   "
25.24, 970.892, 0.0422677, NaN, NaN, NaN, 0.0286883, "- N/A -   "
25.26, 971.602, 0.0422955, NaN, NaN, NaN, 0.03112983, "- N/A -   "
25.28, 972.548, 0.0423288, NaN, NaN, NaN, 0.03112983, "- N/A -   "
25.3, 973.3759, 0.04235935, NaN, NaN, NaN, 0.0323506, "- N/A -   "
25.32, 974.086, 0.0423927, NaN, NaN, NaN, 0.0335714, "- N/A -   "
25.34, 974.9136, 0.0424204, NaN, NaN, NaN, 0.0347922, "- N/A -   "
25.36, 975.7415, 0.04245376, NaN, NaN, NaN, 0.0347922, "- N/A -   "
25.38, 976.6878, 0.0424899, NaN, NaN, NaN, 0.0347922, "- N/A -   "
25.4, 977.516, 0.0425232, NaN, NaN, NaN, 0.0347922, "- N/A -   "
25.42, 978.3437, 0.04255372, NaN, NaN, NaN, 0.0347922, "- N/A -   "
25.44, 979.0534, 0.0425843, NaN, NaN, NaN, 0.0372337, "- N/A -   "
25.46, 979.881, 0.04261481, NaN, NaN, NaN, 0.0372337, "- N/A -   "
25.48, 980.591, 0.0426426, NaN, NaN, NaN, 0.0396753, "- N/A -   "
25.5, 981.3007, 0.0426731, NaN, NaN, NaN, 0.04089605, "- N/A -   "
25.52, 982.1287, 0.0427064, NaN, NaN, NaN, 0.04089605, "- N/A -   "
25.54, 982.8384, 0.04273421, NaN, NaN, NaN, 0.0433376, "- N/A -   "
25.56, 983.548, 0.042762, NaN, NaN, NaN, 0.04577916, "- N/A -   "
25.58, 984.4943, 0.0427953, NaN, NaN, NaN, 0.04577916, "- N/A -   "
25.6, 985.322, 0.0428314, NaN, NaN, NaN, 0.0445584, "- N/A -   "
25.62, 986.3868, 0.0428675, NaN, NaN, NaN, 0.0433376, "- N/A -   "
25.64, 987.451, 0.0429064, NaN, NaN, NaN, 0.04089605, "- N/A -   "
25.66, 988.516, 0.04294524, NaN, NaN, NaN, 0.0384545, "- N/A -   "
25.68, 989.462, 0.0429841, NaN, NaN, NaN, 0.03601294, "- N/A -   "
25.7, 990.5267, 0.0430202, NaN, NaN, NaN, 0.0347922, "- N/A -   "
25.72, 991.2363, 0.0430563, NaN, NaN, NaN, 0.0335714, "- N/A -   "
25.74, 992.3009, 0.04309241, NaN, NaN, NaN, 0.0335714, "- N/A -   "
25.76, 993.129, 0.04312573, NaN, NaN, NaN, 0.0323506, "- N/A -   "
25.78, 993.9568, 0.0431591, NaN, NaN, NaN, 0.0323506, "- N/A -   "
25.8, 994.7848, 0.0431896, NaN, NaN, NaN, 0.0335714, "- N/A -   "
25.82, 995.494, 0.0432201, NaN, NaN, NaN, 0.0347922, "- N/A -   "
25.84, 996.3224, 0.0432507, NaN, NaN, NaN, 0.03601294, "- N/A -   "
25.86, 997.032, 0.0432812, NaN, NaN, NaN, 0.0372337, "- N/A -   "
25.88, 998.0966, 0.04331455, NaN, NaN, NaN, 0.0372337, "- N/A -   "
25.9, 998.925, 0.0433479, NaN, NaN, NaN, 0.0372337, "- N/A -   "
25.92, 999.7525, 0.04338397, NaN, NaN, NaN, 0.03601294, "- N/A -   "
25.94, 1000.7, 0.0434201, NaN, NaN, NaN, 0.0347922, "- N/A -   "
25.96, 1001.53, 0.0434562, NaN, NaN, NaN, 0.0335714, "- N/A -   "
25.98, 1002.59, 0.04349226, NaN, NaN, NaN, 0.0323506, "- N/A -   "
26, 1003.54, 0.04352836, NaN, NaN, NaN, 0.03112983, "- N/A -   "
26.02, 1004.37, 0.0435617, NaN, NaN, NaN, 0.0323506, "- N/A -   "
26.04, 1005.19, 0.0435922, NaN, NaN, NaN, 0.0323506, "- N/A -   "
26.06, 1006.02, 0.04362555, NaN, NaN, NaN, 0.0323506, "- N/A -   "
26.08, 1006.85, 0.0436589, NaN, NaN, NaN, 0.0323506, "- N/A -   "
26.1, 1007.68, 0.04368941, NaN, NaN, NaN, 0.0335714, "- N/A -   "
26.12, 1008.39, 0.04371996, NaN, NaN, NaN, 0.0347922, "- N/A -   "
26.14, 1009.1, 0.0437449, NaN, NaN, NaN, 0.0384545, "- N/A -   "
26.16, 1009.69, 0.0437755, NaN, NaN, NaN, 0.0396753, "- N/A -   "
26.18, 1010.63, 0.043806, NaN, NaN, NaN, 0.04211683, "- N/A -   "
26.2, 1011.58, 0.0438394, NaN, NaN, NaN, 0.04211683, "- N/A -   "
26.22, 1012.41, 0.0438727, NaN, NaN, NaN, 0.04211683, "- N/A -   "
26.24, 1013.24, 0.043906, NaN, NaN, NaN, 0.04211683, "- N/A -   "
26.26, 1014.07, 0.0439421, NaN, NaN, NaN, 0.04089605, "- N/A -   "
26.28, 1015.15, 0.0439754, NaN, NaN, NaN, 0.04089605, "- N/A -   "
26.3, 1016.1, 0.04401429, NaN, NaN, NaN, 0.0384545, "- N/A -   "
26.32, 1016.94, 0.0440476, NaN, NaN, NaN, 0.0384545, "- N/A -   "
26.34, 1017.89, 0.04408093, NaN, NaN, NaN, 0.0384545, "- N/A -   "
26.36, 1018.72, 0.04411703, NaN, NaN, NaN, 0.0384545, "- N/A -   "
26.38, 1019.56, 0.0441504, NaN, NaN, NaN, 0.0384545, "- N/A -   "
26.4, 1020.39, 0.0441837, NaN, NaN, NaN, 0.0372337, "- N/A -   "
26.42, 1021.35, 0.04421977, NaN, NaN, NaN, 0.03601294, "- N/A -   "
26.44, 1022.18, 0.0442503, NaN, NaN, NaN, 0.0372337, "- N/A -   "
26.46, 1023.02, 0.0442836, NaN, NaN, NaN, 0.0384545, "- N/A -   "
26.48, 1023.97, 0.0443197, NaN, NaN, NaN, 0.03601294, "- N/A -   "
26.5, 1024.93, 0.0443558, NaN, NaN, NaN, 0.0347922, "- N/A -   "
26.52, 1026, 0.04439193, NaN, NaN, NaN, 0.0335714, "- N/A -   "
26.54, 1026.95, 0.0444308, NaN, NaN, NaN, 0.0323506, "- N/A -   "
26.56, 1027.79, 0.0444641, NaN, NaN, NaN, 0.03112983, "- N/A -   "
26.58, 1028.74, 0.04449745, NaN, NaN, NaN, 0.03112983, "- N/A -   "
26.6, 1029.576, 0.0445308, NaN, NaN, NaN, 0.03112983, "- N/A -   "
26.62, 1030.41, 0.04456131, NaN, NaN, NaN, 0.0323506, "- N/A -   "
26.64, 1031.25, 0.04459463, NaN, NaN, NaN, 0.0323506, "- N/A -   "
26.66, 1031.961, 0.0446252, NaN, NaN, NaN, 0.0335714, "- N/A -   "
26.68, 1032.92, 0.0446585, NaN, NaN, NaN, 0.0335714, "- N/A -   "
26.7, 1033.63, 0.04469182, NaN, NaN, NaN, 0.0335714, "- N/A -   "
26.72, 1034.47, 0.0447224, NaN, NaN, NaN, 0.0347922, "- N/A -   "
26.74, 1035.42, 0.0447557, NaN, NaN, NaN, 0.0347922, "- N/A -   "
26.76, 1036.37, 0.04479178, NaN, NaN, NaN, 0.0335714, "- N/A -   "
26.78, 1037.21, 0.0448251, NaN, NaN, NaN, 0.0335714, "- N/A -   "
26.8, 1037.92, 0.0448584, NaN, NaN, NaN, 0.0347922, "- N/A -   "
26.82, 1038.76, 0.04488619, NaN, NaN, NaN, 0.03601294, "- N/A -   "
26.84, 1039.59, 0.0449167, NaN, NaN, NaN, 0.0384545, "- N/A -   "
26.86, 1040.428, 0.0449445, NaN, NaN, NaN, 0.0396753, "- N/A -   "
26.88, 1041.14, 0.04497505, NaN, NaN, NaN, 0.04089605, "- N/A -   "
26.9, 1041.98, 0.04500559, NaN, NaN, NaN, 0.04211683, "- N/A -   "
26.92, 1042.813, 0.0450389, NaN, NaN, NaN, 0.04211683, "- N/A -   "
26.94, 1043.41, 0.04506946, NaN, NaN, NaN, 0.0445584, "- N/A -   "
26.96, 1044.36, 0.04510278, NaN, NaN, NaN, 0.0445584, "- N/A -   "
26.98, 1045.198, 0.0451333, NaN, NaN, NaN, 0.0445584, "- N/A -   "
27, 1046.03, 0.0451639, NaN, NaN, NaN, 0.04577916, "- N/A -   "
27.02, 1046.99, 0.0452, NaN, NaN, NaN, 0.0445584, "- N/A -   "
27.04, 1047.94, 0.0452361, NaN, NaN, NaN, 0.0433376, "- N/A -   "
27.06, 1048.89, 0.04526938, NaN, NaN, NaN, 0.0433376, "- N/A -   "
27.08, 1049.85, 0.04530826, NaN, NaN, NaN, 0.04211683, "- N/A -   "
27.1, 1050.92, 0.0453444, NaN, NaN, NaN, 0.0396753, "- N/A -   "
27.12, 1052, 0.04538601, NaN, NaN, NaN, 0.03601294, "- N/A -   "
27.14, 1053.07, 0.0454249, NaN, NaN, NaN, 0.0347922, "- N/A -   "
27.16, 1054.142, 0.0454582, NaN, NaN, NaN, 0.0335714, "- N/A -   "
27.18, 1054.74, 0.0454915, NaN, NaN, NaN, 0.0335714, "- N/A -   "
27.2, 1055.69, 0.0455248, NaN, NaN, NaN, 0.0335714, "- N/A -   "
27.22, 1056.65, 0.0455582, NaN, NaN, NaN, 0.0335714, "- N/A -   "
27.24, 1057.36, 0.0455915, NaN, NaN, NaN, 0.0335714, "- N/A -   "
27.26, 1058.32, 0.0456248, NaN, NaN, NaN, 0.0347922, "- N/A -   "
27.28, 1059.03, 0.0456526, NaN, NaN, NaN, 0.03601294, "- N/A -   "
27.3, 1059.866, 0.0456859, NaN, NaN, NaN, 0.03601294, "- N/A -   "
27.32, 1060.82, 0.0457248, NaN, NaN, NaN, 0.0347922, "- N/A -   "
27.34, 1062.01, 0.04576087, NaN, NaN, NaN, 0.0323506, "- N/A -   "
27.36, 1062.85, 0.045797, NaN, NaN, NaN, 0.03112983, "- N/A -   "
27.38, 1063.682, 0.0458303, NaN, NaN, NaN, 0.03112983, "- N/A -   "
27.4, 1064.64, 0.04586083, NaN, NaN, NaN, 0.0323506, "- N/A -   "
27.42, 1065.35, 0.0458942, NaN, NaN, NaN, 0.0335714, "- N/A -   "
27.44, 1066.07, 0.0459275, NaN, NaN, NaN, 0.0335714, "- N/A -   "
27.46, 1067.02, 0.04595802, NaN, NaN, NaN, 0.0335714, "- N/A -   "
27.48, 1067.856, 0.0459886, NaN, NaN, NaN, 0.0347922, "- N/A -   "
27.5, 1068.45, 0.0460163, NaN, NaN, NaN, 0.0384545, "- N/A -   "
27.52, 1069.17, 0.0460441, NaN, NaN, NaN, 0.0396753, "- N/A -   "
27.54, 1069.88, 0.04607464, NaN, NaN, NaN, 0.04089605, "- N/A -   "
27.56, 1070.6, 0.0461052, NaN, NaN, NaN, 0.0433376, "- N/A -   "
27.58, 1071.43, 0.046133, NaN, NaN, NaN, 0.0445584, "- N/A -   "
27.6, 1072.15, 0.0461635, NaN, NaN, NaN, 0.04699994, "- N/A -   "
27.62, 1072.98, 0.0461913, NaN, NaN, NaN, 0.0482207, "- N/A -   "
27.64, 1073.82, 0.0462274, NaN, NaN, NaN, 0.0482207, "- N/A -   "
27.66, 1074.89, 0.0462635, NaN, NaN, NaN, 0.04577916, "- N/A -   "
27.68, 1076.08, 0.0463051, NaN, NaN, NaN, 0.04211683, "- N/A -   "
27.7, 1077.04, 0.046344, NaN, NaN, NaN, 0.0396753, "- N/A -   "
27.72, 1078.11, 0.0463829, NaN, NaN, NaN, 0.0372337, "- N/A -   "
27.74, 1079.07, 0.04641896, NaN, NaN, NaN, 0.03601294, "- N/A -   "
27.76, 1079.9, 0.04645228, NaN, NaN, NaN, 0.03601294, "- N/A -   "
27.78, 1080.85, 0.04648838, NaN, NaN, NaN, 0.0347922, "- N/A -   "
27.8, 1081.81, 0.0465217, NaN, NaN, NaN, 0.0347922, "- N/A -   "
27.82, 1082.76, 0.0465606, NaN, NaN, NaN, 0.0323506, "- N/A -   "
27.84, 1083.72, 0.0465967, NaN, NaN, NaN, 0.03112983, "- N/A -   "
27.86, 1084.67, 0.04663277, NaN, NaN, NaN, 0.0299091, "- N/A -   "
27.88, 1085.51, 0.04666609, NaN, NaN, NaN, 0.0299091, "- N/A -   "
27.9, 1086.46, 0.0467022, NaN, NaN, NaN, 0.0286883, "- N/A -   "
27.92, 1087.41, 0.0467383, NaN, NaN, NaN, 0.0286883, "- N/A -   "
27.94, 1088.37, 0.0467744, NaN, NaN, NaN, 0.0262467, "- N/A -   "
27.96, 1089.202, 0.0468049, NaN, NaN, NaN, 0.0274675, "- N/A -   "
27.98, 1090.04, 0.0468382, NaN, NaN, NaN, 0.0274675, "- N/A -   "
28, 1090.87, 0.04687157, NaN, NaN, NaN, 0.0286883, "- N/A -   "
28.02, 1091.71, 0.0469049, NaN, NaN, NaN, 0.0286883, "- N/A -   "
28.04, 1092.541, 0.0469354, NaN, NaN, NaN, 0.0286883, "- N/A -   "
28.042, 1092.66, 0.0469382, NaN, NaN, NaN, 0.0299091, "- N/A -   "