File: 2_Tensile_Data/Hamel_ForceTest_Bolt9_Test9.csv
Time, Load (lb), Position (in), AxialStrain (in), TransverseStrain (in), Auxiliary (), Control Out (V), Stress (psi)
0.0, 14.9793, 0.0, NaN, NaN, NaN, -0.006714277, "- N/A -   "
0.01, 14.9793, 2.776752E-6, NaN, NaN, NaN, 0.01037661, "- N/A -   "
0.02, 15.0973, 5.553504E-6, NaN, NaN, NaN, 0.0286883, "- N/A -   "
0.03, 15.2152, 1.1107e-05, NaN, NaN, NaN, 0.04577916, "- N/A -   "
0.04, 15.4511, 2.49908e-05, NaN, NaN, NaN, 0.0604285, "- N/A -   "
0.05, 15.805, 3.88745e-05, NaN, NaN, NaN, 0.07263627, "- N/A -   "
0.06, 16.0409, 5.83118e-05, NaN, NaN, NaN, 0.08362327, "- N/A -   "
0.07, 16.5126, 8.33026e-05, NaN, NaN, NaN, 0.09216871, "- N/A -   "
0.08, 16.9844, 0.00011107, NaN, NaN, NaN, 0.100714, "- N/A -   "
0.09, 17.5742, 1.388376E-4, NaN, NaN, NaN, 0.106818, "- N/A -   "
0.1, 18.046, 0.000172159, NaN, NaN, NaN, 0.108039, "- N/A -   "
0.11, 18.5178, 0.000202703, NaN, NaN, NaN, 0.100714, "- N/A -   "
0.12, 19.1075, 2.304704E-4, NaN, NaN, NaN, 0.095831, "- N/A -   "
0.13, 19.4613, 2.582379E-4, NaN, NaN, NaN, 0.09094793, "- N/A -   "
0.14, 19.8152, 2.832287E-4, NaN, NaN, NaN, 0.0872856, "- N/A -   "
0.15, 20.169, 0.000308219, NaN, NaN, NaN, 0.084844, "- N/A -   "
0.16, 20.52286, 0.000330433, NaN, NaN, NaN, 0.08240249, "- N/A -   "
0.17, 20.99465, 0.000349871, NaN, NaN, NaN, 0.0799609, "- N/A -   "
0.18, 21.3485, 0.000372085, NaN, NaN, NaN, 0.07751938, "- N/A -   "
0.19, 21.5844, 0.000391522, NaN, NaN, NaN, 0.0762986, "- N/A -   "
0.2, 21.93823, 4.13736E-4, NaN, NaN, NaN, 0.07385705, "- N/A -   "
0.21, 22.41, 4.387268E-4, NaN, NaN, NaN, 0.07141549, "- N/A -   "
0.22, 22.7639, 4.609408E-4, NaN, NaN, NaN, 0.06775316, "- N/A -   "
0.23, 23.1177, 0.000485932, NaN, NaN, NaN, 0.0653116, "- N/A -   "
0.24, 23.3536, 5.081456E-4, NaN, NaN, NaN, 0.06287005, "- N/A -   "
0.25, 23.82539, 0.00053036, NaN, NaN, NaN, 0.0592077, "- N/A -   "
0.26, 24.1792, 5.525736E-4, NaN, NaN, NaN, 0.0579869, "- N/A -   "
0.27, 24.5331, 5.747876E-4, NaN, NaN, NaN, 0.0555454, "- N/A -   "
0.28, 25.0049, 0.000597002, NaN, NaN, NaN, 0.0531038, "- N/A -   "
0.29, 25.2408, 0.000619216, NaN, NaN, NaN, 0.0494415, "- N/A -   "
0.3, 25.4767, 6.414297E-4, NaN, NaN, NaN, 0.0482207, "- N/A -   "
0.31, 25.9484, 6.608669E-4, NaN, NaN, NaN, 0.04699994, "- N/A -   "
0.32, 26.3023, 6.803042E-4, NaN, NaN, NaN, 0.0445584, "- N/A -   "
0.33, 26.5382, 7.025182E-4, NaN, NaN, NaN, 0.0433376, "- N/A -   "
0.34, 26.7741, 7.191787E-4, NaN, NaN, NaN, 0.04211683, "- N/A -   "
0.35, 27.1279, 0.000735839, NaN, NaN, NaN, 0.04211683, "- N/A -   "
0.36, 27.4818, 7.552765E-4, NaN, NaN, NaN, 0.04089605, "- N/A -   "
0.37, 27.8356, 0.000774714, NaN, NaN, NaN, 0.04089605, "- N/A -   "
0.38, 27.95355, 0.000794151, NaN, NaN, NaN, 0.0396753, "- N/A -   "
0.39, 28.42534, 0.000813588, NaN, NaN, NaN, 0.0372337, "- N/A -   "
0.4, 28.7792, 0.000833026, NaN, NaN, NaN, 0.03601294, "- N/A -   "
0.41, 28.89713, 8.524628E-4, NaN, NaN, NaN, 0.0347922, "- N/A -   "
0.42, 29.3689, 8.746768E-4, NaN, NaN, NaN, 0.0335714, "- N/A -   "
0.43, 29.6048, 0.000891337, NaN, NaN, NaN, 0.0323506, "- N/A -   "
0.44, 29.84071, 9.107746E-4, NaN, NaN, NaN, 0.03112983, "- N/A -   "
0.45, 30.0766, 0.000930212, NaN, NaN, NaN, 0.0299091, "- N/A -   "
0.46, 30.4304, 0.000946872, NaN, NaN, NaN, 0.0299091, "- N/A -   "
0.47, 30.6663, 9.635329E-4, NaN, NaN, NaN, 0.0299091, "- N/A -   "
0.48, 31.0202, 9.829701E-4, NaN, NaN, NaN, 0.0299091, "- N/A -   "
0.49, 31.2561, 9.996307E-4, NaN, NaN, NaN, 0.0286883, "- N/A -   "
0.5, 31.6099, 0.00101629, NaN, NaN, NaN, 0.0286883, "- N/A -   "
0.51, 31.8458, 0.00103295, NaN, NaN, NaN, 0.0286883, "- N/A -   "
0.52, 32.08171, 0.00104961, NaN, NaN, NaN, 0.0286883, "- N/A -   "
0.53, 32.3176, 0.00106627, NaN, NaN, NaN, 0.0299091, "- N/A -   "
0.54, 32.5535, 0.00108016, NaN, NaN, NaN, 0.0299091, "- N/A -   "
0.55, 32.7894, 0.00109404, NaN, NaN, NaN, 0.03112983, "- N/A -   "
0.56, 33.02529, 0.0011107, NaN, NaN, NaN, 0.0323506, "- N/A -   "
0.57, 33.2612, 0.00112458, NaN, NaN, NaN, 0.0323506, "- N/A -   "
0.58, 33.49708, 0.001141245, NaN, NaN, NaN, 0.0335714, "- N/A -   "
0.59, 33.73298, 0.00115513, NaN, NaN, NaN, 0.0335714, "- N/A -   "
0.6, 33.8509, 0.00116901, NaN, NaN, NaN, 0.0347922, "- N/A -   "
0.61, 34.08682, 0.0011829, NaN, NaN, NaN, 0.03601294, "- N/A -   "
0.62, 34.3227, 0.00119678, NaN, NaN, NaN, 0.0372337, "- N/A -   "
0.63, 34.6766, 0.00121066, NaN, NaN, NaN, 0.0384545, "- N/A -   "
0.64, 34.7945, 0.00122455, NaN, NaN, NaN, 0.0396753, "- N/A -   "
0.65, 35.0304, 0.00123843, NaN, NaN, NaN, 0.04089605, "- N/A -   "
0.66, 35.2663, 0.00125509, NaN, NaN, NaN, 0.04089605, "- N/A -   "
0.67, 35.50219, 0.00127175, NaN, NaN, NaN, 0.04089605, "- N/A -   "
0.68, 35.7381, 0.00128564, NaN, NaN, NaN, 0.04211683, "- N/A -   "
0.69, 35.97398, 0.00129952, NaN, NaN, NaN, 0.0433376, "- N/A -   "
0.7, 36.0919, 0.0013134, NaN, NaN, NaN, 0.0445584, "- N/A -   "
0.71, 36.5637, 0.00133006, NaN, NaN, NaN, 0.04577916, "- N/A -   "
0.72, 36.6817, 0.00134395, NaN, NaN, NaN, 0.04577916, "- N/A -   "
0.73, 36.79961, 0.00136061, NaN, NaN, NaN, 0.04577916, "- N/A -   "
0.74, 37.15345, 0.00137727, NaN, NaN, NaN, 0.04699994, "- N/A -   "
0.75, 37.3893, 0.00139393, NaN, NaN, NaN, 0.04577916, "- N/A -   "
0.76, 37.6252, 0.00141059, NaN, NaN, NaN, 0.04577916, "- N/A -   "
0.77, 37.8611, 0.00142725, NaN, NaN, NaN, 0.04577916, "- N/A -   "
0.78, 38.215, 0.00144669, NaN, NaN, NaN, 0.04577916, "- N/A -   "
0.79, 38.4509, 0.00146057, NaN, NaN, NaN, 0.04577916, "- N/A -   "
0.8, 38.8047, 0.00148001, NaN, NaN, NaN, 0.04577916, "- N/A -   "
0.81, 39.04061, 0.00149667, NaN, NaN, NaN, 0.04577916, "- N/A -   "
0.82, 39.2765, 0.001510553, NaN, NaN, NaN, 0.04577916, "- N/A -   "
0.83, 39.6304, 0.00152721, NaN, NaN, NaN, 0.04577916, "- N/A -   "
0.84, 39.8662, 0.00154665, NaN, NaN, NaN, 0.04577916, "- N/A -   "
0.85, 40.10214, 0.00156331, NaN, NaN, NaN, 0.0445584, "- N/A -   "
0.86, 40.33803, 0.00157997, NaN, NaN, NaN, 0.0445584, "- N/A -   "
0.87, 40.57393, 0.001599409, NaN, NaN, NaN, 0.0433376, "- N/A -   "
0.88, 40.9278, 0.00161607, NaN, NaN, NaN, 0.0433376, "- N/A -   "
0.89, 41.04572, 0.00163273, NaN, NaN, NaN, 0.0433376, "- N/A -   "
0.9, 41.39956, 0.00164939, NaN, NaN, NaN, 0.0433376, "- N/A -   "
0.91, 41.7534, 0.00166883, NaN, NaN, NaN, 0.04211683, "- N/A -   "
0.92, 42.1072, 0.00168827, NaN, NaN, NaN, 0.04211683, "- N/A -   "
0.93, 42.3431, 0.0017077, NaN, NaN, NaN, 0.0396753, "- N/A -   "
0.94, 42.697, 0.00172992, NaN, NaN, NaN, 0.0372337, "- N/A -   "
0.95, 42.93288, 0.00175213, NaN, NaN, NaN, 0.03601294, "- N/A -   "
0.96, 43.40467, 0.00177157, NaN, NaN, NaN, 0.0347922, "- N/A -   "
0.97, 43.75851, 0.00179378, NaN, NaN, NaN, 0.0323506, "- N/A -   "
0.98, 43.9944, 0.00181322, NaN, NaN, NaN, 0.0299091, "- N/A -   "
0.99, 44.34825, 0.00183266, NaN, NaN, NaN, 0.0286883, "- N/A -   "
1, 44.58414, 0.00184932, NaN, NaN, NaN, 0.0286883, "- N/A -   "
1.01, 44.93799, 0.00186875, NaN, NaN, NaN, 0.0274675, "- N/A -   "
1.02, 45.17388, 0.00188819, NaN, NaN, NaN, 0.0274675, "- N/A -   "
1.03, 45.40978, 0.001902075, NaN, NaN, NaN, 0.0274675, "- N/A -   "
1.04, 45.6457, 0.00192151, NaN, NaN, NaN, 0.0274675, "- N/A -   "
1.05, 45.8816, 0.00193817, NaN, NaN, NaN, 0.0262467, "- N/A -   "
1.06, 46.23541, 0.00195483, NaN, NaN, NaN, 0.0262467, "- N/A -   "
1.07, 46.3534, 0.001968717, NaN, NaN, NaN, 0.0274675, "- N/A -   "
1.08, 46.8251, 0.00198538, NaN, NaN, NaN, 0.0274675, "- N/A -   "
1.09, 46.9431, 0.002002038, NaN, NaN, NaN, 0.0286883, "- N/A -   "
1.1, 47.2969, 0.00201592, NaN, NaN, NaN, 0.0286883, "- N/A -   "
1.11, 47.5328, 0.00203258, NaN, NaN, NaN, 0.0286883, "- N/A -   "
1.12, 47.7687, 0.00204924, NaN, NaN, NaN, 0.0286883, "- N/A -   "
1.13, 48.00462, 0.00206313, NaN, NaN, NaN, 0.0299091, "- N/A -   "
1.14, 48.2405, 0.00207979, NaN, NaN, NaN, 0.0299091, "- N/A -   "
1.15, 48.47641, 0.00209645, NaN, NaN, NaN, 0.0299091, "- N/A -   "
1.16, 48.7123, 0.002113108, NaN, NaN, NaN, 0.0299091, "- N/A -   "
1.17, 48.9482, 0.002126992, NaN, NaN, NaN, 0.03112983, "- N/A -   "
1.18, 49.1841, 0.00214088, NaN, NaN, NaN, 0.0323506, "- N/A -   "
1.19, 49.5379, 0.002157536, NaN, NaN, NaN, 0.0323506, "- N/A -   "
1.2, 49.7738, 0.0021742, NaN, NaN, NaN, 0.0323506, "- N/A -   "
1.21, 50.0097, 0.00218808, NaN, NaN, NaN, 0.0335714, "- N/A -   "
1.22, 50.2456, 0.002204741, NaN, NaN, NaN, 0.0335714, "- N/A -   "
1.23, 50.4815, 0.00221862, NaN, NaN, NaN, 0.0347922, "- N/A -   "
1.24, 50.7174, 0.00223529, NaN, NaN, NaN, 0.03601294, "- N/A -   "
1.25, 51.0713, 0.002249169, NaN, NaN, NaN, 0.03601294, "- N/A -   "
1.26, 51.1892, 0.00226583, NaN, NaN, NaN, 0.03601294, "- N/A -   "
1.27, 51.4251, 0.00227971, NaN, NaN, NaN, 0.0372337, "- N/A -   "
1.28, 51.7789, 0.00229637, NaN, NaN, NaN, 0.0372337, "- N/A -   "
1.29, 52.01483, 0.00231303, NaN, NaN, NaN, 0.0372337, "- N/A -   "
1.3, 52.25073, 0.00232969, NaN, NaN, NaN, 0.0372337, "- N/A -   "
1.31, 52.48662, 0.00234636, NaN, NaN, NaN, 0.0372337, "- N/A -   "
1.32, 52.72252, 0.002363016, NaN, NaN, NaN, 0.0372337, "- N/A -   "
1.33, 53.0764, 0.00238245, NaN, NaN, NaN, 0.0372337, "- N/A -   "
1.34, 53.3123, 0.00239911, NaN, NaN, NaN, 0.0372337, "- N/A -   "
1.35, 53.6661, 0.002413, NaN, NaN, NaN, 0.0372337, "- N/A -   "
1.36, 53.902, 0.00242966, NaN, NaN, NaN, 0.0372337, "- N/A -   "
1.37, 54.13789, 0.00244354, NaN, NaN, NaN, 0.0384545, "- N/A -   "
1.38, 54.2558, 0.0024602, NaN, NaN, NaN, 0.0396753, "- N/A -   "
1.39, 54.6097, 0.00247409, NaN, NaN, NaN, 0.0396753, "- N/A -   "
1.4, 54.9635, 0.00249075, NaN, NaN, NaN, 0.04089605, "- N/A -   "
1.41, 55.1994, 0.00250741, NaN, NaN, NaN, 0.0396753, "- N/A -   "
1.42, 55.43531, 0.00252129, NaN, NaN, NaN, 0.04089605, "- N/A -   "
1.43, 55.55326, 0.00253795, NaN, NaN, NaN, 0.04089605, "- N/A -   "
1.44, 55.9071, 0.00255183, NaN, NaN, NaN, 0.04211683, "- N/A -   "
1.45, 56.143, 0.0025685, NaN, NaN, NaN, 0.04211683, "- N/A -   "
1.46, 56.37889, 0.00258238, NaN, NaN, NaN, 0.0433376, "- N/A -   "
1.47, 56.6148, 0.00259904, NaN, NaN, NaN, 0.0445584, "- N/A -   "
1.48, 56.85068, 0.00261292, NaN, NaN, NaN, 0.0445584, "- N/A -   "
1.49, 57.20452, 0.002629584, NaN, NaN, NaN, 0.04577916, "- N/A -   "
1.5, 57.32247, 0.00264347, NaN, NaN, NaN, 0.04577916, "- N/A -   "
1.51, 57.5584, 0.00266013, NaN, NaN, NaN, 0.04577916, "- N/A -   "
1.52, 58.0302, 0.00267679, NaN, NaN, NaN, 0.04577916, "- N/A -   "
1.53, 58.26605, 0.002696226, NaN, NaN, NaN, 0.04577916, "- N/A -   "
1.54, 58.6199, 0.00271566, NaN, NaN, NaN, 0.0445584, "- N/A -   "
1.55, 58.8558, 0.0027351, NaN, NaN, NaN, 0.04211683, "- N/A -   "
1.56, 59.2096, 0.00275454, NaN, NaN, NaN, 0.04211683, "- N/A -   "
1.57, 59.5635, 0.0027712, NaN, NaN, NaN, 0.04089605, "- N/A -   "
1.58, 59.79937, 0.00279064, NaN, NaN, NaN, 0.0396753, "- N/A -   "
1.59, 60.27116, 0.00281007, NaN, NaN, NaN, 0.0396753, "- N/A -   "
1.6, 60.5071, 0.00282673, NaN, NaN, NaN, 0.0384545, "- N/A -   "
1.61, 60.8609, 0.002843394, NaN, NaN, NaN, 0.0384545, "- N/A -   "
1.62, 61.09679, 0.00286283, NaN, NaN, NaN, 0.0372337, "- N/A -   "
1.63, 61.45063, 0.00288227, NaN, NaN, NaN, 0.03601294, "- N/A -   "
1.64, 61.6865, 0.00290171, NaN, NaN, NaN, 0.0347922, "- N/A -   "
1.65, 62.0404, 0.002918366, NaN, NaN, NaN, 0.0347922, "- N/A -   "
1.66, 62.2763, 0.00293503, NaN, NaN, NaN, 0.0347922, "- N/A -   "
1.67, 62.7481, 0.002954464, NaN, NaN, NaN, 0.0335714, "- N/A -   "
1.68, 62.98395, 0.00297112, NaN, NaN, NaN, 0.0335714, "- N/A -   "
1.69, 63.2198, 0.00299056, NaN, NaN, NaN, 0.0335714, "- N/A -   "
1.7, 63.45574, 0.003007222, NaN, NaN, NaN, 0.0323506, "- N/A -   "
1.71, 63.80958, 0.003021106, NaN, NaN, NaN, 0.0347922, "- N/A -   "
1.72, 63.92753, 0.00303499, NaN, NaN, NaN, 0.0347922, "- N/A -   "
1.73, 64.28137, 0.00305165, NaN, NaN, NaN, 0.0347922, "- N/A -   "
1.74, 64.3993, 0.003068311, NaN, NaN, NaN, 0.0347922, "- N/A -   "
1.75, 64.75317, 0.00308219, NaN, NaN, NaN, 0.0372337, "- N/A -   "
1.76, 64.98906, 0.003096078, NaN, NaN, NaN, 0.0372337, "- N/A -   "
1.77, 65.22495, 0.003112739, NaN, NaN, NaN, 0.0372337, "- N/A -   "
1.78, 65.5788, 0.0031294, NaN, NaN, NaN, 0.0384545, "- N/A -   "
1.79, 65.81469, 0.00314606, NaN, NaN, NaN, 0.0372337, "- N/A -   "
1.8, 66.16853, 0.00316272, NaN, NaN, NaN, 0.0372337, "- N/A -   "
1.81, 66.40443, 0.003179381, NaN, NaN, NaN, 0.0372337, "- N/A -   "
1.82, 66.64032, 0.003196041, NaN, NaN, NaN, 0.0372337, "- N/A -   "
1.83, 66.99416, 0.003212702, NaN, NaN, NaN, 0.0372337, "- N/A -   "
1.84, 67.34801, 0.00323214, NaN, NaN, NaN, 0.0372337, "- N/A -   "
1.85, 67.5839, 0.0032488, NaN, NaN, NaN, 0.03601294, "- N/A -   "
1.86, 67.9377, 0.003268237, NaN, NaN, NaN, 0.0347922, "- N/A -   "
1.87, 68.17364, 0.00328767, NaN, NaN, NaN, 0.0347922, "- N/A -   "
1.88, 68.52748, 0.003304335, NaN, NaN, NaN, 0.0335714, "- N/A -   "
1.89, 68.8813, 0.003323772, NaN, NaN, NaN, 0.0323506, "- N/A -   "
1.9, 69.11722, 0.00334043, NaN, NaN, NaN, 0.0323506, "- N/A -   "
1.91, 69.47106, 0.00335987, NaN, NaN, NaN, 0.0323506, "- N/A -   "
1.92, 69.707, 0.00337653, NaN, NaN, NaN, 0.03112983, "- N/A -   "
1.93, 70.0608, 0.003393191, NaN, NaN, NaN, 0.03112983, "- N/A -   "
1.94, 70.29669, 0.003409851, NaN, NaN, NaN, 0.03112983, "- N/A -   "
1.95, 70.6505, 0.003426512, NaN, NaN, NaN, 0.0323506, "- N/A -   "
1.96, 70.88643, 0.0034404, NaN, NaN, NaN, 0.0323506, "- N/A -   "
1.97, 71.12233, 0.00345706, NaN, NaN, NaN, 0.0323506, "- N/A -   "
1.98, 71.3582, 0.00347094, NaN, NaN, NaN, 0.0335714, "- N/A -   "
1.99, 71.59412, 0.00348482, NaN, NaN, NaN, 0.0347922, "- N/A -   "
2, 71.71206, 0.00350148, NaN, NaN, NaN, 0.03601294, "- N/A -   "
2.01, 72.06591, 0.003515368, NaN, NaN, NaN, 0.03601294, "- N/A -   "
2.02, 72.3018, 0.00352925, NaN, NaN, NaN, 0.0372337, "- N/A -   "
2.03, 72.5377, 0.00354591, NaN, NaN, NaN, 0.0372337, "- N/A -   "
2.04, 72.77359, 0.0035598, NaN, NaN, NaN, 0.0384545, "- N/A -   "
2.05, 73.12743, 0.00357368, NaN, NaN, NaN, 0.0396753, "- N/A -   "
2.06, 73.2454, 0.00359034, NaN, NaN, NaN, 0.04089605, "- N/A -   "
2.07, 73.59922, 0.00360422, NaN, NaN, NaN, 0.04089605, "- N/A -   "
2.08, 73.71717, 0.00361811, NaN, NaN, NaN, 0.04211683, "- N/A -   "
2.09, 74.071, 0.00363477, NaN, NaN, NaN, 0.04211683, "- N/A -   "
2.1, 74.3069, 0.00365143, NaN, NaN, NaN, 0.04211683, "- N/A -   "
2.11, 74.66075, 0.00367087, NaN, NaN, NaN, 0.04211683, "- N/A -   "
2.12, 75.0146, 0.00368753, NaN, NaN, NaN, 0.04089605, "- N/A -   "
2.13, 75.25049, 0.00370419, NaN, NaN, NaN, 0.04089605, "- N/A -   "
2.14, 75.6043, 0.00372362, NaN, NaN, NaN, 0.0396753, "- N/A -   "
2.15, 75.8402, 0.00374028, NaN, NaN, NaN, 0.0396753, "- N/A -   "
2.16, 76.19407, 0.00375695, NaN, NaN, NaN, 0.0396753, "- N/A -   "
2.17, 76.43, 0.00377361, NaN, NaN, NaN, 0.0396753, "- N/A -   "
2.18, 76.90175, 0.00379027, NaN, NaN, NaN, 0.0396753, "- N/A -   "
2.19, 77.0197, 0.00380693, NaN, NaN, NaN, 0.0396753, "- N/A -   "
2.2, 77.25559, 0.00382359, NaN, NaN, NaN, 0.0396753, "- N/A -   "
2.21, 77.6094, 0.00384025, NaN, NaN, NaN, 0.0396753, "- N/A -   "
2.22, 77.96328, 0.00385969, NaN, NaN, NaN, 0.0396753, "- N/A -   "
2.23, 78.31712, 0.00387912, NaN, NaN, NaN, 0.0372337, "- N/A -   "
2.24, 78.55301, 0.00389578, NaN, NaN, NaN, 0.0372337, "- N/A -   "
2.25, 78.90686, 0.00391522, NaN, NaN, NaN, 0.03601294, "- N/A -   "
2.26, 79.14275, 0.00393188, NaN, NaN, NaN, 0.03601294, "- N/A -   "
2.27, 79.4966, 0.00395132, NaN, NaN, NaN, 0.03601294, "- N/A -   "
2.28, 79.85043, 0.00396798, NaN, NaN, NaN, 0.0347922, "- N/A -   "
2.29, 80.0863, 0.00398742, NaN, NaN, NaN, 0.0347922, "- N/A -   "
2.3, 80.55813, 0.00400408, NaN, NaN, NaN, 0.0335714, "- N/A -   "
2.31, 80.794, 0.00402074, NaN, NaN, NaN, 0.0335714, "- N/A -   "
2.32, 81.14786, 0.0040374, NaN, NaN, NaN, 0.0335714, "- N/A -   "
2.33, 81.26581, 0.00405406, NaN, NaN, NaN, 0.0347922, "- N/A -   "
2.34, 81.61965, 0.00407072, NaN, NaN, NaN, 0.0335714, "- N/A -   "
2.35, 81.97349, 0.00409016, NaN, NaN, NaN, 0.0335714, "- N/A -   "
2.36, 82.20939, 0.004106816, NaN, NaN, NaN, 0.0323506, "- N/A -   "
2.37, 82.44528, 0.0041207, NaN, NaN, NaN, 0.0335714, "- N/A -   "
2.38, 82.68118, 0.00413736, NaN, NaN, NaN, 0.0347922, "- N/A -   "
2.39, 83.03502, 0.004154021, NaN, NaN, NaN, 0.0347922, "- N/A -   "
2.4, 83.27091, 0.0041679, NaN, NaN, NaN, 0.0347922, "- N/A -   "
2.41, 83.6248, 0.004184565, NaN, NaN, NaN, 0.0347922, "- N/A -   "
2.42, 83.86065, 0.00420123, NaN, NaN, NaN, 0.0347922, "- N/A -   "
2.43, 84.09654, 0.004217886, NaN, NaN, NaN, 0.0347922, "- N/A -   "
2.44, 84.33244, 0.004234547, NaN, NaN, NaN, 0.0347922, "- N/A -   "
2.45, 84.68629, 0.00425121, NaN, NaN, NaN, 0.0347922, "- N/A -   "
2.46, 85.04012, 0.00427064, NaN, NaN, NaN, 0.0347922, "- N/A -   "
2.47, 85.39397, 0.004287305, NaN, NaN, NaN, 0.0335714, "- N/A -   "
2.48, 85.74781, 0.004306742, NaN, NaN, NaN, 0.0323506, "- N/A -   "
2.49, 85.9837, 0.004323403, NaN, NaN, NaN, 0.0323506, "- N/A -   "
2.5, 86.2196, 0.00434284, NaN, NaN, NaN, 0.0323506, "- N/A -   "
2.51, 86.4555, 0.0043595, NaN, NaN, NaN, 0.0323506, "- N/A -   "
2.52, 86.80934, 0.004376161, NaN, NaN, NaN, 0.0323506, "- N/A -   "
2.53, 87.04523, 0.00439004, NaN, NaN, NaN, 0.0323506, "- N/A -   "
2.54, 87.51702, 0.004409482, NaN, NaN, NaN, 0.03112983, "- N/A -   "
2.55, 87.75292, 0.00442614, NaN, NaN, NaN, 0.0323506, "- N/A -   "
2.56, 87.9888, 0.004440026, NaN, NaN, NaN, 0.0323506, "- N/A -   "
2.57, 88.34265, 0.00445946, NaN, NaN, NaN, 0.0323506, "- N/A -   "
2.58, 88.57855, 0.004473347, NaN, NaN, NaN, 0.0323506, "- N/A -   "
2.59, 88.8144, 0.00449001, NaN, NaN, NaN, 0.0323506, "- N/A -   "
2.6, 89.16828, 0.004506668, NaN, NaN, NaN, 0.0323506, "- N/A -   "
2.61, 89.40418, 0.004520552, NaN, NaN, NaN, 0.0335714, "- N/A -   "
2.62, 89.6401, 0.00453721, NaN, NaN, NaN, 0.0335714, "- N/A -   "
2.63, 89.87598, 0.004553873, NaN, NaN, NaN, 0.0335714, "- N/A -   "
2.64, 90.22981, 0.004567757, NaN, NaN, NaN, 0.0347922, "- N/A -   "
2.65, 90.58366, 0.004584417, NaN, NaN, NaN, 0.0347922, "- N/A -   "
2.66, 90.81956, 0.004603855, NaN, NaN, NaN, 0.0347922, "- N/A -   "
2.67, 91.05545, 0.004620515, NaN, NaN, NaN, 0.0335714, "- N/A -   "
2.68, 91.52724, 0.004639952, NaN, NaN, NaN, 0.0335714, "- N/A -   "
2.69, 91.76313, 0.004656613, NaN, NaN, NaN, 0.0335714, "- N/A -   "
2.7, 91.99903, 0.00467327, NaN, NaN, NaN, 0.0323506, "- N/A -   "
2.71, 92.35287, 0.00468993, NaN, NaN, NaN, 0.0323506, "- N/A -   "
2.72, 92.58876, 0.004706594, NaN, NaN, NaN, 0.0335714, "- N/A -   "
2.73, 92.82466, 0.004720478, NaN, NaN, NaN, 0.0347922, "- N/A -   "
2.74, 93.1785, 0.004734362, NaN, NaN, NaN, 0.0347922, "- N/A -   "
2.75, 93.2965, 0.00474825, NaN, NaN, NaN, 0.03601294, "- N/A -   "
2.76, 93.53234, 0.004764906, NaN, NaN, NaN, 0.03601294, "- N/A -   "
2.77, 93.8862, 0.00477879, NaN, NaN, NaN, 0.0372337, "- N/A -   "
2.78, 94.1221, 0.00479545, NaN, NaN, NaN, 0.0372337, "- N/A -   "
2.79, 94.35797, 0.004812111, NaN, NaN, NaN, 0.0372337, "- N/A -   "
2.8, 94.7118, 0.004825995, NaN, NaN, NaN, 0.0384545, "- N/A -   "
2.81, 94.9477, 0.00484266, NaN, NaN, NaN, 0.0396753, "- N/A -   "
2.82, 95.18361, 0.004856539, NaN, NaN, NaN, 0.0396753, "- N/A -   "
2.83, 95.41951, 0.0048732, NaN, NaN, NaN, 0.0396753, "- N/A -   "
2.84, 95.6554, 0.00488986, NaN, NaN, NaN, 0.04089605, "- N/A -   "
2.85, 95.8913, 0.004903744, NaN, NaN, NaN, 0.04089605, "- N/A -   "
2.86, 96.24514, 0.00491763, NaN, NaN, NaN, 0.04211683, "- N/A -   "
2.87, 96.481, 0.00493151, NaN, NaN, NaN, 0.0433376, "- N/A -   "
2.88, 96.71693, 0.004948172, NaN, NaN, NaN, 0.0433376, "- N/A -   "
2.89, 97.07077, 0.004962056, NaN, NaN, NaN, 0.0445584, "- N/A -   "
2.9, 97.30666, 0.004978716, NaN, NaN, NaN, 0.04577916, "- N/A -   "
2.91, 97.6605, 0.004995377, NaN, NaN, NaN, 0.0445584, "- N/A -   "
2.92, 97.8964, 0.005012037, NaN, NaN, NaN, 0.04577916, "- N/A -   "
2.93, 98.13229, 0.005025921, NaN, NaN, NaN, 0.04577916, "- N/A -   "
2.94, 98.4861, 0.005045358, NaN, NaN, NaN, 0.0445584, "- N/A -   "
2.95, 98.83998, 0.005062019, NaN, NaN, NaN, 0.0445584, "- N/A -   "
2.96, 99.1938, 0.005081456, NaN, NaN, NaN, 0.0445584, "- N/A -   "
2.97, 99.42972, 0.005098116, NaN, NaN, NaN, 0.0433376, "- N/A -   "
2.98, 99.7836, 0.005117554, NaN, NaN, NaN, 0.04211683, "- N/A -   "
2.99, 100.137, 0.005136991, NaN, NaN, NaN, 0.04211683, "- N/A -   "
3, 100.6092, 0.00515365, NaN, NaN, NaN, 0.04089605, "- N/A -   "
3.01, 100.963, 0.005173089, NaN, NaN, NaN, 0.0396753, "- N/A -   "
3.02, 101.199, 0.005192526, NaN, NaN, NaN, 0.0384545, "- N/A -   "
3.03, 101.553, 0.00521196, NaN, NaN, NaN, 0.0384545, "- N/A -   "
3.04, 101.907, 0.005228624, NaN, NaN, NaN, 0.0372337, "- N/A -   "
3.05, 102.26, 0.00524806, NaN, NaN, NaN, 0.03601294, "- N/A -   "
3.06, 102.496, 0.0052675, NaN, NaN, NaN, 0.03601294, "- N/A -   "
3.07, 102.968, 0.005284159, NaN, NaN, NaN, 0.0347922, "- N/A -   "
3.08, 103.204, 0.00530082, NaN, NaN, NaN, 0.0347922, "- N/A -   "
3.09, 103.44, 0.00531748, NaN, NaN, NaN, 0.0347922, "- N/A -   "
3.1, 103.794, 0.00533414, NaN, NaN, NaN, 0.03601294, "- N/A -   "
3.11, 104.03, 0.00534802, NaN, NaN, NaN, 0.03601294, "- N/A -   "
3.12, 104.266, 0.005361908, NaN, NaN, NaN, 0.0372337, "- N/A -   "
3.13, 104.619, 0.00537857, NaN, NaN, NaN, 0.0372337, "- N/A -   "
3.14, 104.855, 0.00539801, NaN, NaN, NaN, 0.0372337, "- N/A -   "
3.15, 105.091, 0.005414666, NaN, NaN, NaN, 0.0372337, "- N/A -   "
3.16, 105.327, 0.00543133, NaN, NaN, NaN, 0.03601294, "- N/A -   "
3.17, 105.799, 0.00544799, NaN, NaN, NaN, 0.03601294, "- N/A -   "
3.18, 106.153, 0.00546465, NaN, NaN, NaN, 0.03601294, "- N/A -   "
3.19, 106.507, 0.005484085, NaN, NaN, NaN, 0.03601294, "- N/A -   "
3.2, 106.742, 0.00550075, NaN, NaN, NaN, 0.0347922, "- N/A -   "
3.21, 106.978, 0.00552018, NaN, NaN, NaN, 0.0347922, "- N/A -   "
3.22, 107.45, 0.00553962, NaN, NaN, NaN, 0.0335714, "- N/A -   "
3.23, 107.804, 0.00555628, NaN, NaN, NaN, 0.0323506, "- N/A -   "
3.24, 108.158, 0.00557572, NaN, NaN, NaN, 0.03112983, "- N/A -   "
3.25, 108.512, 0.00559516, NaN, NaN, NaN, 0.0299091, "- N/A -   "
3.26, 108.866, 0.005614592, NaN, NaN, NaN, 0.0286883, "- N/A -   "
3.27, 109.219, 0.00563403, NaN, NaN, NaN, 0.0286883, "- N/A -   "
3.28, 109.455, 0.00565069, NaN, NaN, NaN, 0.0286883, "- N/A -   "
3.29, 109.8091, 0.00566457, NaN, NaN, NaN, 0.0286883, "- N/A -   "
3.3, 110.163, 0.00568123, NaN, NaN, NaN, 0.0299091, "- N/A -   "
3.31, 110.399, 0.00569512, NaN, NaN, NaN, 0.0299091, "- N/A -   "
3.32, 110.635, 0.005709002, NaN, NaN, NaN, 0.03112983, "- N/A -   "
3.33, 110.871, 0.00572566, NaN, NaN, NaN, 0.03112983, "- N/A -   "
3.34, 111.224, 0.00574232, NaN, NaN, NaN, 0.03112983, "- N/A -   "
3.35, 111.696, 0.00575898, NaN, NaN, NaN, 0.0323506, "- N/A -   "
3.36, 111.932, 0.005775644, NaN, NaN, NaN, 0.0323506, "- N/A -   "
3.37, 112.168, 0.00578953, NaN, NaN, NaN, 0.0323506, "- N/A -   "
3.38, 112.522, 0.00580619, NaN, NaN, NaN, 0.0323506, "- N/A -   "
3.39, 112.64, 0.00582285, NaN, NaN, NaN, 0.0335714, "- N/A -   "
3.4, 112.994, 0.00583396, NaN, NaN, NaN, 0.0347922, "- N/A -   "
3.41, 113.23, 0.00584784, NaN, NaN, NaN, 0.03601294, "- N/A -   "
3.42, 113.348, 0.00586172, NaN, NaN, NaN, 0.0384545, "- N/A -   "
3.43, 113.583, 0.005875607, NaN, NaN, NaN, 0.0384545, "- N/A -   "
3.44, 113.937, 0.00588949, NaN, NaN, NaN, 0.0396753, "- N/A -   "
3.45, 114.173, 0.00590337, NaN, NaN, NaN, 0.04211683, "- N/A -   "
3.46, 114.527, 0.00591726, NaN, NaN, NaN, 0.04211683, "- N/A -   "
3.47, 114.763, 0.005931142, NaN, NaN, NaN, 0.0433376, "- N/A -   "
3.48, 114.999, 0.0059478, NaN, NaN, NaN, 0.0445584, "- N/A -   "
3.49, 115.353, 0.00596169, NaN, NaN, NaN, 0.0445584, "- N/A -   "
3.5, 115.589, 0.00597557, NaN, NaN, NaN, 0.04577916, "- N/A -   "
3.51, 115.942, 0.00599223, NaN, NaN, NaN, 0.04699994, "- N/A -   "
3.52, 116.178, 0.006008891, NaN, NaN, NaN, 0.04577916, "- N/A -   "
3.53, 116.5321, 0.006025552, NaN, NaN, NaN, 0.04577916, "- N/A -   "
3.54, 116.886, 0.006042212, NaN, NaN, NaN, 0.04699994, "- N/A -   "
3.55, 117.24, 0.006056096, NaN, NaN, NaN, 0.04699994, "- N/A -   "
3.56, 117.476, 0.006075533, NaN, NaN, NaN, 0.04699994, "- N/A -   "
3.57, 117.83, 0.00609219, NaN, NaN, NaN, 0.04577916, "- N/A -   "
3.58, 118.301, 0.00611163, NaN, NaN, NaN, 0.04577916, "- N/A -   "
3.59, 118.655, 0.006131068, NaN, NaN, NaN, 0.0445584, "- N/A -   "
3.6, 119.009, 0.00615051, NaN, NaN, NaN, 0.04211683, "- N/A -   "
3.61, 119.481, 0.00616994, NaN, NaN, NaN, 0.04089605, "- N/A -   "
3.62, 119.835, 0.00618938, NaN, NaN, NaN, 0.04089605, "- N/A -   "
3.63, 120.188, 0.006208817, NaN, NaN, NaN, 0.0396753, "- N/A -   "
3.64, 120.542, 0.00622825, NaN, NaN, NaN, 0.0396753, "- N/A -   "
3.65, 120.896, 0.006244915, NaN, NaN, NaN, 0.0384545, "- N/A -   "
3.66, 121.25, 0.00626435, NaN, NaN, NaN, 0.0384545, "- N/A -   "
3.67, 121.604, 0.00628101, NaN, NaN, NaN, 0.0372337, "- N/A -   "
3.68, 121.958, 0.00630045, NaN, NaN, NaN, 0.0372337, "- N/A -   "
3.69, 122.312, 0.006319887, NaN, NaN, NaN, 0.03601294, "- N/A -   "
3.7, 122.665, 0.006336548, NaN, NaN, NaN, 0.0347922, "- N/A -   "
3.71, 122.901, 0.00635321, NaN, NaN, NaN, 0.0347922, "- N/A -   "
3.72, 123.373, 0.006372646, NaN, NaN, NaN, 0.0335714, "- N/A -   "
3.73, 123.609, 0.006389306, NaN, NaN, NaN, 0.0335714, "- N/A -   "
3.74, 123.963, 0.006408743, NaN, NaN, NaN, 0.0335714, "- N/A -   "
3.75, 124.199, 0.006425404, NaN, NaN, NaN, 0.0323506, "- N/A -   "
3.76, 124.67, 0.00644206, NaN, NaN, NaN, 0.0323506, "- N/A -   "
3.77, 124.788, 0.006458725, NaN, NaN, NaN, 0.0323506, "- N/A -   "
3.78, 125.142, 0.00647539, NaN, NaN, NaN, 0.0323506, "- N/A -   "
3.79, 125.496, 0.006492046, NaN, NaN, NaN, 0.0323506, "- N/A -   "
3.8, 125.85, 0.006508706, NaN, NaN, NaN, 0.0323506, "- N/A -   "
3.81, 126.204, 0.006525367, NaN, NaN, NaN, 0.0323506, "- N/A -   "
3.82, 126.558, 0.006544804, NaN, NaN, NaN, 0.03112983, "- N/A -   "
3.83, 126.911, 0.006564242, NaN, NaN, NaN, 0.03112983, "- N/A -   "
3.84, 127.265, 0.0065809, NaN, NaN, NaN, 0.03112983, "- N/A -   "
3.85, 127.501, 0.00659756, NaN, NaN, NaN, 0.0299091, "- N/A -   "
3.86, 127.855, 0.006617, NaN, NaN, NaN, 0.0286883, "- N/A -   "
3.87, 128.091, 0.006636437, NaN, NaN, NaN, 0.0286883, "- N/A -   "
3.88, 128.563, 0.006650321, NaN, NaN, NaN, 0.0286883, "- N/A -   "
3.89, 128.917, 0.00666976, NaN, NaN, NaN, 0.0274675, "- N/A -   "
3.9, 129.27, 0.006686419, NaN, NaN, NaN, 0.0274675, "- N/A -   "
3.91, 129.506, 0.006703079, NaN, NaN, NaN, 0.0286883, "- N/A -   "
3.92, 129.742, 0.006716963, NaN, NaN, NaN, 0.0286883, "- N/A -   "
3.93, 129.978, 0.00673362, NaN, NaN, NaN, 0.0286883, "- N/A -   "
3.94, 130.332, 0.006750284, NaN, NaN, NaN, 0.0286883, "- N/A -   "
3.95, 130.6858, 0.006766944, NaN, NaN, NaN, 0.0286883, "- N/A -   "
3.96, 130.922, 0.00678083, NaN, NaN, NaN, 0.0299091, "- N/A -   "
3.97, 131.1576, 0.006794712, NaN, NaN, NaN, 0.03112983, "- N/A -   "
3.98, 131.393, 0.006808596, NaN, NaN, NaN, 0.0323506, "- N/A -   "
3.99, 131.629, 0.006825256, NaN, NaN, NaN, 0.0323506, "- N/A -   "
4, 131.865, 0.00683914, NaN, NaN, NaN, 0.0335714, "- N/A -   "
4.01, 132.219, 0.006853024, NaN, NaN, NaN, 0.0347922, "- N/A -   "
4.02, 132.455, 0.00686691, NaN, NaN, NaN, 0.03601294, "- N/A -   "
4.03, 132.6909, 0.00688079, NaN, NaN, NaN, 0.0372337, "- N/A -   "
4.04, 132.9268, 0.006894675, NaN, NaN, NaN, 0.0384545, "- N/A -   "
4.05, 133.163, 0.00691134, NaN, NaN, NaN, 0.0384545, "- N/A -   "
4.06, 133.517, 0.006925219, NaN, NaN, NaN, 0.0396753, "- N/A -   "
4.07, 133.752, 0.0069391, NaN, NaN, NaN, 0.04089605, "- N/A -   "
4.08, 134.106, 0.00695576, NaN, NaN, NaN, 0.04089605, "- N/A -   "
4.09, 134.224, 0.006972424, NaN, NaN, NaN, 0.04211683, "- N/A -   "
4.1, 134.578, 0.006983531, NaN, NaN, NaN, 0.0433376, "- N/A -   "
4.11, 134.814, 0.00700019, NaN, NaN, NaN, 0.0433376, "- N/A -   "
4.12, 135.05, 0.00701408, NaN, NaN, NaN, 0.0445584, "- N/A -   "
4.13, 135.4037, 0.007030736, NaN, NaN, NaN, 0.0445584, "- N/A -   "
4.14, 135.64, 0.007047396, NaN, NaN, NaN, 0.0445584, "- N/A -   "
4.15, 135.993, 0.007064057, NaN, NaN, NaN, 0.04577916, "- N/A -   "
4.16, 136.347, 0.00708072, NaN, NaN, NaN, 0.04577916, "- N/A -   "
4.17, 136.583, 0.00709738, NaN, NaN, NaN, 0.0445584, "- N/A -   "
4.18, 137.055, 0.00711404, NaN, NaN, NaN, 0.0445584, "- N/A -   "
4.19, 137.291, 0.00713348, NaN, NaN, NaN, 0.0445584, "- N/A -   "
4.2, 137.6447, 0.00714736, NaN, NaN, NaN, 0.0445584, "- N/A -   "
4.21, 137.8806, 0.00716402, NaN, NaN, NaN, 0.0445584, "- N/A -   "
4.22, 138.116, 0.00718068, NaN, NaN, NaN, 0.04577916, "- N/A -   "
4.23, 138.352, 0.00719734, NaN, NaN, NaN, 0.04577916, "- N/A -   "
4.24, 138.706, 0.007214, NaN, NaN, NaN, 0.04577916, "- N/A -   "
4.25, 138.942, 0.00723066, NaN, NaN, NaN, 0.04577916, "- N/A -   "
4.26, 139.414, 0.00724455, NaN, NaN, NaN, 0.04577916, "- N/A -   "
4.27, 139.65, 0.00726121, NaN, NaN, NaN, 0.04577916, "- N/A -   "
4.28, 139.8857, 0.007277867, NaN, NaN, NaN, 0.04577916, "- N/A -   "
4.29, 140.24, 0.0072973, NaN, NaN, NaN, 0.04577916, "- N/A -   "
4.3, 140.593, 0.00731674, NaN, NaN, NaN, 0.0445584, "- N/A -   "
4.31, 140.829, 0.0073334, NaN, NaN, NaN, 0.0445584, "- N/A -   "
4.32, 141.183, 0.00735006, NaN, NaN, NaN, 0.0433376, "- N/A -   "
4.33, 141.537, 0.007366723, NaN, NaN, NaN, 0.0433376, "- N/A -   "
4.34, 141.891, 0.00738616, NaN, NaN, NaN, 0.0433376, "- N/A -   "
4.35, 142.1267, 0.00740282, NaN, NaN, NaN, 0.04211683, "- N/A -   "
4.36, 142.481, 0.00742226, NaN, NaN, NaN, 0.04089605, "- N/A -   "
4.37, 142.8344, 0.0074417, NaN, NaN, NaN, 0.0396753, "- N/A -   "
4.38, 143.188, 0.00746113, NaN, NaN, NaN, 0.0396753, "- N/A -   "
4.39, 143.542, 0.00748057, NaN, NaN, NaN, 0.0384545, "- N/A -   "
4.4, 143.896, 0.007500007, NaN, NaN, NaN, 0.0372337, "- N/A -   "
4.41, 144.25, 0.00751944, NaN, NaN, NaN, 0.0347922, "- N/A -   "
4.42, 144.604, 0.00753888, NaN, NaN, NaN, 0.0335714, "- N/A -   "
4.43, 145.0754, 0.007558319, NaN, NaN, NaN, 0.0323506, "- N/A -   "
4.44, 145.311, 0.007577756, NaN, NaN, NaN, 0.0323506, "- N/A -   "
4.45, 145.547, 0.007594417, NaN, NaN, NaN, 0.03112983, "- N/A -   "
4.46, 145.901, 0.007611077, NaN, NaN, NaN, 0.03112983, "- N/A -   "
4.47, 146.137, 0.00762774, NaN, NaN, NaN, 0.03112983, "- N/A -   "
4.48, 146.3728, 0.0076444, NaN, NaN, NaN, 0.03112983, "- N/A -   "
4.49, 146.8446, 0.00766106, NaN, NaN, NaN, 0.03112983, "- N/A -   "
4.5, 147.0805, 0.007677719, NaN, NaN, NaN, 0.03112983, "- N/A -   "
4.51, 147.434, 0.0076916, NaN, NaN, NaN, 0.0323506, "- N/A -   "
4.52, 147.552, 0.00770826, NaN, NaN, NaN, 0.0323506, "- N/A -   "
4.53, 147.906, 0.007722147, NaN, NaN, NaN, 0.0335714, "- N/A -   "
4.54, 148.142, 0.00773881, NaN, NaN, NaN, 0.0335714, "- N/A -   "
4.55, 148.378, 0.007755468, NaN, NaN, NaN, 0.0335714, "- N/A -   "
4.56, 148.8497, 0.00777213, NaN, NaN, NaN, 0.0335714, "- N/A -   "
4.57, 149.204, 0.007788789, NaN, NaN, NaN, 0.0335714, "- N/A -   "
4.58, 149.557, 0.00780545, NaN, NaN, NaN, 0.0335714, "- N/A -   "
4.59, 149.793, 0.00782211, NaN, NaN, NaN, 0.0347922, "- N/A -   "
4.6, 150.029, 0.007838771, NaN, NaN, NaN, 0.0335714, "- N/A -   "
4.61, 150.383, 0.007855431, NaN, NaN, NaN, 0.0335714, "- N/A -   "
4.62, 150.737, 0.007872092, NaN, NaN, NaN, 0.0347922, "- N/A -   "
4.63, 150.973, 0.007885976, NaN, NaN, NaN, 0.0347922, "- N/A -   "
4.64, 151.209, 0.007902636, NaN, NaN, NaN, 0.0347922, "- N/A -   "
4.65, 151.5625, 0.007919297, NaN, NaN, NaN, 0.0347922, "- N/A -   "
4.66, 151.798, 0.00793318, NaN, NaN, NaN, 0.03601294, "- N/A -   "
4.67, 152.152, 0.007949841, NaN, NaN, NaN, 0.03601294, "- N/A -   "
4.68, 152.388, 0.007966501, NaN, NaN, NaN, 0.03601294, "- N/A -   "
4.69, 152.742, 0.007983162, NaN, NaN, NaN, 0.03601294, "- N/A -   "
4.7, 152.978, 0.00799982, NaN, NaN, NaN, 0.03601294, "- N/A -   "
4.71, 153.332, 0.008016483, NaN, NaN, NaN, 0.03601294, "- N/A -   "
4.72, 153.686, 0.008030367, NaN, NaN, NaN, 0.0372337, "- N/A -   "
4.73, 154.0394, 0.008047027, NaN, NaN, NaN, 0.0372337, "- N/A -   "
4.74, 154.2753, 0.008063688, NaN, NaN, NaN, 0.0372337, "- N/A -   "
4.75, 154.511, 0.008080348, NaN, NaN, NaN, 0.0372337, "- N/A -   "
4.76, 154.865, 0.008097009, NaN, NaN, NaN, 0.0372337, "- N/A -   "
4.77, 155.101, 0.008110892, NaN, NaN, NaN, 0.0384545, "- N/A -   "
4.78, 155.337, 0.008127553, NaN, NaN, NaN, 0.0384545, "- N/A -   "
4.79, 155.691, 0.008144213, NaN, NaN, NaN, 0.0396753, "- N/A -   "
4.8, 155.927, 0.008158097, NaN, NaN, NaN, 0.0396753, "- N/A -   "
4.81, 156.162, 0.008171981, NaN, NaN, NaN, 0.04089605, "- N/A -   "
4.82, 156.5163, 0.008188642, NaN, NaN, NaN, 0.04211683, "- N/A -   "
4.83, 156.87, 0.008202525, NaN, NaN, NaN, 0.0433376, "- N/A -   "
4.84, 157.106, 0.008216409, NaN, NaN, NaN, 0.0433376, "- N/A -   "
4.85, 157.224, 0.008233069, NaN, NaN, NaN, 0.0433376, "- N/A -   "
4.86, 157.578, 0.008246954, NaN, NaN, NaN, 0.0445584, "- N/A -   "
4.87, 157.932, 0.008263614, NaN, NaN, NaN, 0.0445584, "- N/A -   "
4.88, 158.2855, 0.008280274, NaN, NaN, NaN, 0.0445584, "- N/A -   "
4.89, 158.521, 0.008296935, NaN, NaN, NaN, 0.0445584, "- N/A -   "
4.9, 158.875, 0.008313595, NaN, NaN, NaN, 0.04577916, "- N/A -   "
4.91, 159.229, 0.008330256, NaN, NaN, NaN, 0.0445584, "- N/A -   "
4.92, 159.465, 0.008346916, NaN, NaN, NaN, 0.04577916, "- N/A -   "
4.93, 159.819, 0.008363577, NaN, NaN, NaN, 0.04577916, "- N/A -   "
4.94, 160.055, 0.008383014, NaN, NaN, NaN, 0.0445584, "- N/A -   "
4.95, 160.5265, 0.008402451, NaN, NaN, NaN, 0.0433376, "- N/A -   "
4.96, 160.88, 0.008421889, NaN, NaN, NaN, 0.04211683, "- N/A -   "
4.97, 161.352, 0.008441326, NaN, NaN, NaN, 0.0396753, "- N/A -   "
4.98, 161.706, 0.008460763, NaN, NaN, NaN, 0.0384545, "- N/A -   "
4.99, 162.06, 0.008480201, NaN, NaN, NaN, 0.0372337, "- N/A -   "
5, 162.532, 0.008502414, NaN, NaN, NaN, 0.03601294, "- N/A -   "
5.01, 162.768, 0.008519075, NaN, NaN, NaN, 0.0347922, "- N/A -   "
5.02, 163.121, 0.00853851, NaN, NaN, NaN, 0.0347922, "- N/A -   "
5.03, 163.475, 0.008555172, NaN, NaN, NaN, 0.0335714, "- N/A -   "
5.04, 163.829, 0.008571833, NaN, NaN, NaN, 0.0335714, "- N/A -   "
5.05, 164.183, 0.00859127, NaN, NaN, NaN, 0.0323506, "- N/A -   "
5.06, 164.419, 0.008607931, NaN, NaN, NaN, 0.0335714, "- N/A -   "
5.07, 164.773, 0.008624592, NaN, NaN, NaN, 0.0323506, "- N/A -   "
5.08, 165.126, 0.008644029, NaN, NaN, NaN, 0.0323506, "- N/A -   "
5.09, 165.4803, 0.008660689, NaN, NaN, NaN, 0.03112983, "- N/A -   "
5.1, 165.7162, 0.008680127, NaN, NaN, NaN, 0.0299091, "- N/A -   "
5.11, 166.188, 0.008696787, NaN, NaN, NaN, 0.0299091, "- N/A -   "
5.12, 166.424, 0.00871345, NaN, NaN, NaN, 0.0299091, "- N/A -   "
5.13, 166.66, 0.008730108, NaN, NaN, NaN, 0.0299091, "- N/A -   "
5.14, 167.014, 0.008743991, NaN, NaN, NaN, 0.03112983, "- N/A -   "
5.15, 167.25, 0.00876065, NaN, NaN, NaN, 0.03112983, "- N/A -   "
5.16, 167.603, 0.008774537, NaN, NaN, NaN, 0.0323506, "- N/A -   "
5.17, 167.9572, 0.008791196, NaN, NaN, NaN, 0.0323506, "- N/A -   "
5.18, 168.193, 0.00880508, NaN, NaN, NaN, 0.0335714, "- N/A -   "
5.19, 168.311, 0.008821741, NaN, NaN, NaN, 0.0347922, "- N/A -   "
5.2, 168.665, 0.008832848, NaN, NaN, NaN, 0.03601294, "- N/A -   "
5.21, 169.019, 0.008849508, NaN, NaN, NaN, 0.03601294, "- N/A -   "
5.22, 169.255, 0.008866169, NaN, NaN, NaN, 0.03601294, "- N/A -   "
5.23, 169.608, 0.00888283, NaN, NaN, NaN, 0.03601294, "- N/A -   "
5.24, 169.962, 0.008899489, NaN, NaN, NaN, 0.03601294, "- N/A -   "
5.25, 170.1982, 0.008918927, NaN, NaN, NaN, 0.03601294, "- N/A -   "
5.26, 170.67, 0.008938365, NaN, NaN, NaN, 0.0347922, "- N/A -   "
5.27, 171.024, 0.008955025, NaN, NaN, NaN, 0.0335714, "- N/A -   "
5.28, 171.378, 0.008974463, NaN, NaN, NaN, 0.0323506, "- N/A -   "
5.29, 171.732, 0.008993899, NaN, NaN, NaN, 0.0323506, "- N/A -   "
5.3, 172.085, 0.00901056, NaN, NaN, NaN, 0.03112983, "- N/A -   "
5.31, 172.4392, 0.00902722, NaN, NaN, NaN, 0.03112983, "- N/A -   "
5.32, 172.6751, 0.009043881, NaN, NaN, NaN, 0.03112983, "- N/A -   "
5.33, 173.029, 0.009060541, NaN, NaN, NaN, 0.03112983, "- N/A -   "
5.34, 173.383, 0.009077202, NaN, NaN, NaN, 0.03112983, "- N/A -   "
5.35, 173.737, 0.009091086, NaN, NaN, NaN, 0.0323506, "- N/A -   "
5.36, 173.855, 0.009107746, NaN, NaN, NaN, 0.0335714, "- N/A -   "
5.37, 174.09, 0.009121629, NaN, NaN, NaN, 0.0335714, "- N/A -   "
5.38, 174.4443, 0.009135514, NaN, NaN, NaN, 0.0347922, "- N/A -   "
5.39, 174.6802, 0.009152175, NaN, NaN, NaN, 0.0347922, "- N/A -   "
5.4, 175.034, 0.009166058, NaN, NaN, NaN, 0.03601294, "- N/A -   "
5.41, 175.27, 0.009182719, NaN, NaN, NaN, 0.03601294, "- N/A -   "
5.42, 175.624, 0.009196603, NaN, NaN, NaN, 0.0372337, "- N/A -   "
5.43, 175.86, 0.009210486, NaN, NaN, NaN, 0.0384545, "- N/A -   "
5.44, 176.096, 0.009227146, NaN, NaN, NaN, 0.0396753, "- N/A -   "
5.45, 176.449, 0.009241031, NaN, NaN, NaN, 0.0396753, "- N/A -   "
5.46, 176.6853, 0.009257691, NaN, NaN, NaN, 0.04089605, "- N/A -   "
5.47, 176.9212, 0.009271575, NaN, NaN, NaN, 0.04089605, "- N/A -   "
5.48, 177.275, 0.009288235, NaN, NaN, NaN, 0.04089605, "- N/A -   "
5.49, 177.511, 0.009302119, NaN, NaN, NaN, 0.04211683, "- N/A -   "
5.5, 177.865, 0.009318779, NaN, NaN, NaN, 0.04211683, "- N/A -   "
5.51, 178.1007, 0.00933544, NaN, NaN, NaN, 0.04211683, "- N/A -   "
5.52, 178.455, 0.009352101, NaN, NaN, NaN, 0.04211683, "- N/A -   "
5.53, 178.69, 0.00936876, NaN, NaN, NaN, 0.04211683, "- N/A -   "
5.54, 179.044, 0.009385422, NaN, NaN, NaN, 0.04211683, "- N/A -   "
5.55, 179.3981, 0.009404859, NaN, NaN, NaN, 0.04089605, "- N/A -   "
5.56, 179.87, 0.009421519, NaN, NaN, NaN, 0.04089605, "- N/A -   "
5.57, 180.106, 0.009438179, NaN, NaN, NaN, 0.04089605, "- N/A -   "
5.58, 180.46, 0.00945484, NaN, NaN, NaN, 0.04089605, "- N/A -   "
5.59, 180.813, 0.009471501, NaN, NaN, NaN, 0.04089605, "- N/A -   "
5.6, 180.931, 0.009488161, NaN, NaN, NaN, 0.04089605, "- N/A -   "
5.61, 181.403, 0.009504822, NaN, NaN, NaN, 0.04089605, "- N/A -   "
5.62, 181.757, 0.00952148, NaN, NaN, NaN, 0.04089605, "- N/A -   "
5.63, 182.1109, 0.00954092, NaN, NaN, NaN, 0.0396753, "- N/A -   "
5.64, 182.465, 0.009560356, NaN, NaN, NaN, 0.0396753, "- N/A -   "
5.65, 182.819, 0.009577017, NaN, NaN, NaN, 0.0384545, "- N/A -   "
5.66, 183.172, 0.009593678, NaN, NaN, NaN, 0.0384545, "- N/A -   "
5.67, 183.408, 0.009610338, NaN, NaN, NaN, 0.0384545, "- N/A -   "
5.68, 183.644, 0.009626999, NaN, NaN, NaN, 0.0384545, "- N/A -   "
5.69, 183.998, 0.00964366, NaN, NaN, NaN, 0.0384545, "- N/A -   "
5.7, 184.3519, 0.00966032, NaN, NaN, NaN, 0.0384545, "- N/A -   "
5.71, 184.706, 0.00967698, NaN, NaN, NaN, 0.0384545, "- N/A -   "
5.72, 184.942, 0.00969364, NaN, NaN, NaN, 0.0384545, "- N/A -   "
5.73, 185.295, 0.009710302, NaN, NaN, NaN, 0.0384545, "- N/A -   "
5.74, 185.767, 0.009729738, NaN, NaN, NaN, 0.0384545, "- N/A -   "
5.75, 186.003, 0.00974362, NaN, NaN, NaN, 0.0384545, "- N/A -   "
5.76, 186.357, 0.009760283, NaN, NaN, NaN, 0.0384545, "- N/A -   "
5.77, 186.475, 0.009776944, NaN, NaN, NaN, 0.0384545, "- N/A -   "
5.78, 186.829, 0.009793604, NaN, NaN, NaN, 0.0396753, "- N/A -   "
5.79, 187.183, 0.009807488, NaN, NaN, NaN, 0.0396753, "- N/A -   "
5.8, 187.536, 0.009826925, NaN, NaN, NaN, 0.0396753, "- N/A -   "
5.81, 187.89, 0.009843586, NaN, NaN, NaN, 0.0384545, "- N/A -   "
5.82, 188.244, 0.009860246, NaN, NaN, NaN, 0.0384545, "- N/A -   "
5.83, 188.48, 0.009879684, NaN, NaN, NaN, 0.0384545, "- N/A -   "
5.84, 188.834, 0.009896344, NaN, NaN, NaN, 0.0384545, "- N/A -   "
5.85, 189.3057, 0.009913004, NaN, NaN, NaN, 0.0372337, "- N/A -   "
5.86, 189.5416, 0.009932442, NaN, NaN, NaN, 0.0372337, "- N/A -   "
5.87, 190.013, 0.009951878, NaN, NaN, NaN, 0.0347922, "- N/A -   "
5.88, 190.367, 0.00996854, NaN, NaN, NaN, 0.0347922, "- N/A -   "
5.89, 190.721, 0.009987976, NaN, NaN, NaN, 0.0335714, "- N/A -   "
5.9, 190.957, 0.0100046, NaN, NaN, NaN, 0.0347922, "- N/A -   "
5.91, 191.193, 0.0100213, NaN, NaN, NaN, 0.0347922, "- N/A -   "
5.92, 191.547, 0.010038, NaN, NaN, NaN, 0.0335714, "- N/A -   "
5.93, 191.7826, 0.0100546, NaN, NaN, NaN, 0.0335714, "- N/A -   "
5.94, 192.254, 0.0100713, NaN, NaN, NaN, 0.0335714, "- N/A -   "
5.95, 192.372, 0.01008794, NaN, NaN, NaN, 0.0347922, "- N/A -   "
[...]
32.31, 1276.79, 0.0540162, NaN, NaN, NaN, 0.03601294, "- N/A -   "
32.34, 1278.45, 0.05407169, NaN, NaN, NaN, 0.0335714, "- N/A -   "
32.37, 1280.01, 0.0541272, NaN, NaN, NaN, 0.03112983, "- N/A -   "
32.4, 1281.32, 0.05418, NaN, NaN, NaN, 0.0299091, "- N/A -   "
32.43, 1282.75, 0.05422719, NaN, NaN, NaN, 0.03112983, "- N/A -   "
32.46, 1283.94, 0.05427439, NaN, NaN, NaN, 0.0323506, "- N/A -   "
32.49, 1285.25, 0.0543216, NaN, NaN, NaN, 0.0335714, "- N/A -   "
32.52, 1286.56, 0.05437158, NaN, NaN, NaN, 0.0335714, "- N/A -   "
32.55, 1288.11, 0.0544243, NaN, NaN, NaN, 0.0335714, "- N/A -   "
32.58, 1289.66, 0.0544771, NaN, NaN, NaN, 0.03112983, "- N/A -   "
32.61, 1291.21, 0.0545326, NaN, NaN, NaN, 0.0286883, "- N/A -   "
32.64, 1292.41, 0.0545771, NaN, NaN, NaN, 0.03112983, "- N/A -   "
32.67, 1293.84, 0.0546215, NaN, NaN, NaN, 0.0335714, "- N/A -   "
32.7, 1294.79, 0.0546659, NaN, NaN, NaN, 0.03601294, "- N/A -   "
32.73, 1295.985, 0.0547103, NaN, NaN, NaN, 0.0384545, "- N/A -   "
32.76, 1297.18, 0.0547548, NaN, NaN, NaN, 0.04089605, "- N/A -   "
32.79, 1298.49, 0.05480198, NaN, NaN, NaN, 0.04211683, "- N/A -   "
32.82, 1299.8, 0.05484918, NaN, NaN, NaN, 0.0433376, "- N/A -   "
32.85, 1301.35, 0.05490194, NaN, NaN, NaN, 0.04211683, "- N/A -   "
32.88, 1302.663, 0.0549519, NaN, NaN, NaN, 0.04211683, "- N/A -   "
32.91, 1303.97, 0.0550019, NaN, NaN, NaN, 0.04211683, "- N/A -   "
32.94, 1305.64, 0.0550574, NaN, NaN, NaN, 0.0396753, "- N/A -   "
32.97, 1307.08, 0.0551074, NaN, NaN, NaN, 0.0396753, "- N/A -   "
33, 1308.51, 0.0551602, NaN, NaN, NaN, 0.0384545, "- N/A -   "
33.03, 1309.94, 0.05521016, NaN, NaN, NaN, 0.0384545, "- N/A -   "
33.06, 1311.13, 0.05525736, NaN, NaN, NaN, 0.0396753, "- N/A -   "
33.09, 1312.56, 0.0553073, NaN, NaN, NaN, 0.0396753, "- N/A -   "
33.12, 1313.87, 0.0553573, NaN, NaN, NaN, 0.0396753, "- N/A -   "
33.15, 1315.66, 0.0554156, NaN, NaN, NaN, 0.03601294, "- N/A -   "
33.18, 1317.331, 0.05547673, NaN, NaN, NaN, 0.03112983, "- N/A -   "
33.21, 1318.762, 0.0555295, NaN, NaN, NaN, 0.03112983, "- N/A -   "
33.24, 1320.193, 0.05557669, NaN, NaN, NaN, 0.03112983, "- N/A -   "
33.27, 1321.27, 0.0556211, NaN, NaN, NaN, 0.0335714, "- N/A -   "
33.3, 1322.58, 0.0556711, NaN, NaN, NaN, 0.0335714, "- N/A -   "
33.33, 1323.89, 0.0557155, NaN, NaN, NaN, 0.03601294, "- N/A -   "
33.36, 1325.32, 0.0557683, NaN, NaN, NaN, 0.0347922, "- N/A -   "
33.39, 1326.63, 0.055821, NaN, NaN, NaN, 0.0347922, "- N/A -   "
33.42, 1328.06, 0.05586825, NaN, NaN, NaN, 0.0347922, "- N/A -   "
33.45, 1329.26, 0.0559127, NaN, NaN, NaN, 0.0372337, "- N/A -   "
33.48, 1330.45, 0.05595988, NaN, NaN, NaN, 0.0384545, "- N/A -   "
33.51, 1331.88, 0.0560071, NaN, NaN, NaN, 0.0396753, "- N/A -   "
33.54, 1333.07, 0.05605429, NaN, NaN, NaN, 0.04089605, "- N/A -   "
33.57, 1334.384, 0.0561015, NaN, NaN, NaN, 0.04211683, "- N/A -   "
33.6, 1335.7, 0.0561487, NaN, NaN, NaN, 0.0445584, "- N/A -   "
33.63, 1337.25, 0.0561987, NaN, NaN, NaN, 0.0433376, "- N/A -   "
33.66, 1338.56, 0.05624866, NaN, NaN, NaN, 0.0433376, "- N/A -   "
33.69, 1339.99, 0.0563042, NaN, NaN, NaN, 0.04089605, "- N/A -   "
33.72, 1341.78, 0.05636251, NaN, NaN, NaN, 0.0372337, "- N/A -   "
33.75, 1343.45, 0.0564208, NaN, NaN, NaN, 0.0335714, "- N/A -   "
33.78, 1344.759, 0.05647358, NaN, NaN, NaN, 0.0323506, "- N/A -   "
33.81, 1346.19, 0.05652634, NaN, NaN, NaN, 0.0323506, "- N/A -   "
33.84, 1347.62, 0.0565791, NaN, NaN, NaN, 0.03112983, "- N/A -   "
33.87, 1348.81, 0.0566235, NaN, NaN, NaN, 0.0323506, "- N/A -   "
33.9, 1350.24, 0.0566735, NaN, NaN, NaN, 0.0323506, "- N/A -   "
33.93, 1351.79, 0.0567263, NaN, NaN, NaN, 0.03112983, "- N/A -   "
33.96, 1353.35, 0.0567818, NaN, NaN, NaN, 0.0286883, "- N/A -   "
33.99, 1354.9, 0.0568346, NaN, NaN, NaN, 0.0286883, "- N/A -   "
34.02, 1356.21, 0.0568818, NaN, NaN, NaN, 0.0286883, "- N/A -   "
34.05, 1357.4, 0.056929, NaN, NaN, NaN, 0.0299091, "- N/A -   "
34.08, 1358.59, 0.0569734, NaN, NaN, NaN, 0.0335714, "- N/A -   "
34.11, 1359.67, 0.057015, NaN, NaN, NaN, 0.03601294, "- N/A -   "
34.14, 1360.858, 0.05705392, NaN, NaN, NaN, 0.04089605, "- N/A -   "
34.17, 1362.05, 0.0570983, NaN, NaN, NaN, 0.0433376, "- N/A -   "
34.2, 1363.243, 0.0571456, NaN, NaN, NaN, 0.0445584, "- N/A -   "
34.23, 1364.55, 0.0571928, NaN, NaN, NaN, 0.04577916, "- N/A -   "
34.26, 1365.87, 0.05723996, NaN, NaN, NaN, 0.04699994, "- N/A -   "
34.29, 1367.42, 0.0572955, NaN, NaN, NaN, 0.04577916, "- N/A -   "
34.32, 1369.09, 0.057351, NaN, NaN, NaN, 0.04211683, "- N/A -   "
34.35, 1370.64, 0.0574093, NaN, NaN, NaN, 0.0396753, "- N/A -   "
34.38, 1372.19, 0.0574649, NaN, NaN, NaN, 0.0372337, "- N/A -   "
34.41, 1373.74, 0.05751764, NaN, NaN, NaN, 0.0347922, "- N/A -   "
34.44, 1374.93, 0.05756762, NaN, NaN, NaN, 0.0347922, "- N/A -   "
34.47, 1376.24, 0.057612, NaN, NaN, NaN, 0.0372337, "- N/A -   "
34.5, 1377.67, 0.057662, NaN, NaN, NaN, 0.0372337, "- N/A -   "
34.53, 1379.22, 0.05771756, NaN, NaN, NaN, 0.0347922, "- N/A -   "
34.56, 1380.89, 0.0577787, NaN, NaN, NaN, 0.0299091, "- N/A -   "
34.59, 1382.44, 0.05783419, NaN, NaN, NaN, 0.0286883, "- N/A -   "
34.62, 1383.75, 0.0578842, NaN, NaN, NaN, 0.0274675, "- N/A -   "
34.65, 1385.07, 0.05793137, NaN, NaN, NaN, 0.0286883, "- N/A -   "
34.68, 1386.26, 0.0579758, NaN, NaN, NaN, 0.0323506, "- N/A -   "
34.71, 1387.45, 0.0580202, NaN, NaN, NaN, 0.0335714, "- N/A -   "
34.74, 1388.763, 0.05806466, NaN, NaN, NaN, 0.03601294, "- N/A -   "
34.77, 1389.96, 0.0581091, NaN, NaN, NaN, 0.0384545, "- N/A -   "
34.8, 1391.03, 0.0581535, NaN, NaN, NaN, 0.04089605, "- N/A -   "
34.83, 1392.34, 0.0582007, NaN, NaN, NaN, 0.04211683, "- N/A -   "
34.86, 1393.65, 0.0582507, NaN, NaN, NaN, 0.04211683, "- N/A -   "
34.89, 1395.2, 0.0583007, NaN, NaN, NaN, 0.04211683, "- N/A -   "
34.92, 1396.4, 0.0583507, NaN, NaN, NaN, 0.04211683, "- N/A -   "
34.95, 1397.826, 0.0584006, NaN, NaN, NaN, 0.04211683, "- N/A -   "
34.98, 1399.26, 0.0584506, NaN, NaN, NaN, 0.04211683, "- N/A -   "
35.01, 1400.57, 0.0585006, NaN, NaN, NaN, 0.04211683, "- N/A -   "
35.04, 1402.12, 0.0585561, NaN, NaN, NaN, 0.04089605, "- N/A -   "
35.07, 1403.67, 0.0586117, NaN, NaN, NaN, 0.0372337, "- N/A -   "
35.1, 1405.58, 0.0586728, NaN, NaN, NaN, 0.0323506, "- N/A -   "
35.13, 1407.13, 0.0587311, NaN, NaN, NaN, 0.0286883, "- N/A -   "
35.16, 1408.56, 0.0587838, NaN, NaN, NaN, 0.0274675, "- N/A -   "
35.19, 1409.99, 0.05883382, NaN, NaN, NaN, 0.0274675, "- N/A -   "
35.22, 1411.54, 0.05888658, NaN, NaN, NaN, 0.0274675, "- N/A -   "
35.25, 1412.61, 0.058931, NaN, NaN, NaN, 0.0286883, "- N/A -   "
35.28, 1413.93, 0.05897821, NaN, NaN, NaN, 0.0299091, "- N/A -   "
35.31, 1415.24, 0.0590254, NaN, NaN, NaN, 0.0323506, "- N/A -   "
35.34, 1416.55, 0.0590726, NaN, NaN, NaN, 0.0347922, "- N/A -   "
35.37, 1417.74, 0.05911705, NaN, NaN, NaN, 0.03601294, "- N/A -   "
35.4, 1419.053, 0.059167, NaN, NaN, NaN, 0.03601294, "- N/A -   "
35.43, 1420.484, 0.05921701, NaN, NaN, NaN, 0.0372337, "- N/A -   "
35.46, 1421.8, 0.059267, NaN, NaN, NaN, 0.0372337, "- N/A -   "
35.49, 1423.11, 0.05931142, NaN, NaN, NaN, 0.0384545, "- N/A -   "
35.52, 1424.3, 0.0593558, NaN, NaN, NaN, 0.04211683, "- N/A -   "
35.55, 1425.49, 0.0593975, NaN, NaN, NaN, 0.0445584, "- N/A -   "
35.58, 1426.92, 0.0594447, NaN, NaN, NaN, 0.04577916, "- N/A -   "
35.61, 1428.24, 0.05949469, NaN, NaN, NaN, 0.04577916, "- N/A -   "
35.64, 1429.55, 0.0595474, NaN, NaN, NaN, 0.0445584, "- N/A -   "
35.67, 1431.34, 0.059603, NaN, NaN, NaN, 0.04211683, "- N/A -   "
35.7, 1432.89, 0.0596641, NaN, NaN, NaN, 0.0384545, "- N/A -   "
35.73, 1434.44, 0.0597196, NaN, NaN, NaN, 0.0347922, "- N/A -   "
35.76, 1435.99, 0.05977236, NaN, NaN, NaN, 0.0335714, "- N/A -   "
35.79, 1437.42, 0.05982512, NaN, NaN, NaN, 0.0335714, "- N/A -   "
35.82, 1438.73, 0.05987232, NaN, NaN, NaN, 0.0347922, "- N/A -   "
35.85, 1439.922, 0.059914, NaN, NaN, NaN, 0.0372337, "- N/A -   "
35.88, 1441, 0.0599584, NaN, NaN, NaN, 0.0396753, "- N/A -   "
35.91, 1442.55, 0.06001116, NaN, NaN, NaN, 0.0396753, "- N/A -   "
35.94, 1443.98, 0.0600611, NaN, NaN, NaN, 0.0384545, "- N/A -   "
35.97, 1445.53, 0.0601167, NaN, NaN, NaN, 0.03601294, "- N/A -   "
36, 1446.96, 0.06017221, NaN, NaN, NaN, 0.0335714, "- N/A -   "
36.03, 1448.51, 0.06022497, NaN, NaN, NaN, 0.0323506, "- N/A -   "
36.06, 1449.82, 0.0602722, NaN, NaN, NaN, 0.0335714, "- N/A -   "
36.09, 1451.01, 0.0603166, NaN, NaN, NaN, 0.03601294, "- N/A -   "
36.12, 1452.21, 0.060361, NaN, NaN, NaN, 0.0384545, "- N/A -   "
36.15, 1453.4, 0.06040546, NaN, NaN, NaN, 0.04089605, "- N/A -   "
36.18, 1454.71, 0.0604527, NaN, NaN, NaN, 0.04211683, "- N/A -   "
36.21, 1456.14, 0.0605054, NaN, NaN, NaN, 0.04089605, "- N/A -   "
36.24, 1457.69, 0.0605582, NaN, NaN, NaN, 0.0396753, "- N/A -   "
36.27, 1459.12, 0.0606109, NaN, NaN, NaN, 0.0384545, "- N/A -   "
36.3, 1460.43, 0.0606581, NaN, NaN, NaN, 0.0396753, "- N/A -   "
36.33, 1461.86, 0.0607081, NaN, NaN, NaN, 0.0396753, "- N/A -   "
36.36, 1463.057, 0.0607553, NaN, NaN, NaN, 0.04089605, "- N/A -   "
36.39, 1464.61, 0.0608109, NaN, NaN, NaN, 0.0396753, "- N/A -   "
36.42, 1466.04, 0.06085807, NaN, NaN, NaN, 0.0396753, "- N/A -   "
36.45, 1467.47, 0.0609136, NaN, NaN, NaN, 0.0384545, "- N/A -   "
36.48, 1469.02, 0.0609664, NaN, NaN, NaN, 0.03601294, "- N/A -   "
36.51, 1470.33, 0.0610163, NaN, NaN, NaN, 0.0372337, "- N/A -   "
36.54, 1471.76, 0.0610663, NaN, NaN, NaN, 0.03601294, "- N/A -   "
36.57, 1473.31, 0.0611219, NaN, NaN, NaN, 0.0347922, "- N/A -   "
36.6, 1474.74, 0.06117462, NaN, NaN, NaN, 0.0323506, "- N/A -   "
36.63, 1476.06, 0.0612218, NaN, NaN, NaN, 0.0335714, "- N/A -   "
36.66, 1477.37, 0.06127181, NaN, NaN, NaN, 0.0347922, "- N/A -   "
36.69, 1478.8, 0.06132179, NaN, NaN, NaN, 0.0347922, "- N/A -   "
36.72, 1480.23, 0.061369, NaN, NaN, NaN, 0.0347922, "- N/A -   "
36.75, 1481.66, 0.0614245, NaN, NaN, NaN, 0.0335714, "- N/A -   "
36.78, 1482.972, 0.06147451, NaN, NaN, NaN, 0.0323506, "- N/A -   "
36.81, 1484.52, 0.0615273, NaN, NaN, NaN, 0.03112983, "- N/A -   "
36.84, 1485.834, 0.0615717, NaN, NaN, NaN, 0.0335714, "- N/A -   "
36.87, 1486.91, 0.0616133, NaN, NaN, NaN, 0.0372337, "- N/A -   "
36.9, 1488.1, 0.0616578, NaN, NaN, NaN, 0.0396753, "- N/A -   "
36.93, 1489.29, 0.0617022, NaN, NaN, NaN, 0.04211683, "- N/A -   "
36.96, 1490.48, 0.06174941, NaN, NaN, NaN, 0.0433376, "- N/A -   "
36.99, 1491.8, 0.0617966, NaN, NaN, NaN, 0.04577916, "- N/A -   "
37.02, 1493.23, 0.0618438, NaN, NaN, NaN, 0.04699994, "- N/A -   "
37.05, 1494.66, 0.0618966, NaN, NaN, NaN, 0.04577916, "- N/A -   "
37.08, 1496.09, 0.06194933, NaN, NaN, NaN, 0.0445584, "- N/A -   "
37.11, 1497.76, 0.0620049, NaN, NaN, NaN, 0.04089605, "- N/A -   "
37.14, 1499.43, 0.06206596, NaN, NaN, NaN, 0.03601294, "- N/A -   "
37.17, 1500.98, 0.0621215, NaN, NaN, NaN, 0.0347922, "- N/A -   "
37.2, 1502.29, 0.0621715, NaN, NaN, NaN, 0.0335714, "- N/A -   "
37.23, 1503.48, 0.0622159, NaN, NaN, NaN, 0.0372337, "- N/A -   "
37.26, 1504.91, 0.06226311, NaN, NaN, NaN, 0.0372337, "- N/A -   "
37.29, 1506.23, 0.0623159, NaN, NaN, NaN, 0.0372337, "- N/A -   "
37.32, 1507.9, 0.0623686, NaN, NaN, NaN, 0.0347922, "- N/A -   "
37.35, 1509.45, 0.06242416, NaN, NaN, NaN, 0.0323506, "- N/A -   "
37.38, 1510.877, 0.0624797, NaN, NaN, NaN, 0.0299091, "- N/A -   "
37.41, 1512.308, 0.0625297, NaN, NaN, NaN, 0.0299091, "- N/A -   "
37.44, 1513.5, 0.0625741, NaN, NaN, NaN, 0.0323506, "- N/A -   "
37.47, 1514.81, 0.06262408, NaN, NaN, NaN, 0.0335714, "- N/A -   "
37.5, 1516, 0.06267129, NaN, NaN, NaN, 0.0347922, "- N/A -   "
37.53, 1517.2, 0.06271572, NaN, NaN, NaN, 0.03601294, "- N/A -   "
37.56, 1518.39, 0.06275737, NaN, NaN, NaN, 0.0396753, "- N/A -   "
37.59, 1519.7, 0.06280457, NaN, NaN, NaN, 0.04089605, "- N/A -   "
37.62, 1520.77, 0.062849, NaN, NaN, NaN, 0.0433376, "- N/A -   "
37.65, 1522.09, 0.06289343, NaN, NaN, NaN, 0.04577916, "- N/A -   "
37.68, 1523.4, 0.06294341, NaN, NaN, NaN, 0.04577916, "- N/A -   "
37.71, 1525.07, 0.06299894, NaN, NaN, NaN, 0.0445584, "- N/A -   "
37.74, 1526.5, 0.06305448, NaN, NaN, NaN, 0.04089605, "- N/A -   "
37.77, 1528.17, 0.06311002, NaN, NaN, NaN, 0.0384545, "- N/A -   "
37.8, 1529.72, 0.06316555, NaN, NaN, NaN, 0.03601294, "- N/A -   "
37.83, 1531.269, 0.06322109, NaN, NaN, NaN, 0.0335714, "- N/A -   "
37.86, 1532.82, 0.06327385, NaN, NaN, NaN, 0.0323506, "- N/A -   "
37.89, 1534.25, 0.0633238, NaN, NaN, NaN, 0.0323506, "- N/A -   "
37.92, 1535.56, 0.0633738, NaN, NaN, NaN, 0.0323506, "- N/A -   "
37.95, 1537.11, 0.06342934, NaN, NaN, NaN, 0.0299091, "- N/A -   "
37.98, 1538.42, 0.0634821, NaN, NaN, NaN, 0.0286883, "- N/A -   "
38.01, 1540.09, 0.0635349, NaN, NaN, NaN, 0.0274675, "- N/A -   "
38.04, 1541.29, 0.06358207, NaN, NaN, NaN, 0.0286883, "- N/A -   "
38.07, 1542.598, 0.06363205, NaN, NaN, NaN, 0.0299091, "- N/A -   "
38.1, 1543.91, 0.06367925, NaN, NaN, NaN, 0.0299091, "- N/A -   "
38.13, 1545.1, 0.0637209, NaN, NaN, NaN, 0.0335714, "- N/A -   "
38.16, 1546.29, 0.06376533, NaN, NaN, NaN, 0.0372337, "- N/A -   "
38.19, 1547.368, 0.06380976, NaN, NaN, NaN, 0.0396753, "- N/A -   "
38.22, 1548.68, 0.06385141, NaN, NaN, NaN, 0.04211683, "- N/A -   "
38.25, 1549.99, 0.0638986, NaN, NaN, NaN, 0.0445584, "- N/A -   "
38.28, 1551.18, 0.06394582, NaN, NaN, NaN, 0.0445584, "- N/A -   "
38.31, 1552.62, 0.0639958, NaN, NaN, NaN, 0.0445584, "- N/A -   "
38.34, 1553.93, 0.06404301, NaN, NaN, NaN, 0.04577916, "- N/A -   "
38.37, 1555.48, 0.06409299, NaN, NaN, NaN, 0.04577916, "- N/A -   "
38.4, 1556.91, 0.0641513, NaN, NaN, NaN, 0.04211683, "- N/A -   "
38.43, 1558.34, 0.06420406, NaN, NaN, NaN, 0.04089605, "- N/A -   "
38.46, 1560.01, 0.06425959, NaN, NaN, NaN, 0.0384545, "- N/A -   "
38.49, 1561.8, 0.06432068, NaN, NaN, NaN, 0.0335714, "- N/A -   "
38.52, 1563.467, 0.06438177, NaN, NaN, NaN, 0.0299091, "- N/A -   "
38.55, 1564.78, 0.06443175, NaN, NaN, NaN, 0.0299091, "- N/A -   "
38.58, 1566.09, 0.064479, NaN, NaN, NaN, 0.0299091, "- N/A -   "
38.61, 1567.4, 0.0645262, NaN, NaN, NaN, 0.03112983, "- N/A -   "
38.64, 1568.71, 0.06457336, NaN, NaN, NaN, 0.0323506, "- N/A -   "
38.67, 1569.91, 0.06462057, NaN, NaN, NaN, 0.0347922, "- N/A -   "
38.7, 1571.1, 0.064665, NaN, NaN, NaN, 0.03601294, "- N/A -   "
38.73, 1572.53, 0.0647122, NaN, NaN, NaN, 0.0372337, "- N/A -   "
38.76, 1573.84, 0.06476218, NaN, NaN, NaN, 0.0372337, "- N/A -   "
38.79, 1575.273, 0.06481216, NaN, NaN, NaN, 0.0384545, "- N/A -   "
38.82, 1576.7, 0.0648594, NaN, NaN, NaN, 0.0384545, "- N/A -   "
38.85, 1578.02, 0.06491213, NaN, NaN, NaN, 0.0384545, "- N/A -   "
38.88, 1579.33, 0.06495933, NaN, NaN, NaN, 0.0396753, "- N/A -   "
38.91, 1580.76, 0.06500654, NaN, NaN, NaN, 0.0396753, "- N/A -   "
38.94, 1581.95, 0.06505097, NaN, NaN, NaN, 0.04211683, "- N/A -   "
38.97, 1583.38, 0.0651009, NaN, NaN, NaN, 0.04211683, "- N/A -   "
39, 1584.694, 0.06514815, NaN, NaN, NaN, 0.0433376, "- N/A -   "
39.03, 1585.89, 0.06519814, NaN, NaN, NaN, 0.0433376, "- N/A -   "
39.06, 1587.556, 0.06525367, NaN, NaN, NaN, 0.04089605, "- N/A -   "
39.09, 1589.34, 0.0653148, NaN, NaN, NaN, 0.03601294, "- N/A -   "
39.12, 1590.9, 0.06537307, NaN, NaN, NaN, 0.0323506, "- N/A -   "
39.15, 1592.56, 0.06543138, NaN, NaN, NaN, 0.0286883, "- N/A -   "
39.18, 1594, 0.0654814, NaN, NaN, NaN, 0.0286883, "- N/A -   "
39.21, 1595.43, 0.06553134, NaN, NaN, NaN, 0.0286883, "- N/A -   "
39.24, 1596.62, 0.06557855, NaN, NaN, NaN, 0.0299091, "- N/A -   "
39.27, 1597.93, 0.06562576, NaN, NaN, NaN, 0.0323506, "- N/A -   "
39.3, 1599.12, 0.0656702, NaN, NaN, NaN, 0.0335714, "- N/A -   "
39.33, 1600.316, 0.0657174, NaN, NaN, NaN, 0.0347922, "- N/A -   "
39.36, 1601.63, 0.06576737, NaN, NaN, NaN, 0.03601294, "- N/A -   "
39.39, 1603.178, 0.0658229, NaN, NaN, NaN, 0.0335714, "- N/A -   "
39.42, 1604.73, 0.06587566, NaN, NaN, NaN, 0.03112983, "- N/A -   "
39.45, 1606.16, 0.06592842, NaN, NaN, NaN, 0.03112983, "- N/A -   "
39.48, 1607.35, 0.06597007, NaN, NaN, NaN, 0.0335714, "- N/A -   "
39.51, 1608.66, 0.06601728, NaN, NaN, NaN, 0.0347922, "- N/A -   "
39.54, 1609.98, 0.0660645, NaN, NaN, NaN, 0.03601294, "- N/A -   "
39.57, 1611.05, 0.0661089, NaN, NaN, NaN, 0.0396753, "- N/A -   "
39.6, 1612.36, 0.06615334, NaN, NaN, NaN, 0.04211683, "- N/A -   "
39.63, 1613.55, 0.06620054, NaN, NaN, NaN, 0.04211683, "- N/A -   "
39.66, 1615.1, 0.06625052, NaN, NaN, NaN, 0.04211683, "- N/A -   "
39.69, 1616.53, 0.06630328, NaN, NaN, NaN, 0.04089605, "- N/A -   "
39.72, 1617.85, 0.06635326, NaN, NaN, NaN, 0.04211683, "- N/A -   "
39.75, 1619.28, 0.06640325, NaN, NaN, NaN, 0.04089605, "- N/A -   "
39.78, 1620.71, 0.0664588, NaN, NaN, NaN, 0.0396753, "- N/A -   "
39.81, 1622.26, 0.06651154, NaN, NaN, NaN, 0.0372337, "- N/A -   "
39.84, 1623.69, 0.06656152, NaN, NaN, NaN, 0.0384545, "- N/A -   "
39.87, 1625.12, 0.06661428, NaN, NaN, NaN, 0.0372337, "- N/A -   "
39.9, 1626.55, 0.066667, NaN, NaN, NaN, 0.0372337, "- N/A -   "
39.93, 1627.98, 0.06671424, NaN, NaN, NaN, 0.0372337, "- N/A -   "
39.96, 1629.41, 0.06676422, NaN, NaN, NaN, 0.0372337, "- N/A -   "
39.99, 1630.61, 0.06681421, NaN, NaN, NaN, 0.0372337, "- N/A -   "
40.02, 1631.92, 0.0668614, NaN, NaN, NaN, 0.0384545, "- N/A -   "
40.05, 1633.35, 0.06691416, NaN, NaN, NaN, 0.0384545, "- N/A -   "
40.08, 1634.78, 0.06696692, NaN, NaN, NaN, 0.0372337, "- N/A -   "
40.11, 1636.33, 0.0670197, NaN, NaN, NaN, 0.0347922, "- N/A -   "
40.14, 1637.76, 0.06707244, NaN, NaN, NaN, 0.0335714, "- N/A -   "
40.17, 1639.07, 0.0671252, NaN, NaN, NaN, 0.0335714, "- N/A -   "
40.2, 1640.5, 0.06717241, NaN, NaN, NaN, 0.0335714, "- N/A -   "
40.23, 1641.93, 0.06722239, NaN, NaN, NaN, 0.0347922, "- N/A -   "
40.26, 1643.25, 0.0672668, NaN, NaN, NaN, 0.03601294, "- N/A -   "
40.29, 1644.2, 0.06731124, NaN, NaN, NaN, 0.0384545, "- N/A -   "
40.32, 1645.63, 0.06735845, NaN, NaN, NaN, 0.0396753, "- N/A -   "
40.35, 1646.82, 0.06740565, NaN, NaN, NaN, 0.04089605, "- N/A -   "
40.38, 1648.136, 0.0674529, NaN, NaN, NaN, 0.04211683, "- N/A -   "
40.41, 1649.45, 0.06750284, NaN, NaN, NaN, 0.0433376, "- N/A -   "
40.44, 1651, 0.06755282, NaN, NaN, NaN, 0.04211683, "- N/A -   "
40.47, 1652.31, 0.0676028, NaN, NaN, NaN, 0.04211683, "- N/A -   "
40.5, 1653.74, 0.0676556, NaN, NaN, NaN, 0.04089605, "- N/A -   "
40.53, 1655.41, 0.06771387, NaN, NaN, NaN, 0.0384545, "- N/A -   "
40.56, 1656.96, 0.06777219, NaN, NaN, NaN, 0.0335714, "- N/A -   "
40.59, 1658.39, 0.0678249, NaN, NaN, NaN, 0.0335714, "- N/A -   "
40.62, 1659.82, 0.0678777, NaN, NaN, NaN, 0.0323506, "- N/A -   "
40.65, 1661.25, 0.06793046, NaN, NaN, NaN, 0.03112983, "- N/A -   "
40.68, 1662.57, 0.06798044, NaN, NaN, NaN, 0.0299091, "- N/A -   "
40.71, 1664.12, 0.0680332, NaN, NaN, NaN, 0.0299091, "- N/A -   "
40.74, 1665.43, 0.0680832, NaN, NaN, NaN, 0.0286883, "- N/A -   "
40.77, 1666.98, 0.06814149, NaN, NaN, NaN, 0.0250259, "- N/A -   "
40.8, 1668.41, 0.06819147, NaN, NaN, NaN, 0.0262467, "- N/A -   "
40.83, 1669.6, 0.0682331, NaN, NaN, NaN, 0.0286883, "- N/A -   "
40.86, 1670.79, 0.06827755, NaN, NaN, NaN, 0.03112983, "- N/A -   "
40.89, 1671.75, 0.06831642, NaN, NaN, NaN, 0.03601294, "- N/A -   "
40.92, 1672.821, 0.06836086, NaN, NaN, NaN, 0.0384545, "- N/A -   "
40.95, 1674.25, 0.0684053, NaN, NaN, NaN, 0.04089605, "- N/A -   "
40.98, 1675.21, 0.06844971, NaN, NaN, NaN, 0.0433376, "- N/A -   "
41.01, 1676.28, 0.06848858, NaN, NaN, NaN, 0.0482207, "- N/A -   "
41.04, 1677.35, 0.06853024, NaN, NaN, NaN, 0.05188305, "- N/A -   "
41.07, 1678.55, 0.06857467, NaN, NaN, NaN, 0.0543246, "- N/A -   "
41.1, 1679.98, 0.0686246, NaN, NaN, NaN, 0.0543246, "- N/A -   "
41.13, 1681.53, 0.06868018, NaN, NaN, NaN, 0.05188305, "- N/A -   "
41.16, 1683.196, 0.06874127, NaN, NaN, NaN, 0.04699994, "- N/A -   "
41.19, 1685.1, 0.06880791, NaN, NaN, NaN, 0.0396753, "- N/A -   "
41.22, 1686.893, 0.0688718, NaN, NaN, NaN, 0.0347922, "- N/A -   "
41.25, 1688.44, 0.06892731, NaN, NaN, NaN, 0.0323506, "- N/A -   "
41.262, 1688.92, 0.06894675, NaN, NaN, NaN, 0.03112983, "- N/A -   "