File: 2_Tensile_Data/Hamel_ForceTest_Bolt5_Test4.csv
Time, Load (lb), Position (in), AxialStrain (in), TransverseStrain (in), Auxiliary (), Control Out (V), Stress (psi)
0.0, 1.17947, 0.0, NaN, NaN, NaN, 0.095831, "- N/A -   "
0.01, 1.65126, 3.054427E-5, NaN, NaN, NaN, 0.09949338, "- N/A -   "
0.02, 2.241, 6.386529E-5, NaN, NaN, NaN, 0.09338949, "- N/A -   "
0.03, 2.712792, 9.16328e-05, NaN, NaN, NaN, 0.0872856, "- N/A -   "
0.04, 3.30253, 0.000122177, NaN, NaN, NaN, 0.08118171, "- N/A -   "
0.05, 3.774319, 0.000147168, NaN, NaN, NaN, 0.07751938, "- N/A -   "
0.06, 4.36406, 0.000172159, NaN, NaN, NaN, 0.0750778, "- N/A -   "
0.07, 4.59995, 0.000191596, NaN, NaN, NaN, 0.07263627, "- N/A -   "
0.08, 5.071741, 2.138099E-4, NaN, NaN, NaN, 0.0701947, "- N/A -   "
0.09, 5.425584, 0.000233247, NaN, NaN, NaN, 0.0689739, "- N/A -   "
0.1, 5.779426, 2.526844E-4, NaN, NaN, NaN, 0.06775316, "- N/A -   "
0.11, 6.13327, 2.721217E-4, NaN, NaN, NaN, 0.06775316, "- N/A -   "
0.12, 6.487111, 0.000288782, NaN, NaN, NaN, 0.06653238, "- N/A -   "
0.13, 6.84095, 3.109962E-4, NaN, NaN, NaN, 0.0640908, "- N/A -   "
0.14, 7.1948, 0.000327657, NaN, NaN, NaN, 0.0640908, "- N/A -   "
0.15, 7.666586, 0.000347094, NaN, NaN, NaN, 0.06287005, "- N/A -   "
0.16, 7.90248, 0.000366531, NaN, NaN, NaN, 0.06164927, "- N/A -   "
0.17, 8.37427, 3.859685E-4, NaN, NaN, NaN, 0.0604285, "- N/A -   "
0.18, 8.728113, 0.000405406, NaN, NaN, NaN, 0.0592077, "- N/A -   "
0.19, 9.199903, 4.276198E-4, NaN, NaN, NaN, 0.0579869, "- N/A -   "
0.2, 9.435798, 0.000447057, NaN, NaN, NaN, 0.0555454, "- N/A -   "
0.21, 9.907588, 0.000469271, NaN, NaN, NaN, 0.0531038, "- N/A -   "
0.22, 10.26143, 4.887083E-4, NaN, NaN, NaN, 0.05188305, "- N/A -   "
0.23, 10.73322, 0.000510922, NaN, NaN, NaN, 0.0494415, "- N/A -   "
0.24, 11.0871, 0.000533136, NaN, NaN, NaN, 0.0482207, "- N/A -   "
0.25, 11.4409, 5.525736E-4, NaN, NaN, NaN, 0.04699994, "- N/A -   "
0.26, 11.7947, 5.720109E-4, NaN, NaN, NaN, 0.04577916, "- N/A -   "
0.27, 12.14859, 0.000591448, NaN, NaN, NaN, 0.0445584, "- N/A -   "
0.28, 12.3845, 6.108854E-4, NaN, NaN, NaN, 0.0433376, "- N/A -   "
0.29, 12.8563, 0.000627546, NaN, NaN, NaN, 0.04211683, "- N/A -   "
0.3, 13.2101, 6.497599E-4, NaN, NaN, NaN, 0.04089605, "- N/A -   "
0.31, 13.564, 0.00066642, NaN, NaN, NaN, 0.0396753, "- N/A -   "
0.32, 13.9178, 6.858577E-4, NaN, NaN, NaN, 0.0384545, "- N/A -   "
0.33, 14.2716, 0.000705295, NaN, NaN, NaN, 0.0372337, "- N/A -   "
0.34, 14.6255, 7.219555E-4, NaN, NaN, NaN, 0.0372337, "- N/A -   "
0.35, 14.8614, 7.38616E-4, NaN, NaN, NaN, 0.0372337, "- N/A -   "
0.36, 15.0973, 7.552765E-4, NaN, NaN, NaN, 0.0372337, "- N/A -   "
0.37, 15.4511, 7.71937E-4, NaN, NaN, NaN, 0.0372337, "- N/A -   "
0.38, 15.805, 7.885975E-4, NaN, NaN, NaN, 0.0372337, "- N/A -   "
0.39, 16.1588, 8.080348E-4, NaN, NaN, NaN, 0.03601294, "- N/A -   "
0.4, 16.3947, 8.27472E-4, NaN, NaN, NaN, 0.03601294, "- N/A -   "
0.41, 16.74854, 0.000844133, NaN, NaN, NaN, 0.0347922, "- N/A -   "
0.43, 17.4562, 8.830071E-4, NaN, NaN, NaN, 0.0323506, "- N/A -   "
0.45, 18.16391, 0.000919105, NaN, NaN, NaN, 0.03112983, "- N/A -   "
0.47, 18.7536, 9.552026E-4, NaN, NaN, NaN, 0.03112983, "- N/A -   "
0.49, 19.3434, 9.885236E-4, NaN, NaN, NaN, 0.0299091, "- N/A -   "
0.51, 19.9331, 0.00102184, NaN, NaN, NaN, 0.0299091, "- N/A -   "
0.53, 20.6408, 0.00105517, NaN, NaN, NaN, 0.0299091, "- N/A -   "
0.55, 21.1126, 0.00108849, NaN, NaN, NaN, 0.0299091, "- N/A -   "
0.57, 21.5844, 0.001119031, NaN, NaN, NaN, 0.0323506, "- N/A -   "
0.59, 22.1741, 0.0011468, NaN, NaN, NaN, 0.0335714, "- N/A -   "
0.61, 22.6459, 0.00117734, NaN, NaN, NaN, 0.0347922, "- N/A -   "
0.63, 23.2357, 0.00120511, NaN, NaN, NaN, 0.0372337, "- N/A -   "
0.65, 23.7074, 0.00123565, NaN, NaN, NaN, 0.0384545, "- N/A -   "
0.67, 24.29718, 0.0012662, NaN, NaN, NaN, 0.0396753, "- N/A -   "
0.69, 24.769, 0.001296743, NaN, NaN, NaN, 0.04211683, "- N/A -   "
0.71, 25.2408, 0.00132451, NaN, NaN, NaN, 0.0433376, "- N/A -   "
0.73, 25.8305, 0.00135783, NaN, NaN, NaN, 0.0433376, "- N/A -   "
0.75, 26.4202, 0.00139115, NaN, NaN, NaN, 0.0445584, "- N/A -   "
0.77, 27.1279, 0.00142447, NaN, NaN, NaN, 0.0433376, "- N/A -   "
0.79, 27.5997, 0.00145779, NaN, NaN, NaN, 0.0433376, "- N/A -   "
0.81, 28.3074, 0.00149112, NaN, NaN, NaN, 0.0445584, "- N/A -   "
0.83, 28.7792, 0.00152166, NaN, NaN, NaN, 0.0445584, "- N/A -   "
0.85, 29.3689, 0.001554981, NaN, NaN, NaN, 0.04577916, "- N/A -   "
0.87, 30.0766, 0.0015883, NaN, NaN, NaN, 0.0445584, "- N/A -   "
0.89, 30.78429, 0.001621623, NaN, NaN, NaN, 0.0445584, "- N/A -   "
0.91, 31.374, 0.00165772, NaN, NaN, NaN, 0.0433376, "- N/A -   "
0.93, 32.08171, 0.0016966, NaN, NaN, NaN, 0.04089605, "- N/A -   "
0.95, 32.7894, 0.00173269, NaN, NaN, NaN, 0.0396753, "- N/A -   "
0.97, 33.49708, 0.00177434, NaN, NaN, NaN, 0.03601294, "- N/A -   "
0.99, 34.2048, 0.001816, NaN, NaN, NaN, 0.0323506, "- N/A -   "
1.01, 35.0304, 0.00185487, NaN, NaN, NaN, 0.0299091, "- N/A -   "
1.03, 35.7381, 0.001890968, NaN, NaN, NaN, 0.0286883, "- N/A -   "
1.05, 36.32782, 0.001924289, NaN, NaN, NaN, 0.0286883, "- N/A -   "
1.07, 37.0355, 0.00195761, NaN, NaN, NaN, 0.0286883, "- N/A -   "
1.09, 37.5073, 0.00198815, NaN, NaN, NaN, 0.0299091, "- N/A -   "
1.11, 38.097, 0.00202148, NaN, NaN, NaN, 0.0299091, "- N/A -   "
1.13, 38.8047, 0.0020548, NaN, NaN, NaN, 0.0299091, "- N/A -   "
1.15, 39.5124, 0.00208812, NaN, NaN, NaN, 0.0299091, "- N/A -   "
1.17, 39.98419, 0.00211588, NaN, NaN, NaN, 0.0323506, "- N/A -   "
1.19, 40.456, 0.00214365, NaN, NaN, NaN, 0.0347922, "- N/A -   "
1.21, 41.16367, 0.00217697, NaN, NaN, NaN, 0.0347922, "- N/A -   "
1.23, 41.7534, 0.00220752, NaN, NaN, NaN, 0.0372337, "- N/A -   "
1.25, 42.3431, 0.002238062, NaN, NaN, NaN, 0.0372337, "- N/A -   "
1.27, 43.0508, 0.00227416, NaN, NaN, NaN, 0.0372337, "- N/A -   "
1.29, 43.6406, 0.002304704, NaN, NaN, NaN, 0.0372337, "- N/A -   "
1.31, 44.2303, 0.002338025, NaN, NaN, NaN, 0.0372337, "- N/A -   "
1.33, 44.93799, 0.002371346, NaN, NaN, NaN, 0.0372337, "- N/A -   "
1.35, 45.6457, 0.00240467, NaN, NaN, NaN, 0.0372337, "- N/A -   "
1.37, 46.23541, 0.00243799, NaN, NaN, NaN, 0.0372337, "- N/A -   "
1.39, 46.8251, 0.00246576, NaN, NaN, NaN, 0.0396753, "- N/A -   "
1.41, 47.2969, 0.0024963, NaN, NaN, NaN, 0.04089605, "- N/A -   "
1.43, 47.8867, 0.00252684, NaN, NaN, NaN, 0.04211683, "- N/A -   "
1.45, 48.59436, 0.00256017, NaN, NaN, NaN, 0.04211683, "- N/A -   "
1.47, 49.1841, 0.00259071, NaN, NaN, NaN, 0.0433376, "- N/A -   "
1.49, 49.7738, 0.00262125, NaN, NaN, NaN, 0.0445584, "- N/A -   "
1.51, 50.3636, 0.0026518, NaN, NaN, NaN, 0.04577916, "- N/A -   "
1.53, 51.0713, 0.0026879, NaN, NaN, NaN, 0.04577916, "- N/A -   "
1.55, 51.7789, 0.00272399, NaN, NaN, NaN, 0.0433376, "- N/A -   "
1.57, 52.6046, 0.00276564, NaN, NaN, NaN, 0.0396753, "- N/A -   "
1.59, 53.19431, 0.00280452, NaN, NaN, NaN, 0.0384545, "- N/A -   "
1.61, 54.0199, 0.002840617, NaN, NaN, NaN, 0.03601294, "- N/A -   "
1.63, 54.7276, 0.00287671, NaN, NaN, NaN, 0.0347922, "- N/A -   "
1.65, 55.55326, 0.00291559, NaN, NaN, NaN, 0.0323506, "- N/A -   "
1.67, 56.143, 0.002951687, NaN, NaN, NaN, 0.03112983, "- N/A -   "
1.69, 56.85068, 0.002987785, NaN, NaN, NaN, 0.0299091, "- N/A -   "
1.71, 57.44042, 0.00302388, NaN, NaN, NaN, 0.0299091, "- N/A -   "
1.73, 58.1481, 0.003057204, NaN, NaN, NaN, 0.0299091, "- N/A -   "
1.75, 58.6199, 0.003084971, NaN, NaN, NaN, 0.03112983, "- N/A -   "
1.77, 59.2096, 0.00311829, NaN, NaN, NaN, 0.0323506, "- N/A -   "
1.79, 59.79937, 0.00314606, NaN, NaN, NaN, 0.0335714, "- N/A -   "
1.81, 60.3891, 0.0031766, NaN, NaN, NaN, 0.03601294, "- N/A -   "
1.83, 60.8609, 0.00320437, NaN, NaN, NaN, 0.0372337, "- N/A -   "
1.85, 61.56858, 0.00323769, NaN, NaN, NaN, 0.0372337, "- N/A -   "
1.87, 62.1583, 0.003271014, NaN, NaN, NaN, 0.0372337, "- N/A -   "
1.89, 62.98395, 0.003309888, NaN, NaN, NaN, 0.03601294, "- N/A -   "
1.91, 63.6916, 0.00334599, NaN, NaN, NaN, 0.0335714, "- N/A -   "
1.93, 64.3993, 0.003382084, NaN, NaN, NaN, 0.0323506, "- N/A -   "
1.95, 64.98906, 0.003412628, NaN, NaN, NaN, 0.0335714, "- N/A -   "
1.97, 65.5788, 0.00344317, NaN, NaN, NaN, 0.0347922, "- N/A -   "
1.99, 66.05058, 0.00347649, NaN, NaN, NaN, 0.03601294, "- N/A -   "
2.01, 66.64032, 0.00350426, NaN, NaN, NaN, 0.0372337, "- N/A -   "
2.03, 67.23006, 0.00353203, NaN, NaN, NaN, 0.0396753, "- N/A -   "
2.05, 67.81979, 0.00356257, NaN, NaN, NaN, 0.04089605, "- N/A -   "
2.07, 68.29159, 0.00359312, NaN, NaN, NaN, 0.04211683, "- N/A -   "
2.09, 68.8813, 0.003626438, NaN, NaN, NaN, 0.04211683, "- N/A -   "
2.11, 69.47106, 0.00365976, NaN, NaN, NaN, 0.04211683, "- N/A -   "
2.13, 70.29669, 0.00369586, NaN, NaN, NaN, 0.04089605, "- N/A -   "
2.15, 71.00438, 0.00373473, NaN, NaN, NaN, 0.0396753, "- N/A -   "
2.17, 71.59412, 0.00376528, NaN, NaN, NaN, 0.0396753, "- N/A -   "
2.19, 72.1838, 0.0037986, NaN, NaN, NaN, 0.04089605, "- N/A -   "
2.21, 72.65564, 0.00382914, NaN, NaN, NaN, 0.04089605, "- N/A -   "
2.23, 73.36333, 0.00386246, NaN, NaN, NaN, 0.04089605, "- N/A -   "
2.25, 74.071, 0.00390134, NaN, NaN, NaN, 0.0396753, "- N/A -   "
2.27, 74.8966, 0.00393743, NaN, NaN, NaN, 0.0372337, "- N/A -   "
2.29, 75.48638, 0.00397353, NaN, NaN, NaN, 0.03601294, "- N/A -   "
2.31, 76.07612, 0.004006853, NaN, NaN, NaN, 0.03601294, "- N/A -   "
2.33, 76.7838, 0.00404295, NaN, NaN, NaN, 0.03601294, "- N/A -   "
2.35, 77.49149, 0.004076272, NaN, NaN, NaN, 0.0347922, "- N/A -   "
2.37, 78.08122, 0.00410959, NaN, NaN, NaN, 0.0347922, "- N/A -   "
2.39, 78.67096, 0.00414569, NaN, NaN, NaN, 0.0335714, "- N/A -   "
2.41, 79.2607, 0.00417901, NaN, NaN, NaN, 0.0335714, "- N/A -   "
2.43, 79.96838, 0.00421233, NaN, NaN, NaN, 0.0335714, "- N/A -   "
2.45, 80.67606, 0.00424843, NaN, NaN, NaN, 0.0323506, "- N/A -   "
2.47, 81.26581, 0.00428175, NaN, NaN, NaN, 0.0335714, "- N/A -   "
2.49, 81.8555, 0.00431507, NaN, NaN, NaN, 0.0323506, "- N/A -   "
2.51, 82.44528, 0.00434839, NaN, NaN, NaN, 0.0323506, "- N/A -   "
2.53, 83.03502, 0.004381715, NaN, NaN, NaN, 0.0323506, "- N/A -   "
2.55, 83.6248, 0.004412259, NaN, NaN, NaN, 0.0335714, "- N/A -   "
2.57, 84.21449, 0.00444558, NaN, NaN, NaN, 0.0335714, "- N/A -   "
2.59, 84.80424, 0.004476124, NaN, NaN, NaN, 0.0347922, "- N/A -   "
2.61, 85.39397, 0.004512222, NaN, NaN, NaN, 0.0335714, "- N/A -   "
2.63, 86.1017, 0.004542766, NaN, NaN, NaN, 0.0347922, "- N/A -   "
2.65, 86.69139, 0.004576087, NaN, NaN, NaN, 0.0347922, "- N/A -   "
2.67, 87.28113, 0.004612185, NaN, NaN, NaN, 0.0347922, "- N/A -   "
2.69, 87.8709, 0.004645506, NaN, NaN, NaN, 0.0347922, "- N/A -   "
2.71, 88.4606, 0.004678827, NaN, NaN, NaN, 0.0335714, "- N/A -   "
2.73, 88.9324, 0.004709371, NaN, NaN, NaN, 0.0347922, "- N/A -   "
2.75, 89.52213, 0.004739915, NaN, NaN, NaN, 0.03601294, "- N/A -   "
2.77, 90.11186, 0.00477046, NaN, NaN, NaN, 0.0372337, "- N/A -   "
2.79, 90.58366, 0.004801004, NaN, NaN, NaN, 0.0384545, "- N/A -   "
2.81, 91.1734, 0.004837102, NaN, NaN, NaN, 0.0384545, "- N/A -   "
2.83, 91.76313, 0.004864869, NaN, NaN, NaN, 0.0396753, "- N/A -   "
2.85, 92.35287, 0.00489541, NaN, NaN, NaN, 0.04089605, "- N/A -   "
2.87, 92.82466, 0.004928735, NaN, NaN, NaN, 0.04211683, "- N/A -   "
2.89, 93.2965, 0.004959279, NaN, NaN, NaN, 0.04211683, "- N/A -   "
2.91, 93.8862, 0.004987046, NaN, NaN, NaN, 0.0445584, "- N/A -   "
2.93, 94.59387, 0.005023144, NaN, NaN, NaN, 0.0433376, "- N/A -   "
2.95, 95.30156, 0.00505924, NaN, NaN, NaN, 0.04211683, "- N/A -   "
2.97, 95.8913, 0.005098116, NaN, NaN, NaN, 0.04089605, "- N/A -   "
2.99, 96.599, 0.005134214, NaN, NaN, NaN, 0.0396753, "- N/A -   "
3.01, 97.18872, 0.005167535, NaN, NaN, NaN, 0.0384545, "- N/A -   "
3.03, 98.01435, 0.00520919, NaN, NaN, NaN, 0.03601294, "- N/A -   "
3.05, 98.60408, 0.005245284, NaN, NaN, NaN, 0.0347922, "- N/A -   "
3.07, 99.3118, 0.00527861, NaN, NaN, NaN, 0.0335714, "- N/A -   "
3.09, 99.9015, 0.005314703, NaN, NaN, NaN, 0.0323506, "- N/A -   "
3.11, 100.6092, 0.00534802, NaN, NaN, NaN, 0.0323506, "- N/A -   "
3.13, 101.081, 0.00538135, NaN, NaN, NaN, 0.0335714, "- N/A -   "
3.15, 101.553, 0.00541189, NaN, NaN, NaN, 0.0335714, "- N/A -   "
3.17, 102.143, 0.00544521, NaN, NaN, NaN, 0.0335714, "- N/A -   "
3.19, 102.85, 0.00548131, NaN, NaN, NaN, 0.0323506, "- N/A -   "
3.21, 103.44, 0.005514629, NaN, NaN, NaN, 0.0323506, "- N/A -   "
3.23, 104.03, 0.00555073, NaN, NaN, NaN, 0.0323506, "- N/A -   "
3.25, 104.737, 0.005586825, NaN, NaN, NaN, 0.0299091, "- N/A -   "
3.27, 105.327, 0.00562292, NaN, NaN, NaN, 0.0286883, "- N/A -   "
3.29, 105.917, 0.00565902, NaN, NaN, NaN, 0.0286883, "- N/A -   "
3.31, 106.507, 0.00569234, NaN, NaN, NaN, 0.0274675, "- N/A -   "
3.33, 107.3322, 0.00572566, NaN, NaN, NaN, 0.0286883, "- N/A -   "
3.35, 107.686, 0.00575343, NaN, NaN, NaN, 0.03112983, "- N/A -   "
3.37, 108.158, 0.00578397, NaN, NaN, NaN, 0.0323506, "- N/A -   "
3.39, 108.748, 0.005814519, NaN, NaN, NaN, 0.0335714, "- N/A -   "
3.41, 109.219, 0.00583951, NaN, NaN, NaN, 0.03601294, "- N/A -   "
3.43, 109.691, 0.005867277, NaN, NaN, NaN, 0.0384545, "- N/A -   "
3.45, 110.163, 0.005897821, NaN, NaN, NaN, 0.04089605, "- N/A -   "
3.47, 110.753, 0.005925589, NaN, NaN, NaN, 0.04211683, "- N/A -   "
3.49, 111.107, 0.005956133, NaN, NaN, NaN, 0.0445584, "- N/A -   "
3.51, 111.8142, 0.005986677, NaN, NaN, NaN, 0.04577916, "- N/A -   "
3.53, 112.286, 0.00601722, NaN, NaN, NaN, 0.0482207, "- N/A -   "
3.55, 112.876, 0.00604777, NaN, NaN, NaN, 0.0482207, "- N/A -   "
3.57, 113.583, 0.00608109, NaN, NaN, NaN, 0.0482207, "- N/A -   "
3.59, 114.055, 0.006119961, NaN, NaN, NaN, 0.04577916, "- N/A -   "
3.61, 114.881, 0.006156059, NaN, NaN, NaN, 0.04577916, "- N/A -   "
3.63, 115.471, 0.006192157, NaN, NaN, NaN, 0.0433376, "- N/A -   "
3.65, 116.178, 0.006231031, NaN, NaN, NaN, 0.04089605, "- N/A -   "
3.67, 116.886, 0.006267129, NaN, NaN, NaN, 0.0396753, "- N/A -   "
3.69, 117.358, 0.006303227, NaN, NaN, NaN, 0.0384545, "- N/A -   "
3.71, 118.065, 0.00633932, NaN, NaN, NaN, 0.0372337, "- N/A -   "
3.73, 118.7731, 0.00637542, NaN, NaN, NaN, 0.03601294, "- N/A -   "
3.75, 119.363, 0.00641152, NaN, NaN, NaN, 0.0347922, "- N/A -   "
3.77, 119.953, 0.006447618, NaN, NaN, NaN, 0.0347922, "- N/A -   "
3.79, 120.542, 0.006480939, NaN, NaN, NaN, 0.0335714, "- N/A -   "
3.81, 121.132, 0.00651426, NaN, NaN, NaN, 0.0335714, "- N/A -   "
3.83, 121.958, 0.006550358, NaN, NaN, NaN, 0.0323506, "- N/A -   "
3.85, 122.547, 0.00658646, NaN, NaN, NaN, 0.03112983, "- N/A -   "
3.87, 123.137, 0.00662255, NaN, NaN, NaN, 0.0299091, "- N/A -   "
3.89, 123.609, 0.006658651, NaN, NaN, NaN, 0.0299091, "- N/A -   "
3.91, 124.317, 0.00669197, NaN, NaN, NaN, 0.0286883, "- N/A -   "
3.93, 124.906, 0.006725293, NaN, NaN, NaN, 0.0286883, "- N/A -   "
3.95, 125.614, 0.006758614, NaN, NaN, NaN, 0.0286883, "- N/A -   "
3.97, 126.204, 0.00679194, NaN, NaN, NaN, 0.0286883, "- N/A -   "
3.99, 126.676, 0.00682248, NaN, NaN, NaN, 0.0299091, "- N/A -   "
4.01, 127.147, 0.00685025, NaN, NaN, NaN, 0.0323506, "- N/A -   "
4.03, 127.501, 0.006878014, NaN, NaN, NaN, 0.0347922, "- N/A -   "
4.05, 128.091, 0.006905782, NaN, NaN, NaN, 0.0372337, "- N/A -   "
4.07, 128.563, 0.00693355, NaN, NaN, NaN, 0.0396753, "- N/A -   "
4.09, 129.152, 0.006964094, NaN, NaN, NaN, 0.04089605, "- N/A -   "
4.11, 129.506, 0.006994638, NaN, NaN, NaN, 0.04211683, "- N/A -   "
4.13, 130.214, 0.00702518, NaN, NaN, NaN, 0.0433376, "- N/A -   "
4.15, 130.6858, 0.0070585, NaN, NaN, NaN, 0.0445584, "- N/A -   "
4.17, 131.276, 0.00709182, NaN, NaN, NaN, 0.0445584, "- N/A -   "
4.19, 131.983, 0.00712515, NaN, NaN, NaN, 0.0433376, "- N/A -   "
4.21, 132.573, 0.00715847, NaN, NaN, NaN, 0.0433376, "- N/A -   "
4.23, 133.163, 0.00719179, NaN, NaN, NaN, 0.0433376, "- N/A -   "
4.25, 133.752, 0.00722233, NaN, NaN, NaN, 0.0445584, "- N/A -   "
4.27, 134.224, 0.00725565, NaN, NaN, NaN, 0.0445584, "- N/A -   "
4.29, 134.932, 0.007288974, NaN, NaN, NaN, 0.0445584, "- N/A -   "
4.31, 135.522, 0.00732507, NaN, NaN, NaN, 0.0445584, "- N/A -   "
4.33, 136.111, 0.00736117, NaN, NaN, NaN, 0.0433376, "- N/A -   "
4.35, 136.937, 0.00739727, NaN, NaN, NaN, 0.04089605, "- N/A -   "
4.37, 137.527, 0.007436142, NaN, NaN, NaN, 0.0384545, "- N/A -   "
4.39, 138.352, 0.00747502, NaN, NaN, NaN, 0.03601294, "- N/A -   "
4.41, 138.942, 0.00751389, NaN, NaN, NaN, 0.0335714, "- N/A -   "
4.43, 139.65, 0.00755277, NaN, NaN, NaN, 0.0323506, "- N/A -   "
4.45, 140.357, 0.007588863, NaN, NaN, NaN, 0.03112983, "- N/A -   "
4.47, 140.947, 0.00762218, NaN, NaN, NaN, 0.03112983, "- N/A -   "
4.49, 141.537, 0.007655505, NaN, NaN, NaN, 0.03112983, "- N/A -   "
4.51, 142.1267, 0.007688826, NaN, NaN, NaN, 0.0299091, "- N/A -   "
4.53, 142.716, 0.007722147, NaN, NaN, NaN, 0.0299091, "- N/A -   "
4.55, 143.424, 0.007755468, NaN, NaN, NaN, 0.0299091, "- N/A -   "
4.57, 143.896, 0.007788789, NaN, NaN, NaN, 0.0299091, "- N/A -   "
4.59, 144.486, 0.00782211, NaN, NaN, NaN, 0.0299091, "- N/A -   "
4.61, 145.0754, 0.007852655, NaN, NaN, NaN, 0.03112983, "- N/A -   "
4.63, 145.665, 0.007883199, NaN, NaN, NaN, 0.0323506, "- N/A -   "
4.65, 146.137, 0.007913743, NaN, NaN, NaN, 0.0335714, "- N/A -   "
4.67, 146.727, 0.007944287, NaN, NaN, NaN, 0.0347922, "- N/A -   "
4.69, 147.198, 0.007977608, NaN, NaN, NaN, 0.0347922, "- N/A -   "
4.71, 147.906, 0.008016483, NaN, NaN, NaN, 0.0335714, "- N/A -   "
4.73, 148.496, 0.008049804, NaN, NaN, NaN, 0.0323506, "- N/A -   "
4.75, 149.0856, 0.008080348, NaN, NaN, NaN, 0.0335714, "- N/A -   "
4.77, 149.557, 0.008110892, NaN, NaN, NaN, 0.03601294, "- N/A -   "
4.79, 150.029, 0.008135883, NaN, NaN, NaN, 0.0384545, "- N/A -   "
4.81, 150.501, 0.008166427, NaN, NaN, NaN, 0.04089605, "- N/A -   "
4.83, 151.091, 0.008196972, NaN, NaN, NaN, 0.04089605, "- N/A -   "
4.85, 151.68, 0.008227516, NaN, NaN, NaN, 0.04211683, "- N/A -   "
4.87, 152.152, 0.008258061, NaN, NaN, NaN, 0.0433376, "- N/A -   "
4.89, 152.742, 0.008288604, NaN, NaN, NaN, 0.0445584, "- N/A -   "
4.91, 153.332, 0.008321925, NaN, NaN, NaN, 0.0445584, "- N/A -   "
4.93, 154.0394, 0.008355246, NaN, NaN, NaN, 0.0445584, "- N/A -   "
4.95, 154.629, 0.008388568, NaN, NaN, NaN, 0.0445584, "- N/A -   "
4.97, 155.219, 0.008424665, NaN, NaN, NaN, 0.0433376, "- N/A -   "
4.99, 156.0445, 0.00846354, NaN, NaN, NaN, 0.04089605, "- N/A -   "
5.01, 156.752, 0.008499637, NaN, NaN, NaN, 0.0396753, "- N/A -   "
5.03, 157.46, 0.008541289, NaN, NaN, NaN, 0.03601294, "- N/A -   "
5.05, 158.0496, 0.008577387, NaN, NaN, NaN, 0.0347922, "- N/A -   "
5.07, 158.875, 0.008616261, NaN, NaN, NaN, 0.0323506, "- N/A -   "
5.09, 159.583, 0.008652359, NaN, NaN, NaN, 0.03112983, "- N/A -   "
5.11, 160.173, 0.008688456, NaN, NaN, NaN, 0.0299091, "- N/A -   "
5.13, 160.7624, 0.008721777, NaN, NaN, NaN, 0.03112983, "- N/A -   "
5.15, 161.234, 0.008752322, NaN, NaN, NaN, 0.03112983, "- N/A -   "
5.17, 161.942, 0.008782866, NaN, NaN, NaN, 0.0323506, "- N/A -   "
5.19, 162.414, 0.008813411, NaN, NaN, NaN, 0.0335714, "- N/A -   "
5.21, 163.0034, 0.008846732, NaN, NaN, NaN, 0.0335714, "- N/A -   "
5.23, 163.593, 0.008874499, NaN, NaN, NaN, 0.03601294, "- N/A -   "
5.25, 164.183, 0.00890782, NaN, NaN, NaN, 0.03601294, "- N/A -   "
5.27, 164.773, 0.008941141, NaN, NaN, NaN, 0.03601294, "- N/A -   "
5.29, 165.4803, 0.008977239, NaN, NaN, NaN, 0.0347922, "- N/A -   "
5.31, 166.07, 0.009013337, NaN, NaN, NaN, 0.0335714, "- N/A -   "
5.33, 166.778, 0.009046658, NaN, NaN, NaN, 0.0335714, "- N/A -   "
5.35, 167.485, 0.009082756, NaN, NaN, NaN, 0.0323506, "- N/A -   "
5.37, 167.839, 0.009116077, NaN, NaN, NaN, 0.0335714, "- N/A -   "
5.39, 168.429, 0.00914662, NaN, NaN, NaN, 0.0335714, "- N/A -   "
5.41, 169.137, 0.009177165, NaN, NaN, NaN, 0.0347922, "- N/A -   "
5.43, 169.726, 0.009210486, NaN, NaN, NaN, 0.03601294, "- N/A -   "
5.45, 170.1982, 0.009238253, NaN, NaN, NaN, 0.0372337, "- N/A -   "
5.47, 170.788, 0.009266021, NaN, NaN, NaN, 0.0396753, "- N/A -   "
5.49, 171.26, 0.009293789, NaN, NaN, NaN, 0.04211683, "- N/A -   "
5.51, 171.732, 0.00932711, NaN, NaN, NaN, 0.0433376, "- N/A -   "
5.53, 172.4392, 0.009360431, NaN, NaN, NaN, 0.04211683, "- N/A -   "
5.55, 173.265, 0.009399305, NaN, NaN, NaN, 0.0396753, "- N/A -   "
5.57, 173.973, 0.009435403, NaN, NaN, NaN, 0.0384545, "- N/A -   "
5.59, 174.4443, 0.009468724, NaN, NaN, NaN, 0.0384545, "- N/A -   "
5.61, 175.152, 0.009499268, NaN, NaN, NaN, 0.0396753, "- N/A -   "
5.63, 175.742, 0.009532589, NaN, NaN, NaN, 0.0396753, "- N/A -   "
5.65, 176.331, 0.009568687, NaN, NaN, NaN, 0.0396753, "- N/A -   "
5.67, 177.039, 0.009602008, NaN, NaN, NaN, 0.0384545, "- N/A -   "
5.69, 177.629, 0.00963811, NaN, NaN, NaN, 0.0384545, "- N/A -   "
5.71, 178.337, 0.009671426, NaN, NaN, NaN, 0.0372337, "- N/A -   "
5.73, 179.044, 0.009707524, NaN, NaN, NaN, 0.0372337, "- N/A -   "
5.75, 179.634, 0.009740846, NaN, NaN, NaN, 0.03601294, "- N/A -   "
5.77, 180.224, 0.009774166, NaN, NaN, NaN, 0.03601294, "- N/A -   "
5.79, 180.931, 0.009810264, NaN, NaN, NaN, 0.03601294, "- N/A -   "
5.81, 181.403, 0.009840809, NaN, NaN, NaN, 0.03601294, "- N/A -   "
5.83, 182.1109, 0.00987413, NaN, NaN, NaN, 0.0372337, "- N/A -   "
5.85, 182.819, 0.009910228, NaN, NaN, NaN, 0.0347922, "- N/A -   "
5.87, 183.408, 0.009946326, NaN, NaN, NaN, 0.0335714, "- N/A -   "
5.89, 184.116, 0.009979647, NaN, NaN, NaN, 0.0335714, "- N/A -   "
5.91, 184.824, 0.0100157, NaN, NaN, NaN, 0.0323506, "- N/A -   "
5.93, 185.413, 0.0100518, NaN, NaN, NaN, 0.0323506, "- N/A -   "
5.95, 186.121, 0.0100824, NaN, NaN, NaN, 0.0323506, "- N/A -   "
5.97, 186.711, 0.0101157, NaN, NaN, NaN, 0.0323506, "- N/A -   "
5.99, 187.183, 0.010149, NaN, NaN, NaN, 0.0323506, "- N/A -   "
6.01, 187.89, 0.0101823, NaN, NaN, NaN, 0.0335714, "- N/A -   "
6.03, 188.48, 0.0102157, NaN, NaN, NaN, 0.0335714, "- N/A -   "
6.05, 189.188, 0.010249, NaN, NaN, NaN, 0.0323506, "- N/A -   "
6.07, 189.895, 0.0102851, NaN, NaN, NaN, 0.03112983, "- N/A -   "
6.09, 190.603, 0.0103212, NaN, NaN, NaN, 0.0299091, "- N/A -   "
6.11, 191.193, 0.0103545, NaN, NaN, NaN, 0.0299091, "- N/A -   "
6.13, 191.7826, 0.0103851, NaN, NaN, NaN, 0.03112983, "- N/A -   "
6.15, 192.254, 0.01041282, NaN, NaN, NaN, 0.0335714, "- N/A -   "
6.17, 192.726, 0.0104406, NaN, NaN, NaN, 0.03601294, "- N/A -   "
6.19, 193.3159, 0.0104711, NaN, NaN, NaN, 0.0384545, "- N/A -   "
6.21, 193.7877, 0.0104989, NaN, NaN, NaN, 0.0396753, "- N/A -   "
6.23, 194.495, 0.0105294, NaN, NaN, NaN, 0.04089605, "- N/A -   "
6.25, 195.085, 0.0105628, NaN, NaN, NaN, 0.04211683, "- N/A -   "
6.27, 195.675, 0.0105933, NaN, NaN, NaN, 0.04211683, "- N/A -   "
6.29, 196.147, 0.0106266, NaN, NaN, NaN, 0.04211683, "- N/A -   "
6.31, 196.854, 0.0106572, NaN, NaN, NaN, 0.0433376, "- N/A -   "
6.33, 197.444, 0.0106877, NaN, NaN, NaN, 0.04577916, "- N/A -   "
6.35, 198.152, 0.010721, NaN, NaN, NaN, 0.0445584, "- N/A -   "
6.37, 198.741, 0.0107571, NaN, NaN, NaN, 0.0433376, "- N/A -   "
6.39, 199.567, 0.0107932, NaN, NaN, NaN, 0.0433376, "- N/A -   "
6.41, 200.275, 0.0108293, NaN, NaN, NaN, 0.04089605, "- N/A -   "
6.43, 201.1, 0.0108682, NaN, NaN, NaN, 0.0384545, "- N/A -   "
6.45, 201.808, 0.0109071, NaN, NaN, NaN, 0.03601294, "- N/A -   "
6.47, 202.516, 0.0109432, NaN, NaN, NaN, 0.0347922, "- N/A -   "
6.49, 203.2235, 0.0109821, NaN, NaN, NaN, 0.0335714, "- N/A -   "
6.51, 203.931, 0.0110154, NaN, NaN, NaN, 0.0323506, "- N/A -   "
6.53, 204.521, 0.0110487, NaN, NaN, NaN, 0.0323506, "- N/A -   "
6.55, 205.111, 0.011082, NaN, NaN, NaN, 0.0323506, "- N/A -   "
6.57, 205.818, 0.0111153, NaN, NaN, NaN, 0.0323506, "- N/A -   "
6.59, 206.29, 0.0111459, NaN, NaN, NaN, 0.0335714, "- N/A -   "
6.61, 206.9978, 0.0111792, NaN, NaN, NaN, 0.0335714, "- N/A -   "
6.63, 207.705, 0.0112125, NaN, NaN, NaN, 0.0347922, "- N/A -   "
6.65, 208.295, 0.0112458, NaN, NaN, NaN, 0.0335714, "- N/A -   "
6.67, 209.121, 0.0112847, NaN, NaN, NaN, 0.03112983, "- N/A -   "
6.69, 209.829, 0.0113236, NaN, NaN, NaN, 0.0299091, "- N/A -   "
6.71, 210.418, 0.0113569, NaN, NaN, NaN, 0.0286883, "- N/A -   "
6.73, 211.126, 0.0113902, NaN, NaN, NaN, 0.0286883, "- N/A -   "
6.75, 211.716, 0.0114208, NaN, NaN, NaN, 0.0299091, "- N/A -   "
6.77, 212.305, 0.0114513, NaN, NaN, NaN, 0.03112983, "- N/A -   "
6.79, 212.895, 0.0114846, NaN, NaN, NaN, 0.03112983, "- N/A -   "
6.81, 213.485, 0.01151519, NaN, NaN, NaN, 0.0323506, "- N/A -   "
6.83, 213.957, 0.011543, NaN, NaN, NaN, 0.03601294, "- N/A -   "
6.85, 214.4285, 0.0115707, NaN, NaN, NaN, 0.0372337, "- N/A -   "
6.87, 215.018, 0.0115985, NaN, NaN, NaN, 0.0396753, "- N/A -   "
6.89, 215.49, 0.0116263, NaN, NaN, NaN, 0.04211683, "- N/A -   "
6.91, 216.08, 0.0116568, NaN, NaN, NaN, 0.0433376, "- N/A -   "
6.93, 216.787, 0.0116901, NaN, NaN, NaN, 0.0445584, "- N/A -   "
6.95, 217.377, 0.0117179, NaN, NaN, NaN, 0.04577916, "- N/A -   "
6.97, 217.967, 0.0117512, NaN, NaN, NaN, 0.04699994, "- N/A -   "
6.99, 218.557, 0.0117818, NaN, NaN, NaN, 0.04699994, "- N/A -   "
7.01, 219.264, 0.0118179, NaN, NaN, NaN, 0.04699994, "- N/A -   "
7.03, 219.972, 0.0118567, NaN, NaN, NaN, 0.0445584, "- N/A -   "
7.05, 220.798, 0.0118928, NaN, NaN, NaN, 0.0433376, "- N/A -   "
7.07, 221.623, 0.0119317, NaN, NaN, NaN, 0.0396753, "- N/A -   "
7.09, 222.331, 0.011965, NaN, NaN, NaN, 0.0396753, "- N/A -   "
7.11, 222.921, 0.0120011, NaN, NaN, NaN, 0.0384545, "- N/A -   "
7.13, 223.746, 0.0120372, NaN, NaN, NaN, 0.0372337, "- N/A -   "
7.15, 224.454, 0.0120733, NaN, NaN, NaN, 0.03601294, "- N/A -   "
7.17, 225.044, 0.0121066, NaN, NaN, NaN, 0.03601294, "- N/A -   "
7.19, 225.751, 0.0121427, NaN, NaN, NaN, 0.0347922, "- N/A -   "
7.21, 226.3412, 0.0121788, NaN, NaN, NaN, 0.0335714, "- N/A -   "
7.23, 227.049, 0.0122149, NaN, NaN, NaN, 0.0335714, "- N/A -   "
7.25, 227.875, 0.0122483, NaN, NaN, NaN, 0.0323506, "- N/A -   "
7.27, 228.464, 0.0122816, NaN, NaN, NaN, 0.0323506, "- N/A -   "
7.29, 229.172, 0.0123177, NaN, NaN, NaN, 0.0323506, "- N/A -   "
7.31, 229.88, 0.012351, NaN, NaN, NaN, 0.03112983, "- N/A -   "
7.33, 230.705, 0.0123899, NaN, NaN, NaN, 0.0286883, "- N/A -   "
7.35, 231.295, 0.0124287, NaN, NaN, NaN, 0.0274675, "- N/A -   "
7.37, 232.121, 0.0124621, NaN, NaN, NaN, 0.0262467, "- N/A -   "
7.39, 232.71, 0.0124954, NaN, NaN, NaN, 0.0274675, "- N/A -   "
7.41, 233.182, 0.0125232, NaN, NaN, NaN, 0.0286883, "- N/A -   "
7.43, 233.89, 0.0125509, NaN, NaN, NaN, 0.03112983, "- N/A -   "
7.45, 234.362, 0.0125815, NaN, NaN, NaN, 0.0323506, "- N/A -   "
7.47, 234.951, 0.012612, NaN, NaN, NaN, 0.0335714, "- N/A -   "
7.49, 235.5411, 0.0126426, NaN, NaN, NaN, 0.0347922, "- N/A -   "
7.51, 236.0129, 0.0126703, NaN, NaN, NaN, 0.0372337, "- N/A -   "
7.53, 236.485, 0.0126981, NaN, NaN, NaN, 0.0396753, "- N/A -   "
7.55, 237.192, 0.0127259, NaN, NaN, NaN, 0.04211683, "- N/A -   "
7.57, 237.7821, 0.0127564, NaN, NaN, NaN, 0.0433376, "- N/A -   "
7.59, 238.372, 0.01278972, NaN, NaN, NaN, 0.0433376, "- N/A -   "
7.61, 238.962, 0.0128258, NaN, NaN, NaN, 0.0433376, "- N/A -   "
7.63, 239.787, 0.0128591, NaN, NaN, NaN, 0.04211683, "- N/A -   "
7.65, 240.495, 0.0128925, NaN, NaN, NaN, 0.0433376, "- N/A -   "
7.67, 241.085, 0.012923, NaN, NaN, NaN, 0.0433376, "- N/A -   "
7.69, 241.792, 0.0129591, NaN, NaN, NaN, 0.04211683, "- N/A -   "
7.71, 242.618, 0.0129952, NaN, NaN, NaN, 0.04089605, "- N/A -   "
7.73, 243.207, 0.01302852, NaN, NaN, NaN, 0.04089605, "- N/A -   "
7.75, 243.914, 0.0130674, NaN, NaN, NaN, 0.0396753, "- N/A -   "
7.77, 244.7387, 0.0131007, NaN, NaN, NaN, 0.0384545, "- N/A -   "
7.79, 245.446, 0.0131368, NaN, NaN, NaN, 0.0372337, "- N/A -   "
7.81, 246.153, 0.0131757, NaN, NaN, NaN, 0.0347922, "- N/A -   "
7.83, 247.095, 0.0132173, NaN, NaN, NaN, 0.03112983, "- N/A -   "
7.85, 247.802, 0.0132562, NaN, NaN, NaN, 0.0286883, "- N/A -   "
7.87, 248.627, 0.0132923, NaN, NaN, NaN, 0.0286883, "- N/A -   "
7.89, 249.216, 0.0133256, NaN, NaN, NaN, 0.0286883, "- N/A -   "
7.91, 249.923, 0.0133562, NaN, NaN, NaN, 0.0286883, "- N/A -   "
7.93, 250.512, 0.0133895, NaN, NaN, NaN, 0.0286883, "- N/A -   "
7.95, 251.219, 0.01342, NaN, NaN, NaN, 0.0299091, "- N/A -   "
7.97, 251.808, 0.0134534, NaN, NaN, NaN, 0.03112983, "- N/A -   "
7.99, 252.397, 0.0134839, NaN, NaN, NaN, 0.03112983, "- N/A -   "
8.01, 253.104, 0.0135145, NaN, NaN, NaN, 0.0323506, "- N/A -   "
8.03, 253.811, 0.0135505, NaN, NaN, NaN, 0.0323506, "- N/A -   "
8.05, 254.4, 0.0135783, NaN, NaN, NaN, 0.0335714, "- N/A -   "
8.07, 254.872, 0.0136089, NaN, NaN, NaN, 0.0372337, "- N/A -   "
8.09, 255.461, 0.0136394, NaN, NaN, NaN, 0.0372337, "- N/A -   "
8.11, 256.05, 0.01366995, NaN, NaN, NaN, 0.0384545, "- N/A -   "
8.13, 256.8748, 0.013706, NaN, NaN, NaN, 0.0372337, "- N/A -   "
8.15, 257.582, 0.0137394, NaN, NaN, NaN, 0.0372337, "- N/A -   "
8.17, 258.2887, 0.0137727, NaN, NaN, NaN, 0.0384545, "- N/A -   "
8.19, 258.878, 0.0138032, NaN, NaN, NaN, 0.0384545, "- N/A -   "
8.21, 259.349, 0.0138338, NaN, NaN, NaN, 0.0396753, "- N/A -   "
8.23, 260.0561, 0.0138643, NaN, NaN, NaN, 0.04211683, "- N/A -   "
8.25, 260.6452, 0.01389209, NaN, NaN, NaN, 0.0433376, "- N/A -   "
8.27, 261.234, 0.0139226, NaN, NaN, NaN, 0.0445584, "- N/A -   "
8.29, 261.9413, 0.013956, NaN, NaN, NaN, 0.0445584, "- N/A -   "
8.31, 262.53, 0.0139865, NaN, NaN, NaN, 0.04577916, "- N/A -   "
8.33, 263.2374, 0.0140226, NaN, NaN, NaN, 0.04577916, "- N/A -   "
8.35, 263.8265, 0.0140587, NaN, NaN, NaN, 0.0445584, "- N/A -   "
8.37, 264.769, 0.0140948, NaN, NaN, NaN, 0.04211683, "- N/A -   "
8.39, 265.476, 0.01413089, NaN, NaN, NaN, 0.04089605, "- N/A -   "
8.41, 266.4187, 0.0141725, NaN, NaN, NaN, 0.0384545, "- N/A -   "
8.43, 267.126, 0.0142086, NaN, NaN, NaN, 0.03601294, "- N/A -   "
8.45, 267.8326, 0.0142447, NaN, NaN, NaN, 0.0347922, "- N/A -   "
8.47, 268.657, 0.0142836, NaN, NaN, NaN, 0.0335714, "- N/A -   "
8.49, 269.364, 0.0143197, NaN, NaN, NaN, 0.03112983, "- N/A -   "
8.51, 270.189, 0.0143586, NaN, NaN, NaN, 0.0299091, "- N/A -   "
8.53, 270.8961, 0.0143919, NaN, NaN, NaN, 0.0286883, "- N/A -   "
8.55, 271.485, 0.0144224, NaN, NaN, NaN, 0.0299091, "- N/A -   "
8.57, 272.074, 0.0144502, NaN, NaN, NaN, 0.0323506, "- N/A -   "
8.59, 272.546, 0.0144808, NaN, NaN, NaN, 0.0335714, "- N/A -   "
8.61, 273.253, 0.0145113, NaN, NaN, NaN, 0.03601294, "- N/A -   "
8.63, 273.842, 0.0145391, NaN, NaN, NaN, 0.0372337, "- N/A -   "
8.65, 274.431, 0.0145724, NaN, NaN, NaN, 0.0384545, "- N/A -   "
8.67, 275.138, 0.0146029, NaN, NaN, NaN, 0.0384545, "- N/A -   "
8.69, 275.8448, 0.014639, NaN, NaN, NaN, 0.0372337, "- N/A -   "
8.71, 276.552, 0.0146751, NaN, NaN, NaN, 0.0372337, "- N/A -   "
8.73, 277.377, 0.0147112, NaN, NaN, NaN, 0.0347922, "- N/A -   "
8.75, 278.2013, 0.0147473, NaN, NaN, NaN, 0.0335714, "- N/A -   "
8.77, 278.908, 0.0147807, NaN, NaN, NaN, 0.0335714, "- N/A -   "
8.79, 279.497, 0.0148167, NaN, NaN, NaN, 0.0335714, "- N/A -   "
8.81, 280.204, 0.0148473, NaN, NaN, NaN, 0.0335714, "- N/A -   "
8.83, 280.911, 0.0148806, NaN, NaN, NaN, 0.0335714, "- N/A -   "
8.85, 281.5, 0.0149112, NaN, NaN, NaN, 0.03601294, "- N/A -   "
8.87, 282.207, 0.0149417, NaN, NaN, NaN, 0.03601294, "- N/A -   "
8.89, 282.6787, 0.0149695, NaN, NaN, NaN, 0.0384545, "- N/A -   "
8.9, 283.032, 0.0149861, NaN, NaN, NaN, 0.0396753, "- N/A -   "
8.91, 283.386, 0.015, NaN, NaN, NaN, 0.0396753, "- N/A -   "
8.92, 283.503, 0.0150167, NaN, NaN, NaN, 0.04089605, "- N/A -   "
8.93, 283.9748, 0.0150306, NaN, NaN, NaN, 0.04089605, "- N/A -   "
8.94, 284.21, 0.0150472, NaN, NaN, NaN, 0.04089605, "- N/A -   "
8.95, 284.682, 0.0150639, NaN, NaN, NaN, 0.04089605, "- N/A -   "
8.96, 285.035, 0.0150805, NaN, NaN, NaN, 0.04089605, "- N/A -   "
8.97, 285.271, 0.0150972, NaN, NaN, NaN, 0.04089605, "- N/A -   "
8.98, 285.624, 0.0151139, NaN, NaN, NaN, 0.04211683, "- N/A -   "
8.99, 285.978, 0.0151305, NaN, NaN, NaN, 0.04211683, "- N/A -   "
9, 286.3313, 0.0151472, NaN, NaN, NaN, 0.04089605, "- N/A -   "
9.01, 286.8026, 0.0151638, NaN, NaN, NaN, 0.04089605, "- N/A -   "
9.02, 287.156, 0.0151805, NaN, NaN, NaN, 0.04089605, "- N/A -   "
9.03, 287.51, 0.01519994, NaN, NaN, NaN, 0.0396753, "- N/A -   "
9.04, 287.7452, 0.0152166, NaN, NaN, NaN, 0.0396753, "- N/A -   "
9.05, 288.217, 0.0152333, NaN, NaN, NaN, 0.0396753, "- N/A -   "
9.06, 288.688, 0.0152527, NaN, NaN, NaN, 0.0384545, "- N/A -   "
9.07, 289.041, 0.0152721, NaN, NaN, NaN, 0.0384545, "- N/A -   "
9.08, 289.395, 0.0152888, NaN, NaN, NaN, 0.0372337, "- N/A -   "
9.09, 289.748, 0.0153082, NaN, NaN, NaN, 0.0372337, "- N/A -   "
9.1, 290.22, 0.01532767, NaN, NaN, NaN, 0.03601294, "- N/A -   "
9.11, 290.573, 0.0153443, NaN, NaN, NaN, 0.0347922, "- N/A -   "
9.12, 291.044, 0.015361, NaN, NaN, NaN, 0.0347922, "- N/A -   "
9.13, 291.28, 0.0153777, NaN, NaN, NaN, 0.0347922, "- N/A -   "
9.14, 291.633, 0.0153943, NaN, NaN, NaN, 0.03601294, "- N/A -   "
9.15, 291.8691, 0.015411, NaN, NaN, NaN, 0.03601294, "- N/A -   "
9.16, 292.2226, 0.0154249, NaN, NaN, NaN, 0.03601294, "- N/A -   "
9.17, 292.6939, 0.01543874, NaN, NaN, NaN, 0.0372337, "- N/A -   "
9.18, 292.93, 0.0154554, NaN, NaN, NaN, 0.0372337, "- N/A -   "
9.19, 293.283, 0.0154721, NaN, NaN, NaN, 0.0372337, "- N/A -   "
9.2, 293.637, 0.0154887, NaN, NaN, NaN, 0.0372337, "- N/A -   "
9.21, 293.99, 0.01550816, NaN, NaN, NaN, 0.0372337, "- N/A -   "
9.22, 294.343, 0.0155248, NaN, NaN, NaN, 0.03601294, "- N/A -   "
9.23, 294.697, 0.0155443, NaN, NaN, NaN, 0.03601294, "- N/A -   "
9.24, 295.05, 0.0155581, NaN, NaN, NaN, 0.03601294, "- N/A -   "
9.25, 295.522, 0.0155776, NaN, NaN, NaN, 0.0347922, "- N/A -   "
9.26, 295.8752, 0.0155942, NaN, NaN, NaN, 0.0347922, "- N/A -   "
9.27, 296.2287, 0.0156137, NaN, NaN, NaN, 0.0335714, "- N/A -   "
9.28, 296.582, 0.0156303, NaN, NaN, NaN, 0.0335714, "- N/A -   "
9.29, 296.936, 0.015647, NaN, NaN, NaN, 0.0335714, "- N/A -   "
9.3, 297.289, 0.0156664, NaN, NaN, NaN, 0.0323506, "- N/A -   "
9.31, 297.76, 0.0156831, NaN, NaN, NaN, 0.0323506, "- N/A -   "
9.32, 297.9961, 0.0156998, NaN, NaN, NaN, 0.0323506, "- N/A -   "
9.33, 298.35, 0.0157164, NaN, NaN, NaN, 0.0323506, "- N/A -   "
9.34, 298.5852, 0.0157331, NaN, NaN, NaN, 0.0323506, "- N/A -   "
9.35, 298.939, 0.0157497, NaN, NaN, NaN, 0.0323506, "- N/A -   "
9.36, 299.41, 0.0157664, NaN, NaN, NaN, 0.0335714, "- N/A -   "
9.37, 299.7635, 0.0157831, NaN, NaN, NaN, 0.0323506, "- N/A -   "
9.38, 300.117, 0.0157997, NaN, NaN, NaN, 0.0323506, "- N/A -   "
9.39, 300.353, 0.0158164, NaN, NaN, NaN, 0.0323506, "- N/A -   "
9.4, 300.7061, 0.0158303, NaN, NaN, NaN, 0.0335714, "- N/A -   "
9.41, 301.06, 0.0158469, NaN, NaN, NaN, 0.0335714, "- N/A -   "
9.42, 301.413, 0.0158636, NaN, NaN, NaN, 0.0335714, "- N/A -   "
9.43, 301.7665, 0.0158775, NaN, NaN, NaN, 0.0347922, "- N/A -   "
9.44, 302.0022, 0.0158941, NaN, NaN, NaN, 0.0347922, "- N/A -   "
9.45, 302.238, 0.015908, NaN, NaN, NaN, 0.03601294, "- N/A -   "
9.46, 302.591, 0.0159247, NaN, NaN, NaN, 0.03601294, "- N/A -   "
9.47, 302.945, 0.0159413, NaN, NaN, NaN, 0.0372337, "- N/A -   "
9.48, 303.298, 0.015958, NaN, NaN, NaN, 0.0372337, "- N/A -   "
9.49, 303.652, 0.0159747, NaN, NaN, NaN, 0.0372337, "- N/A -   "
9.5, 304.005, 0.0159913, NaN, NaN, NaN, 0.0372337, "- N/A -   "
9.51, 304.3587, 0.016008, NaN, NaN, NaN, 0.03601294, "- N/A -   "
9.52, 304.7122, 0.0160219, NaN, NaN, NaN, 0.0372337, "- N/A -   "
9.53, 305.066, 0.0160385, NaN, NaN, NaN, 0.0372337, "- N/A -   "
9.54, 305.419, 0.01605518, NaN, NaN, NaN, 0.0372337, "- N/A -   "
9.55, 305.7726, 0.01607184, NaN, NaN, NaN, 0.0372337, "- N/A -   "
9.56, 306.1261, 0.0160885, NaN, NaN, NaN, 0.0372337, "- N/A -   "
9.57, 306.362, 0.01610516, NaN, NaN, NaN, 0.0384545, "- N/A -   "
9.58, 306.597, 0.016119, NaN, NaN, NaN, 0.0384545, "- N/A -   "
9.59, 307.0687, 0.0161329, NaN, NaN, NaN, 0.0396753, "- N/A -   "
9.6, 307.422, 0.0161468, NaN, NaN, NaN, 0.04089605, "- N/A -   "
9.61, 307.54, 0.0161607, NaN, NaN, NaN, 0.04211683, "- N/A -   "
9.62, 307.893, 0.0161774, NaN, NaN, NaN, 0.04211683, "- N/A -   "
9.63, 308.247, 0.01619124, NaN, NaN, NaN, 0.0433376, "- N/A -   "
9.64, 308.6, 0.0162079, NaN, NaN, NaN, 0.0433376, "- N/A -   "
9.65, 308.9539, 0.0162246, NaN, NaN, NaN, 0.0433376, "- N/A -   "
9.66, 309.3074, 0.0162412, NaN, NaN, NaN, 0.0433376, "- N/A -   "
9.67, 309.6609, 0.0162579, NaN, NaN, NaN, 0.0433376, "- N/A -   "
9.68, 310.014, 0.0162745, NaN, NaN, NaN, 0.0433376, "- N/A -   "
9.69, 310.368, 0.0162912, NaN, NaN, NaN, 0.0433376, "- N/A -   "
9.7, 310.7213, 0.0163079, NaN, NaN, NaN, 0.0445584, "- N/A -   "
9.71, 311.0748, 0.0163245, NaN, NaN, NaN, 0.0433376, "- N/A -   "
9.72, 311.428, 0.0163412, NaN, NaN, NaN, 0.0433376, "- N/A -   "
9.73, 311.6639, 0.0163578, NaN, NaN, NaN, 0.0433376, "- N/A -   "
9.74, 312.253, 0.0163745, NaN, NaN, NaN, 0.0433376, "- N/A -   "
9.75, 312.6065, 0.0163939, NaN, NaN, NaN, 0.0433376, "- N/A -   "
9.76, 312.96, 0.0164106, NaN, NaN, NaN, 0.0433376, "- N/A -   "
9.77, 313.313, 0.0164273, NaN, NaN, NaN, 0.04211683, "- N/A -   "
9.78, 313.549, 0.0164439, NaN, NaN, NaN, 0.04211683, "- N/A -   "
9.79, 314.02, 0.0164634, NaN, NaN, NaN, 0.04089605, "- N/A -   "
9.8, 314.61, 0.0164828, NaN, NaN, NaN, 0.0396753, "- N/A -   "
9.81, 314.8452, 0.01649946, NaN, NaN, NaN, 0.0396753, "- N/A -   "
9.82, 315.1987, 0.0165189, NaN, NaN, NaN, 0.0384545, "- N/A -   "
9.83, 315.67, 0.0165383, NaN, NaN, NaN, 0.0372337, "- N/A -   "
9.84, 316.1413, 0.0165578, NaN, NaN, NaN, 0.0372337, "- N/A -   "
9.85, 316.495, 0.0165772, NaN, NaN, NaN, 0.03601294, "- N/A -   "
9.86, 316.848, 0.0165939, NaN, NaN, NaN, 0.0347922, "- N/A -   "
9.87, 317.202, 0.0166133, NaN, NaN, NaN, 0.0335714, "- N/A -   "
9.88, 317.673, 0.0166327, NaN, NaN, NaN, 0.0323506, "- N/A -   "
9.89, 318.027, 0.0166494, NaN, NaN, NaN, 0.0323506, "- N/A -   "
9.9, 318.498, 0.0166688, NaN, NaN, NaN, 0.03112983, "- N/A -   "
9.91, 318.8513, 0.0166855, NaN, NaN, NaN, 0.03112983, "- N/A -   "
9.92, 319.205, 0.01670494, NaN, NaN, NaN, 0.03112983, "- N/A -   "
9.93, 319.44, 0.0167188, NaN, NaN, NaN, 0.03112983, "- N/A -   "
9.94, 319.912, 0.0167355, NaN, NaN, NaN, 0.0323506, "- N/A -   "
9.95, 320.03, 0.0167494, NaN, NaN, NaN, 0.0323506, "- N/A -   "
9.96, 320.383, 0.0167633, NaN, NaN, NaN, 0.0335714, "- N/A -   "
9.97, 320.737, 0.0167799, NaN, NaN, NaN, 0.0335714, "- N/A -   "
9.98, 321.09, 0.0167966, NaN, NaN, NaN, 0.0335714, "- N/A -   "
9.99, 321.326, 0.0168132, NaN, NaN, NaN, 0.0335714, "- N/A -   "
10, 321.797, 0.0168271, NaN, NaN, NaN, 0.0347922, "- N/A -   "
10.01, 322.15, 0.0168438, NaN, NaN, NaN, 0.0347922, "- N/A -   "
10.02, 322.3861, 0.0168577, NaN, NaN, NaN, 0.03601294, "- N/A -   "
10.03, 322.74, 0.0168771, NaN, NaN, NaN, 0.0347922, "- N/A -   "
10.04, 323.093, 0.01689376, NaN, NaN, NaN, 0.03601294, "- N/A -   "
10.05, 323.447, 0.0169104, NaN, NaN, NaN, 0.0347922, "- N/A -   "
10.06, 323.918, 0.0169299, NaN, NaN, NaN, 0.0335714, "- N/A -   "
10.07, 324.2713, 0.0169493, NaN, NaN, NaN, 0.0335714, "- N/A -   "
10.08, 324.7426, 0.016966, NaN, NaN, NaN, 0.0323506, "- N/A -   "
10.09, 325.2139, 0.0169826, NaN, NaN, NaN, 0.0323506, "- N/A -   "
10.1, 325.45, 0.0170021, NaN, NaN, NaN, 0.03112983, "- N/A -   "
10.11, 326.0387, 0.0170215, NaN, NaN, NaN, 0.0299091, "- N/A -   "
10.12, 326.274, 0.01703815, NaN, NaN, NaN, 0.0299091, "- N/A -   "
10.13, 326.746, 0.0170576, NaN, NaN, NaN, 0.0286883, "- N/A -   "
10.14, 326.9813, 0.0170742, NaN, NaN, NaN, 0.0286883, "- N/A -   "
10.15, 327.57, 0.0170937, NaN, NaN, NaN, 0.0286883, "- N/A -   "
10.16, 327.8061, 0.0171076, NaN, NaN, NaN, 0.0286883, "- N/A -   "
10.17, 328.16, 0.0171242, NaN, NaN, NaN, 0.0286883, "- N/A -   "
10.18, 328.513, 0.01714089, NaN, NaN, NaN, 0.0286883, "- N/A -   "
10.19, 328.7487, 0.0171548, NaN, NaN, NaN, 0.0299091, "- N/A -   "
10.2, 328.984, 0.0171714, NaN, NaN, NaN, 0.03112983, "- N/A -   "
10.21, 329.456, 0.0171853, NaN, NaN, NaN, 0.03112983, "- N/A -   "
10.22, 329.809, 0.0171992, NaN, NaN, NaN, 0.0323506, "- N/A -   "
10.23, 330.0448, 0.0172159, NaN, NaN, NaN, 0.0323506, "- N/A -   "
10.24, 330.398, 0.0172297, NaN, NaN, NaN, 0.0335714, "- N/A -   "
10.25, 330.6339, 0.01724363, NaN, NaN, NaN, 0.0347922, "- N/A -   "
[...]
22.75, 833.805, 0.0380693, NaN, NaN, NaN, 0.0396753, "- N/A -   "
22.78, 835.2239, 0.0381248, NaN, NaN, NaN, 0.0372337, "- N/A -   "
22.81, 836.525, 0.0381748, NaN, NaN, NaN, 0.03601294, "- N/A -   "
22.84, 837.944, 0.0382248, NaN, NaN, NaN, 0.03601294, "- N/A -   "
22.87, 839.0089, 0.03827197, NaN, NaN, NaN, 0.0372337, "- N/A -   "
22.9, 840.31, 0.03832195, NaN, NaN, NaN, 0.0384545, "- N/A -   "
22.93, 841.7294, 0.03837471, NaN, NaN, NaN, 0.03601294, "- N/A -   "
22.96, 843.1487, 0.0384302, NaN, NaN, NaN, 0.0335714, "- N/A -   "
22.99, 844.568, 0.0384858, NaN, NaN, NaN, 0.0323506, "- N/A -   "
23.02, 845.751, 0.0385358, NaN, NaN, NaN, 0.0323506, "- N/A -   "
23.05, 847.052, 0.038583, NaN, NaN, NaN, 0.0323506, "- N/A -   "
23.08, 848.116, 0.03862462, NaN, NaN, NaN, 0.03601294, "- N/A -   "
23.11, 849.2993, 0.03867182, NaN, NaN, NaN, 0.0372337, "- N/A -   "
23.14, 850.6004, 0.0387246, NaN, NaN, NaN, 0.03601294, "- N/A -   "
23.17, 852.138, 0.0387801, NaN, NaN, NaN, 0.0335714, "- N/A -   "
23.2, 853.321, 0.0388301, NaN, NaN, NaN, 0.0347922, "- N/A -   "
23.23, 854.385, 0.03887453, NaN, NaN, NaN, 0.03601294, "- N/A -   "
23.26, 855.5682, 0.0389217, NaN, NaN, NaN, 0.0384545, "- N/A -   "
23.29, 856.751, 0.03896616, NaN, NaN, NaN, 0.0396753, "- N/A -   "
23.32, 857.816, 0.0390134, NaN, NaN, NaN, 0.04089605, "- N/A -   "
23.35, 859.117, 0.0390578, NaN, NaN, NaN, 0.0433376, "- N/A -   "
23.38, 860.299, 0.039105, NaN, NaN, NaN, 0.04577916, "- N/A -   "
23.41, 861.7188, 0.0391605, NaN, NaN, NaN, 0.0433376, "- N/A -   "
23.44, 863.0199, 0.0392105, NaN, NaN, NaN, 0.04211683, "- N/A -   "
23.47, 864.4393, 0.03926327, NaN, NaN, NaN, 0.04089605, "- N/A -   "
23.5, 866.095, 0.03932436, NaN, NaN, NaN, 0.0372337, "- N/A -   "
23.53, 867.5146, 0.0393799, NaN, NaN, NaN, 0.0335714, "- N/A -   "
23.56, 868.8156, 0.0394327, NaN, NaN, NaN, 0.0335714, "- N/A -   "
23.59, 870.117, 0.03947986, NaN, NaN, NaN, 0.0335714, "- N/A -   "
23.62, 871.3, 0.0395326, NaN, NaN, NaN, 0.0335714, "- N/A -   "
23.65, 872.719, 0.0395826, NaN, NaN, NaN, 0.0323506, "- N/A -   "
23.68, 873.902, 0.0396354, NaN, NaN, NaN, 0.0323506, "- N/A -   "
23.71, 875.3211, 0.0396909, NaN, NaN, NaN, 0.0299091, "- N/A -   "
23.74, 876.8587, 0.03974365, NaN, NaN, NaN, 0.0274675, "- N/A -   "
23.77, 878.278, 0.0397992, NaN, NaN, NaN, 0.0262467, "- N/A -   "
23.8, 879.343, 0.03984361, NaN, NaN, NaN, 0.0274675, "- N/A -   "
23.83, 880.407, 0.0398853, NaN, NaN, NaN, 0.03112983, "- N/A -   "
23.86, 881.4717, 0.0399297, NaN, NaN, NaN, 0.0335714, "- N/A -   "
23.89, 882.536, 0.0399713, NaN, NaN, NaN, 0.0372337, "- N/A -   "
23.92, 883.601, 0.040013, NaN, NaN, NaN, 0.04089605, "- N/A -   "
23.95, 884.547, 0.04005465, NaN, NaN, NaN, 0.04577916, "- N/A -   "
23.98, 885.8481, 0.0401019, NaN, NaN, NaN, 0.04577916, "- N/A -   "
24.01, 887.1492, 0.0401518, NaN, NaN, NaN, 0.04577916, "- N/A -   "
24.04, 888.332, 0.040199, NaN, NaN, NaN, 0.04699994, "- N/A -   "
24.07, 889.633, 0.0402518, NaN, NaN, NaN, 0.04577916, "- N/A -   "
24.1, 891.1707, 0.0403073, NaN, NaN, NaN, 0.0433376, "- N/A -   "
24.13, 892.4718, 0.0403629, NaN, NaN, NaN, 0.04089605, "- N/A -   "
24.16, 893.8912, 0.0404212, NaN, NaN, NaN, 0.0384545, "- N/A -   "
24.19, 895.429, 0.0404767, NaN, NaN, NaN, 0.0347922, "- N/A -   "
24.22, 896.9665, 0.04052947, NaN, NaN, NaN, 0.0335714, "- N/A -   "
24.25, 898.031, 0.0405795, NaN, NaN, NaN, 0.0347922, "- N/A -   "
24.28, 899.3321, 0.0406267, NaN, NaN, NaN, 0.0347922, "- N/A -   "
24.31, 900.751, 0.0406822, NaN, NaN, NaN, 0.0323506, "- N/A -   "
24.34, 902.171, 0.0407377, NaN, NaN, NaN, 0.0299091, "- N/A -   "
24.37, 903.5903, 0.0407905, NaN, NaN, NaN, 0.0286883, "- N/A -   "
24.4, 904.773, 0.0408432, NaN, NaN, NaN, 0.0274675, "- N/A -   "
24.43, 906.074, 0.04089045, NaN, NaN, NaN, 0.0286883, "- N/A -   "
24.46, 907.2569, 0.0409377, NaN, NaN, NaN, 0.0299091, "- N/A -   "
24.49, 908.3214, 0.0409793, NaN, NaN, NaN, 0.0335714, "- N/A -   "
24.52, 909.386, 0.0410237, NaN, NaN, NaN, 0.03601294, "- N/A -   "
24.55, 910.4505, 0.0410682, NaN, NaN, NaN, 0.0384545, "- N/A -   "
24.58, 911.633, 0.04111259, NaN, NaN, NaN, 0.04089605, "- N/A -   "
24.61, 912.8161, 0.0411598, NaN, NaN, NaN, 0.0433376, "- N/A -   "
24.64, 913.999, 0.0412098, NaN, NaN, NaN, 0.04211683, "- N/A -   "
24.67, 915.4183, 0.0412625, NaN, NaN, NaN, 0.04089605, "- N/A -   "
24.7, 916.7194, 0.0413125, NaN, NaN, NaN, 0.04089605, "- N/A -   "
24.73, 918.02, 0.0413625, NaN, NaN, NaN, 0.04089605, "- N/A -   "
24.76, 919.3216, 0.0414153, NaN, NaN, NaN, 0.04089605, "- N/A -   "
24.79, 920.5044, 0.0414652, NaN, NaN, NaN, 0.0396753, "- N/A -   "
24.82, 922.042, 0.04152077, NaN, NaN, NaN, 0.0372337, "- N/A -   "
24.85, 923.343, 0.04157353, NaN, NaN, NaN, 0.03601294, "- N/A -   "
24.88, 924.8808, 0.04163462, NaN, NaN, NaN, 0.0323506, "- N/A -   "
24.91, 926.4184, 0.0416874, NaN, NaN, NaN, 0.0299091, "- N/A -   "
24.94, 927.601, 0.04173736, NaN, NaN, NaN, 0.0299091, "- N/A -   "
24.97, 928.9023, 0.04178734, NaN, NaN, NaN, 0.0299091, "- N/A -   "
25, 930.3217, 0.0418401, NaN, NaN, NaN, 0.0299091, "- N/A -   "
25.03, 931.3862, 0.0418901, NaN, NaN, NaN, 0.0299091, "- N/A -   "
25.06, 932.8056, 0.0419373, NaN, NaN, NaN, 0.0299091, "- N/A -   "
25.09, 933.8701, 0.0419789, NaN, NaN, NaN, 0.0335714, "- N/A -   "
25.12, 934.9347, 0.0420261, NaN, NaN, NaN, 0.0347922, "- N/A -   "
25.15, 936.354, 0.0420761, NaN, NaN, NaN, 0.0347922, "- N/A -   "
25.18, 937.537, 0.0421261, NaN, NaN, NaN, 0.0347922, "- N/A -   "
25.21, 938.8379, 0.04217886, NaN, NaN, NaN, 0.0335714, "- N/A -   "
25.24, 940.139, 0.0422261, NaN, NaN, NaN, 0.0347922, "- N/A -   "
25.27, 941.085, 0.0422677, NaN, NaN, NaN, 0.0384545, "- N/A -   "
25.3, 942.268, 0.04231215, NaN, NaN, NaN, 0.04211683, "- N/A -   "
25.33, 943.451, 0.0423566, NaN, NaN, NaN, 0.0433376, "- N/A -   "
25.36, 944.752, 0.0424066, NaN, NaN, NaN, 0.0433376, "- N/A -   "
25.39, 945.816, 0.042451, NaN, NaN, NaN, 0.04577916, "- N/A -   "
25.42, 946.999, 0.042501, NaN, NaN, NaN, 0.04577916, "- N/A -   "
25.45, 948.5369, 0.0425593, NaN, NaN, NaN, 0.0433376, "- N/A -   "
25.48, 950.1929, 0.0426148, NaN, NaN, NaN, 0.0396753, "- N/A -   "
25.51, 951.612, 0.0426731, NaN, NaN, NaN, 0.0372337, "- N/A -   "
25.54, 953.1499, 0.04272866, NaN, NaN, NaN, 0.0335714, "- N/A -   "
25.57, 954.451, 0.0427842, NaN, NaN, NaN, 0.03112983, "- N/A -   "
25.6, 955.87, 0.042837, NaN, NaN, NaN, 0.03112983, "- N/A -   "
25.63, 957.171, 0.0428842, NaN, NaN, NaN, 0.03112983, "- N/A -   "
25.66, 958.1177, 0.04292581, NaN, NaN, NaN, 0.0347922, "- N/A -   "
25.69, 959.064, 0.04296746, NaN, NaN, NaN, 0.0384545, "- N/A -   "
25.72, 960.602, 0.043023, NaN, NaN, NaN, 0.0372337, "- N/A -   "
25.75, 961.9027, 0.0430758, NaN, NaN, NaN, 0.03601294, "- N/A -   "
25.78, 963.322, 0.0431285, NaN, NaN, NaN, 0.0335714, "- N/A -   "
25.81, 964.8597, 0.0431896, NaN, NaN, NaN, 0.0286883, "- N/A -   "
25.84, 965.9242, 0.0432313, NaN, NaN, NaN, 0.0323506, "- N/A -   "
25.87, 967.107, 0.0432785, NaN, NaN, NaN, 0.0335714, "- N/A -   "
25.9, 968.4081, 0.0433257, NaN, NaN, NaN, 0.0347922, "- N/A -   "
25.93, 969.473, 0.04337009, NaN, NaN, NaN, 0.0372337, "- N/A -   "
25.96, 970.774, 0.04342007, NaN, NaN, NaN, 0.0372337, "- N/A -   "
25.99, 972.0748, 0.0434728, NaN, NaN, NaN, 0.03601294, "- N/A -   "
26.02, 973.4942, 0.0435256, NaN, NaN, NaN, 0.03601294, "- N/A -   "
26.05, 974.677, 0.0435728, NaN, NaN, NaN, 0.03601294, "- N/A -   "
26.08, 975.7415, 0.0436144, NaN, NaN, NaN, 0.0396753, "- N/A -   "
26.11, 976.9244, 0.04366165, NaN, NaN, NaN, 0.04089605, "- N/A -   "
26.14, 978.2254, 0.04371163, NaN, NaN, NaN, 0.04089605, "- N/A -   "
26.17, 979.527, 0.04376439, NaN, NaN, NaN, 0.04211683, "- N/A -   "
26.2, 980.8276, 0.04381437, NaN, NaN, NaN, 0.04089605, "- N/A -   "
26.23, 982.1287, 0.04386435, NaN, NaN, NaN, 0.04089605, "- N/A -   "
26.26, 983.43, 0.04391711, NaN, NaN, NaN, 0.0396753, "- N/A -   "
26.29, 984.7309, 0.0439671, NaN, NaN, NaN, 0.0396753, "- N/A -   "
26.32, 985.9137, 0.0440171, NaN, NaN, NaN, 0.0396753, "- N/A -   "
26.35, 987.57, 0.0440726, NaN, NaN, NaN, 0.0372337, "- N/A -   "
26.38, 988.989, 0.0441309, NaN, NaN, NaN, 0.0335714, "- N/A -   "
26.41, 990.5267, 0.0441865, NaN, NaN, NaN, 0.03112983, "- N/A -   "
26.44, 991.946, 0.0442364, NaN, NaN, NaN, 0.03112983, "- N/A -   "
26.47, 993.129, 0.0442892, NaN, NaN, NaN, 0.0299091, "- N/A -   "
26.5, 994.4299, 0.0443364, NaN, NaN, NaN, 0.03112983, "- N/A -   "
26.53, 995.613, 0.04438638, NaN, NaN, NaN, 0.03112983, "- N/A -   "
26.56, 996.796, 0.0444336, NaN, NaN, NaN, 0.0323506, "- N/A -   "
26.59, 997.978, 0.0444836, NaN, NaN, NaN, 0.0335714, "- N/A -   "
26.62, 999.2794, 0.044528, NaN, NaN, NaN, 0.0347922, "- N/A -   "
26.65, 1000.23, 0.04457242, NaN, NaN, NaN, 0.0384545, "- N/A -   "
26.68, 1001.29, 0.0446169, NaN, NaN, NaN, 0.04089605, "- N/A -   "
26.71, 1002.473, 0.0446641, NaN, NaN, NaN, 0.04211683, "- N/A -   "
26.74, 1003.77, 0.0447113, NaN, NaN, NaN, 0.0433376, "- N/A -   "
26.77, 1004.96, 0.0447557, NaN, NaN, NaN, 0.04577916, "- N/A -   "
26.8, 1006.02, 0.0448001, NaN, NaN, NaN, 0.04699994, "- N/A -   "
26.83, 1007.44, 0.0448529, NaN, NaN, NaN, 0.04577916, "- N/A -   "
26.86, 1008.86, 0.0449084, NaN, NaN, NaN, 0.0445584, "- N/A -   "
26.89, 1010.4, 0.04496394, NaN, NaN, NaN, 0.04089605, "- N/A -   "
26.92, 1011.94, 0.0450223, NaN, NaN, NaN, 0.0372337, "- N/A -   "
26.95, 1013.36, 0.0450778, NaN, NaN, NaN, 0.0347922, "- N/A -   "
26.98, 1014.908, 0.0451333, NaN, NaN, NaN, 0.0335714, "- N/A -   "
27.01, 1016.1, 0.04518331, NaN, NaN, NaN, 0.0335714, "- N/A -   "
27.04, 1017.17, 0.04523051, NaN, NaN, NaN, 0.0347922, "- N/A -   "
27.07, 1018.49, 0.0452749, NaN, NaN, NaN, 0.03601294, "- N/A -   "
27.1, 1019.68, 0.04532492, NaN, NaN, NaN, 0.0372337, "- N/A -   "
27.13, 1021.11, 0.04537768, NaN, NaN, NaN, 0.0347922, "- N/A -   "
27.16, 1022.54, 0.04543877, NaN, NaN, NaN, 0.03112983, "- N/A -   "
27.19, 1023.97, 0.0454915, NaN, NaN, NaN, 0.0299091, "- N/A -   "
27.22, 1025.283, 0.04553873, NaN, NaN, NaN, 0.0299091, "- N/A -   "
27.25, 1026.48, 0.0455859, NaN, NaN, NaN, 0.03112983, "- N/A -   "
27.28, 1027.55, 0.0456304, NaN, NaN, NaN, 0.0347922, "- N/A -   "
27.31, 1028.622, 0.045672, NaN, NaN, NaN, 0.0372337, "- N/A -   "
27.34, 1029.576, 0.0457137, NaN, NaN, NaN, 0.04089605, "- N/A -   "
27.37, 1030.77, 0.04576087, NaN, NaN, NaN, 0.04211683, "- N/A -   "
27.4, 1031.961, 0.0458053, NaN, NaN, NaN, 0.0445584, "- N/A -   "
27.43, 1033.15, 0.0458525, NaN, NaN, NaN, 0.04699994, "- N/A -   "
27.46, 1034.58, 0.0459025, NaN, NaN, NaN, 0.04577916, "- N/A -   "
27.49, 1035.9, 0.04595802, NaN, NaN, NaN, 0.0445584, "- N/A -   "
27.52, 1037.45, 0.0460136, NaN, NaN, NaN, 0.04089605, "- N/A -   "
27.55, 1038.997, 0.04607187, NaN, NaN, NaN, 0.0384545, "- N/A -   "
27.58, 1040.31, 0.04612185, NaN, NaN, NaN, 0.0372337, "- N/A -   "
27.61, 1041.74, 0.0461774, NaN, NaN, NaN, 0.03601294, "- N/A -   "
27.64, 1042.93, 0.0462274, NaN, NaN, NaN, 0.0347922, "- N/A -   "
27.67, 1044.48, 0.0462829, NaN, NaN, NaN, 0.0335714, "- N/A -   "
27.7, 1045.675, 0.04633288, NaN, NaN, NaN, 0.0323506, "- N/A -   "
27.73, 1047.11, 0.0463884, NaN, NaN, NaN, 0.0299091, "- N/A -   "
27.76, 1048.42, 0.0464384, NaN, NaN, NaN, 0.0299091, "- N/A -   "
27.79, 1049.85, 0.0464912, NaN, NaN, NaN, 0.0286883, "- N/A -   "
27.82, 1051.16, 0.0465439, NaN, NaN, NaN, 0.0274675, "- N/A -   "
27.85, 1052.47, 0.0465939, NaN, NaN, NaN, 0.0274675, "- N/A -   "
27.88, 1053.55, 0.0466383, NaN, NaN, NaN, 0.0299091, "- N/A -   "
27.91, 1054.74, 0.0466828, NaN, NaN, NaN, 0.0323506, "- N/A -   "
27.94, 1055.81, 0.0467244, NaN, NaN, NaN, 0.03601294, "- N/A -   "
27.97, 1056.77, 0.0467661, NaN, NaN, NaN, 0.0396753, "- N/A -   "
28, 1057.84, 0.04681048, NaN, NaN, NaN, 0.04211683, "- N/A -   "
28.03, 1059.03, 0.04685769, NaN, NaN, NaN, 0.0433376, "- N/A -   "
28.06, 1060.343, 0.04690767, NaN, NaN, NaN, 0.0445584, "- N/A -   "
28.09, 1061.65, 0.0469549, NaN, NaN, NaN, 0.0445584, "- N/A -   "
28.12, 1062.97, 0.04700208, NaN, NaN, NaN, 0.04577916, "- N/A -   "
28.15, 1064.159, 0.04705484, NaN, NaN, NaN, 0.04577916, "- N/A -   "
28.18, 1065.59, 0.0471076, NaN, NaN, NaN, 0.0445584, "- N/A -   "
28.21, 1067.02, 0.0471631, NaN, NaN, NaN, 0.04211683, "- N/A -   "
28.24, 1068.33, 0.0472131, NaN, NaN, NaN, 0.04089605, "- N/A -   "
28.27, 1069.88, 0.0472714, NaN, NaN, NaN, 0.0372337, "- N/A -   "
28.3, 1071.43, 0.0473325, NaN, NaN, NaN, 0.0335714, "- N/A -   "
28.33, 1072.98, 0.0473908, NaN, NaN, NaN, 0.0299091, "- N/A -   "
28.36, 1074.41, 0.04744081, NaN, NaN, NaN, 0.0286883, "- N/A -   "
28.39, 1075.488, 0.0474908, NaN, NaN, NaN, 0.0299091, "- N/A -   "
28.42, 1076.68, 0.04753522, NaN, NaN, NaN, 0.03112983, "- N/A -   "
28.45, 1077.75, 0.0475796, NaN, NaN, NaN, 0.0335714, "- N/A -   "
28.48, 1078.95, 0.0476213, NaN, NaN, NaN, 0.0372337, "- N/A -   "
28.51, 1080.258, 0.0476713, NaN, NaN, NaN, 0.0372337, "- N/A -   "
28.54, 1081.45, 0.04771848, NaN, NaN, NaN, 0.0384545, "- N/A -   "
28.57, 1082.88, 0.047774, NaN, NaN, NaN, 0.0372337, "- N/A -   "
28.6, 1084.19, 0.0478268, NaN, NaN, NaN, 0.0347922, "- N/A -   "
28.63, 1085.51, 0.0478768, NaN, NaN, NaN, 0.0347922, "- N/A -   "
28.66, 1086.82, 0.047924, NaN, NaN, NaN, 0.03601294, "- N/A -   "
28.69, 1087.771, 0.0479684, NaN, NaN, NaN, 0.0396753, "- N/A -   "
28.72, 1088.84, 0.04801004, NaN, NaN, NaN, 0.04211683, "- N/A -   "
28.75, 1090.156, 0.04806, NaN, NaN, NaN, 0.04211683, "- N/A -   "
28.78, 1091.35, 0.0481072, NaN, NaN, NaN, 0.0433376, "- N/A -   "
28.81, 1092.66, 0.04815721, NaN, NaN, NaN, 0.0433376, "- N/A -   "
28.84, 1093.972, 0.04820997, NaN, NaN, NaN, 0.04211683, "- N/A -   "
28.87, 1095.52, 0.0482711, NaN, NaN, NaN, 0.0384545, "- N/A -   "
28.9, 1097.19, 0.04832937, NaN, NaN, NaN, 0.0335714, "- N/A -   "
28.93, 1098.5, 0.0483821, NaN, NaN, NaN, 0.0323506, "- N/A -   "
28.96, 1100.054, 0.0484404, NaN, NaN, NaN, 0.0299091, "- N/A -   "
28.99, 1101.485, 0.0484932, NaN, NaN, NaN, 0.0286883, "- N/A -   "
29.02, 1102.56, 0.0485376, NaN, NaN, NaN, 0.0299091, "- N/A -   "
29.05, 1103.63, 0.0485821, NaN, NaN, NaN, 0.0323506, "- N/A -   "
29.08, 1104.824, 0.0486293, NaN, NaN, NaN, 0.0335714, "- N/A -   "
29.11, 1105.9, 0.0486737, NaN, NaN, NaN, 0.03601294, "- N/A -   "
29.14, 1107.209, 0.0487237, NaN, NaN, NaN, 0.0372337, "- N/A -   "
29.17, 1108.64, 0.0487764, NaN, NaN, NaN, 0.03601294, "- N/A -   "
29.2, 1110.07, 0.0488292, NaN, NaN, NaN, 0.0335714, "- N/A -   "
29.23, 1111.62, 0.04888472, NaN, NaN, NaN, 0.03112983, "- N/A -   "
29.26, 1112.69, 0.0489291, NaN, NaN, NaN, 0.0335714, "- N/A -   "
29.29, 1113.768, 0.0489736, NaN, NaN, NaN, 0.03601294, "- N/A -   "
29.32, 1114.96, 0.0490236, NaN, NaN, NaN, 0.0372337, "- N/A -   "
29.35, 1116.03, 0.04906798, NaN, NaN, NaN, 0.0384545, "- N/A -   "
29.38, 1117.23, 0.0491124, NaN, NaN, NaN, 0.04211683, "- N/A -   "
29.41, 1118.42, 0.0491596, NaN, NaN, NaN, 0.04211683, "- N/A -   "
29.44, 1119.73, 0.0492124, NaN, NaN, NaN, 0.04089605, "- N/A -   "
29.47, 1121.28, 0.04926513, NaN, NaN, NaN, 0.0396753, "- N/A -   "
29.5, 1122.354, 0.04931234, NaN, NaN, NaN, 0.04089605, "- N/A -   "
29.53, 1123.67, 0.04936232, NaN, NaN, NaN, 0.04089605, "- N/A -   "
29.56, 1125.1, 0.0494151, NaN, NaN, NaN, 0.04089605, "- N/A -   "
29.59, 1126.53, 0.0494678, NaN, NaN, NaN, 0.0384545, "- N/A -   "
29.62, 1127.84, 0.0495206, NaN, NaN, NaN, 0.0384545, "- N/A -   "
29.65, 1129.27, 0.0495706, NaN, NaN, NaN, 0.0372337, "- N/A -   "
29.68, 1130.344, 0.0496206, NaN, NaN, NaN, 0.0372337, "- N/A -   "
29.71, 1131.66, 0.04967054, NaN, NaN, NaN, 0.0372337, "- N/A -   "
29.74, 1133.09, 0.0497261, NaN, NaN, NaN, 0.03601294, "- N/A -   "
29.77, 1134.637, 0.04978161, NaN, NaN, NaN, 0.0323506, "- N/A -   "
29.8, 1135.95, 0.0498316, NaN, NaN, NaN, 0.0323506, "- N/A -   "
29.83, 1137.14, 0.0498788, NaN, NaN, NaN, 0.0335714, "- N/A -   "
29.86, 1138.45, 0.049926, NaN, NaN, NaN, 0.0347922, "- N/A -   "
29.89, 1139.65, 0.04997598, NaN, NaN, NaN, 0.03601294, "- N/A -   "
29.92, 1140.84, 0.0500232, NaN, NaN, NaN, 0.03601294, "- N/A -   "
29.95, 1142.15, 0.0500759, NaN, NaN, NaN, 0.0347922, "- N/A -   "
29.98, 1143.46, 0.05013148, NaN, NaN, NaN, 0.0335714, "- N/A -   "
30.01, 1145.012, 0.0501815, NaN, NaN, NaN, 0.0323506, "- N/A -   "
30.04, 1146.09, 0.0502259, NaN, NaN, NaN, 0.0347922, "- N/A -   "
30.07, 1147.04, 0.05026754, NaN, NaN, NaN, 0.0384545, "- N/A -   "
30.1, 1148.23, 0.0503147, NaN, NaN, NaN, 0.04089605, "- N/A -   "
30.13, 1149.42, 0.05036195, NaN, NaN, NaN, 0.04089605, "- N/A -   "
30.16, 1150.74, 0.0504092, NaN, NaN, NaN, 0.04211683, "- N/A -   "
30.19, 1151.93, 0.05045358, NaN, NaN, NaN, 0.0445584, "- N/A -   "
30.22, 1153.24, 0.0505091, NaN, NaN, NaN, 0.0433376, "- N/A -   "
30.25, 1154.67, 0.0505619, NaN, NaN, NaN, 0.04089605, "- N/A -   "
30.28, 1156.1, 0.05061741, NaN, NaN, NaN, 0.0384545, "- N/A -   "
30.31, 1157.65, 0.0506757, NaN, NaN, NaN, 0.03601294, "- N/A -   "
30.34, 1159.203, 0.050734, NaN, NaN, NaN, 0.03112983, "- N/A -   "
30.37, 1160.634, 0.0507868, NaN, NaN, NaN, 0.0299091, "- N/A -   "
30.4, 1161.83, 0.050834, NaN, NaN, NaN, 0.03112983, "- N/A -   "
30.43, 1163.02, 0.0508812, NaN, NaN, NaN, 0.0323506, "- N/A -   "
30.46, 1164.09, 0.0509312, NaN, NaN, NaN, 0.0323506, "- N/A -   "
30.49, 1165.52, 0.0509812, NaN, NaN, NaN, 0.0323506, "- N/A -   "
30.52, 1166.84, 0.0510311, NaN, NaN, NaN, 0.0323506, "- N/A -   "
30.55, 1168.15, 0.0510867, NaN, NaN, NaN, 0.0299091, "- N/A -   "
30.58, 1169.7, 0.05114222, NaN, NaN, NaN, 0.0274675, "- N/A -   "
30.61, 1171.01, 0.0511922, NaN, NaN, NaN, 0.0274675, "- N/A -   "
30.64, 1172.2, 0.0512394, NaN, NaN, NaN, 0.0299091, "- N/A -   "
30.67, 1173.16, 0.0512838, NaN, NaN, NaN, 0.0323506, "- N/A -   "
30.7, 1174.35, 0.05132548, NaN, NaN, NaN, 0.0372337, "- N/A -   "
30.73, 1175.42, 0.0513671, NaN, NaN, NaN, 0.0396753, "- N/A -   "
30.76, 1176.38, 0.0514088, NaN, NaN, NaN, 0.0433376, "- N/A -   "
30.79, 1177.45, 0.0514532, NaN, NaN, NaN, 0.04577916, "- N/A -   "
30.82, 1178.641, 0.05150042, NaN, NaN, NaN, 0.04699994, "- N/A -   "
30.85, 1179.83, 0.0515476, NaN, NaN, NaN, 0.0482207, "- N/A -   "
30.88, 1181.15, 0.0515976, NaN, NaN, NaN, 0.0482207, "- N/A -   "
30.91, 1182.58, 0.05165314, NaN, NaN, NaN, 0.04577916, "- N/A -   "
30.94, 1184.13, 0.05171145, NaN, NaN, NaN, 0.0433376, "- N/A -   "
30.97, 1185.68, 0.05176976, NaN, NaN, NaN, 0.0396753, "- N/A -   "
31, 1187.11, 0.0518253, NaN, NaN, NaN, 0.03601294, "- N/A -   "
31.03, 1188.42, 0.0518781, NaN, NaN, NaN, 0.03601294, "- N/A -   "
31.06, 1189.73, 0.051928, NaN, NaN, NaN, 0.0347922, "- N/A -   "
31.09, 1191.04, 0.0519808, NaN, NaN, NaN, 0.0335714, "- N/A -   "
31.12, 1192.59, 0.05203633, NaN, NaN, NaN, 0.03112983, "- N/A -   "
31.15, 1194.02, 0.0520919, NaN, NaN, NaN, 0.0286883, "- N/A -   "
31.18, 1195.217, 0.0521418, NaN, NaN, NaN, 0.0286883, "- N/A -   "
31.21, 1196.41, 0.0521891, NaN, NaN, NaN, 0.0299091, "- N/A -   "
31.24, 1197.602, 0.0522363, NaN, NaN, NaN, 0.03112983, "- N/A -   "
31.27, 1198.914, 0.0522862, NaN, NaN, NaN, 0.03112983, "- N/A -   "
31.3, 1200.11, 0.0523334, NaN, NaN, NaN, 0.0323506, "- N/A -   "
31.33, 1201.42, 0.0523806, NaN, NaN, NaN, 0.0335714, "- N/A -   "
31.36, 1202.49, 0.05242508, NaN, NaN, NaN, 0.03601294, "- N/A -   "
31.39, 1203.45, 0.0524667, NaN, NaN, NaN, 0.0396753, "- N/A -   "
31.42, 1204.4, 0.0525112, NaN, NaN, NaN, 0.0433376, "- N/A -   "
31.45, 1205.59, 0.0525556, NaN, NaN, NaN, 0.04577916, "- N/A -   "
31.48, 1206.9, 0.05260279, NaN, NaN, NaN, 0.04577916, "- N/A -   "
31.51, 1208.1, 0.0526555, NaN, NaN, NaN, 0.0445584, "- N/A -   "
31.54, 1209.41, 0.0527083, NaN, NaN, NaN, 0.0445584, "- N/A -   "
31.57, 1210.84, 0.0527583, NaN, NaN, NaN, 0.0445584, "- N/A -   "
31.6, 1212.03, 0.05280827, NaN, NaN, NaN, 0.0433376, "- N/A -   "
31.63, 1213.34, 0.052861, NaN, NaN, NaN, 0.04211683, "- N/A -   "
31.66, 1214.89, 0.05291934, NaN, NaN, NaN, 0.0396753, "- N/A -   "
31.688, 1216.21, 0.05296932, NaN, NaN, NaN, 0.0372337, "- N/A -   "