File: 2_Tensile_Data/Hamel_ForceTest_Bolt9_Test7.csv
Time, Load (lb), Position (in), AxialStrain (in), TransverseStrain (in), Auxiliary (), Control Out (V), Stress (psi)
0.0, 13.446, 0.0, NaN, NaN, NaN, -0.007935055, "- N/A -   "
0.01, 13.446, 0.0, NaN, NaN, NaN, -6.103888E-4, "- N/A -   "
0.02, 13.446, 0.0, NaN, NaN, NaN, 0.006714277, "- N/A -   "
0.03, 13.446, 2.776752E-6, NaN, NaN, NaN, 0.0213636, "- N/A -   "
0.04, 13.446, 5.553504E-6, NaN, NaN, NaN, 0.0384545, "- N/A -   "
0.05, 13.446, 1.38838e-05, NaN, NaN, NaN, 0.0543246, "- N/A -   "
0.06, 13.564, 2.49908e-05, NaN, NaN, NaN, 0.0689739, "- N/A -   "
0.07, 13.9178, 4.16513e-05, NaN, NaN, NaN, 0.08118171, "- N/A -   "
0.08, 14.2716, 6.386529E-5, NaN, NaN, NaN, 0.09094793, "- N/A -   "
0.09, 14.5075, 9.16328e-05, NaN, NaN, NaN, 0.0982726, "- N/A -   "
0.1, 14.8614, 0.000124954, NaN, NaN, NaN, 0.104376, "- N/A -   "
0.11, 15.3332, 1.554981E-4, NaN, NaN, NaN, 0.0982726, "- N/A -   "
0.12, 15.687, 0.000186042, NaN, NaN, NaN, 0.09216871, "- N/A -   "
0.13, 15.9229, 0.000211033, NaN, NaN, NaN, 0.08850638, "- N/A -   "
0.14, 16.27675, 2.360239E-4, NaN, NaN, NaN, 0.084844, "- N/A -   "
0.15, 16.5126, 2.582379E-4, NaN, NaN, NaN, 0.08240249, "- N/A -   "
0.16, 16.74854, 0.000280452, NaN, NaN, NaN, 0.0799609, "- N/A -   "
0.17, 17.1024, 3.054427E-4, NaN, NaN, NaN, 0.0762986, "- N/A -   "
0.18, 17.3383, 0.000327657, NaN, NaN, NaN, 0.07385705, "- N/A -   "
0.19, 17.6921, 0.000349871, NaN, NaN, NaN, 0.07141549, "- N/A -   "
0.2, 17.928, 0.000372085, NaN, NaN, NaN, 0.0701947, "- N/A -   "
0.21, 18.046, 0.000391522, NaN, NaN, NaN, 0.06775316, "- N/A -   "
0.22, 18.2819, 0.000410959, NaN, NaN, NaN, 0.06653238, "- N/A -   "
0.23, 18.5178, 4.331733E-4, NaN, NaN, NaN, 0.0653116, "- N/A -   "
0.24, 18.8716, 0.000452611, NaN, NaN, NaN, 0.06287005, "- N/A -   "
0.25, 19.1075, 0.000474825, NaN, NaN, NaN, 0.06164927, "- N/A -   "
0.26, 19.2254, 4.970386E-4, NaN, NaN, NaN, 0.0592077, "- N/A -   "
0.27, 19.57928, 5.164758E-4, NaN, NaN, NaN, 0.05676616, "- N/A -   "
0.28, 19.6972, 5.359131E-4, NaN, NaN, NaN, 0.0555454, "- N/A -   "
0.29, 19.9331, 5.553504E-4, NaN, NaN, NaN, 0.0543246, "- N/A -   "
0.3, 20.287, 0.000580341, NaN, NaN, NaN, 0.05188305, "- N/A -   "
0.31, 20.4049, 0.000602555, NaN, NaN, NaN, 0.0494415, "- N/A -   "
0.32, 20.7588, 0.000624769, NaN, NaN, NaN, 0.04699994, "- N/A -   "
0.33, 20.8767, 6.442064E-4, NaN, NaN, NaN, 0.0445584, "- N/A -   "
0.34, 21.2305, 0.00066642, NaN, NaN, NaN, 0.04211683, "- N/A -   "
0.35, 21.46644, 0.000688634, NaN, NaN, NaN, 0.0396753, "- N/A -   "
0.36, 21.7023, 7.108485E-4, NaN, NaN, NaN, 0.0372337, "- N/A -   "
0.37, 21.93823, 7.302857E-4, NaN, NaN, NaN, 0.03601294, "- N/A -   "
0.38, 22.0562, 7.49723E-4, NaN, NaN, NaN, 0.0347922, "- N/A -   "
0.39, 22.29207, 7.663835E-4, NaN, NaN, NaN, 0.03601294, "- N/A -   "
0.41, 22.528, 7.969278E-4, NaN, NaN, NaN, 0.03601294, "- N/A -   "
0.43, 22.9998, 8.302488E-4, NaN, NaN, NaN, 0.03601294, "- N/A -   "
0.45, 23.3536, 0.000860793, NaN, NaN, NaN, 0.0372337, "- N/A -   "
0.47, 23.7074, 8.941141E-4, NaN, NaN, NaN, 0.0372337, "- N/A -   "
0.49, 24.0613, 0.000930212, NaN, NaN, NaN, 0.0372337, "- N/A -   "
0.51, 24.5331, 9.635329E-4, NaN, NaN, NaN, 0.0372337, "- N/A -   "
0.53, 24.8869, 9.968539E-4, NaN, NaN, NaN, 0.03601294, "- N/A -   "
0.55, 25.2408, 0.00103295, NaN, NaN, NaN, 0.0347922, "- N/A -   "
0.57, 25.7125, 0.00106905, NaN, NaN, NaN, 0.0335714, "- N/A -   "
0.59, 26.0664, 0.00110792, NaN, NaN, NaN, 0.0323506, "- N/A -   "
0.61, 26.4202, 0.00113847, NaN, NaN, NaN, 0.0323506, "- N/A -   "
0.63, 26.7741, 0.00117179, NaN, NaN, NaN, 0.0323506, "- N/A -   "
0.65, 27.1279, 0.00120233, NaN, NaN, NaN, 0.0335714, "- N/A -   "
0.67, 27.4818, 0.00123565, NaN, NaN, NaN, 0.0335714, "- N/A -   "
0.69, 27.8356, 0.0012662, NaN, NaN, NaN, 0.0347922, "- N/A -   "
0.71, 28.1894, 0.00129397, NaN, NaN, NaN, 0.0372337, "- N/A -   "
0.73, 28.42534, 0.00132173, NaN, NaN, NaN, 0.0396753, "- N/A -   "
0.75, 28.7792, 0.00135228, NaN, NaN, NaN, 0.04089605, "- N/A -   "
0.77, 29.133, 0.00138005, NaN, NaN, NaN, 0.0433376, "- N/A -   "
0.79, 29.4869, 0.00141337, NaN, NaN, NaN, 0.0445584, "- N/A -   "
0.81, 29.84071, 0.001443911, NaN, NaN, NaN, 0.0445584, "- N/A -   "
0.83, 30.1946, 0.001477232, NaN, NaN, NaN, 0.0445584, "- N/A -   "
0.85, 30.5484, 0.001510553, NaN, NaN, NaN, 0.04577916, "- N/A -   "
0.87, 31.0202, 0.001543874, NaN, NaN, NaN, 0.0445584, "- N/A -   "
0.89, 31.492, 0.00157997, NaN, NaN, NaN, 0.0433376, "- N/A -   "
0.91, 31.9638, 0.00161885, NaN, NaN, NaN, 0.04089605, "- N/A -   "
0.93, 32.5535, 0.00165772, NaN, NaN, NaN, 0.0384545, "- N/A -   "
0.95, 32.9073, 0.00169382, NaN, NaN, NaN, 0.0372337, "- N/A -   "
0.97, 33.2612, 0.00172992, NaN, NaN, NaN, 0.0372337, "- N/A -   "
0.99, 33.73298, 0.00176324, NaN, NaN, NaN, 0.03601294, "- N/A -   "
1.01, 34.08682, 0.00179934, NaN, NaN, NaN, 0.0347922, "- N/A -   "
1.03, 34.55861, 0.001835433, NaN, NaN, NaN, 0.0335714, "- N/A -   "
1.05, 35.0304, 0.00186875, NaN, NaN, NaN, 0.0335714, "- N/A -   "
1.07, 35.50219, 0.001902075, NaN, NaN, NaN, 0.0335714, "- N/A -   "
1.09, 35.97398, 0.00193817, NaN, NaN, NaN, 0.0323506, "- N/A -   "
1.11, 36.44577, 0.00197705, NaN, NaN, NaN, 0.0299091, "- N/A -   "
1.13, 36.9176, 0.002013145, NaN, NaN, NaN, 0.0286883, "- N/A -   "
1.15, 37.3893, 0.002046466, NaN, NaN, NaN, 0.0286883, "- N/A -   "
1.17, 37.8611, 0.002082564, NaN, NaN, NaN, 0.0286883, "- N/A -   "
1.19, 38.3329, 0.00211866, NaN, NaN, NaN, 0.0274675, "- N/A -   "
1.21, 38.8047, 0.002149206, NaN, NaN, NaN, 0.0274675, "- N/A -   "
1.23, 39.04061, 0.002182527, NaN, NaN, NaN, 0.0274675, "- N/A -   "
1.25, 39.6304, 0.00221862, NaN, NaN, NaN, 0.0274675, "- N/A -   "
1.27, 39.98419, 0.00224639, NaN, NaN, NaN, 0.0286883, "- N/A -   "
1.29, 40.33803, 0.00227694, NaN, NaN, NaN, 0.03112983, "- N/A -   "
1.31, 40.69188, 0.00230193, NaN, NaN, NaN, 0.0335714, "- N/A -   "
1.33, 41.04572, 0.00232969, NaN, NaN, NaN, 0.03601294, "- N/A -   "
1.35, 41.39956, 0.00235746, NaN, NaN, NaN, 0.0384545, "- N/A -   "
1.37, 41.8714, 0.00238523, NaN, NaN, NaN, 0.04089605, "- N/A -   "
1.39, 42.2252, 0.00241577, NaN, NaN, NaN, 0.04211683, "- N/A -   "
1.41, 42.697, 0.00244632, NaN, NaN, NaN, 0.0433376, "- N/A -   "
1.43, 43.1688, 0.00247964, NaN, NaN, NaN, 0.0433376, "- N/A -   "
1.45, 43.6406, 0.00251296, NaN, NaN, NaN, 0.0433376, "- N/A -   "
1.47, 44.2303, 0.00254906, NaN, NaN, NaN, 0.0433376, "- N/A -   "
1.49, 44.70209, 0.00258238, NaN, NaN, NaN, 0.04211683, "- N/A -   "
1.51, 45.05593, 0.00261292, NaN, NaN, NaN, 0.0433376, "- N/A -   "
1.53, 45.6457, 0.00264624, NaN, NaN, NaN, 0.0445584, "- N/A -   "
1.55, 45.9995, 0.00267679, NaN, NaN, NaN, 0.0445584, "- N/A -   "
1.57, 46.3534, 0.00270733, NaN, NaN, NaN, 0.04577916, "- N/A -   "
1.59, 47.061, 0.002743431, NaN, NaN, NaN, 0.0445584, "- N/A -   "
1.61, 47.65078, 0.00277953, NaN, NaN, NaN, 0.0433376, "- N/A -   "
1.63, 48.12257, 0.00281563, NaN, NaN, NaN, 0.04211683, "- N/A -   "
1.65, 48.7123, 0.002854501, NaN, NaN, NaN, 0.04089605, "- N/A -   "
1.67, 49.41999, 0.0028906, NaN, NaN, NaN, 0.0384545, "- N/A -   "
1.69, 50.0097, 0.00293225, NaN, NaN, NaN, 0.0347922, "- N/A -   "
1.71, 50.5995, 0.00297112, NaN, NaN, NaN, 0.0323506, "- N/A -   "
1.73, 51.1892, 0.003007222, NaN, NaN, NaN, 0.03112983, "- N/A -   "
1.75, 51.7789, 0.00304332, NaN, NaN, NaN, 0.0299091, "- N/A -   "
1.77, 52.25073, 0.00307664, NaN, NaN, NaN, 0.0299091, "- N/A -   "
1.79, 52.84047, 0.003109962, NaN, NaN, NaN, 0.0299091, "- N/A -   "
1.81, 53.3123, 0.00314606, NaN, NaN, NaN, 0.0286883, "- N/A -   "
1.83, 53.902, 0.0031766, NaN, NaN, NaN, 0.0299091, "- N/A -   "
1.85, 54.4917, 0.003209925, NaN, NaN, NaN, 0.03112983, "- N/A -   "
1.87, 54.9635, 0.00323769, NaN, NaN, NaN, 0.0323506, "- N/A -   "
1.89, 55.3174, 0.00326546, NaN, NaN, NaN, 0.0347922, "- N/A -   "
1.91, 55.9071, 0.003298781, NaN, NaN, NaN, 0.0347922, "- N/A -   "
1.93, 56.4968, 0.0033321, NaN, NaN, NaN, 0.03601294, "- N/A -   "
1.95, 57.08658, 0.00336265, NaN, NaN, NaN, 0.0372337, "- N/A -   "
1.97, 57.5584, 0.00339041, NaN, NaN, NaN, 0.0384545, "- N/A -   "
1.99, 58.0302, 0.003423735, NaN, NaN, NaN, 0.0384545, "- N/A -   "
2.01, 58.7378, 0.003459833, NaN, NaN, NaN, 0.0372337, "- N/A -   "
2.03, 59.3276, 0.00349593, NaN, NaN, NaN, 0.03601294, "- N/A -   "
2.05, 59.79937, 0.00352925, NaN, NaN, NaN, 0.0372337, "- N/A -   "
2.07, 60.3891, 0.0035598, NaN, NaN, NaN, 0.0384545, "- N/A -   "
2.09, 60.97884, 0.00359034, NaN, NaN, NaN, 0.0384545, "- N/A -   "
2.11, 61.56858, 0.00362088, NaN, NaN, NaN, 0.0396753, "- N/A -   "
2.13, 61.9224, 0.00365143, NaN, NaN, NaN, 0.04211683, "- N/A -   "
2.15, 62.5122, 0.0036792, NaN, NaN, NaN, 0.0433376, "- N/A -   "
2.17, 63.1019, 0.00371252, NaN, NaN, NaN, 0.0433376, "- N/A -   "
2.19, 63.5737, 0.00374306, NaN, NaN, NaN, 0.0445584, "- N/A -   "
2.21, 64.16342, 0.00377361, NaN, NaN, NaN, 0.04577916, "- N/A -   "
2.23, 64.6352, 0.00380693, NaN, NaN, NaN, 0.04699994, "- N/A -   "
2.25, 65.3429, 0.00384025, NaN, NaN, NaN, 0.04577916, "- N/A -   "
2.27, 66.05058, 0.00387912, NaN, NaN, NaN, 0.0433376, "- N/A -   "
2.29, 66.75827, 0.003917997, NaN, NaN, NaN, 0.04089605, "- N/A -   "
2.31, 67.46596, 0.00395965, NaN, NaN, NaN, 0.0372337, "- N/A -   "
2.33, 68.17364, 0.0040013, NaN, NaN, NaN, 0.0347922, "- N/A -   "
2.35, 68.7634, 0.0040374, NaN, NaN, NaN, 0.0323506, "- N/A -   "
2.37, 69.47106, 0.00407349, NaN, NaN, NaN, 0.03112983, "- N/A -   "
2.39, 70.0608, 0.00411237, NaN, NaN, NaN, 0.0286883, "- N/A -   "
2.41, 70.7685, 0.00414569, NaN, NaN, NaN, 0.0286883, "- N/A -   "
2.43, 71.24027, 0.00417901, NaN, NaN, NaN, 0.0299091, "- N/A -   "
2.45, 71.83001, 0.00420956, NaN, NaN, NaN, 0.03112983, "- N/A -   "
2.47, 72.41975, 0.00423732, NaN, NaN, NaN, 0.0323506, "- N/A -   "
2.49, 72.89154, 0.00426787, NaN, NaN, NaN, 0.0335714, "- N/A -   "
2.51, 73.48127, 0.004298412, NaN, NaN, NaN, 0.0347922, "- N/A -   "
2.53, 74.071, 0.00433173, NaN, NaN, NaN, 0.0347922, "- N/A -   "
2.55, 74.66075, 0.004365054, NaN, NaN, NaN, 0.0347922, "- N/A -   "
2.57, 75.25049, 0.00440115, NaN, NaN, NaN, 0.0335714, "- N/A -   "
2.59, 75.95817, 0.00443725, NaN, NaN, NaN, 0.0323506, "- N/A -   "
2.61, 76.6659, 0.004473347, NaN, NaN, NaN, 0.0323506, "- N/A -   "
2.63, 77.13765, 0.004506668, NaN, NaN, NaN, 0.0323506, "- N/A -   "
2.65, 77.72738, 0.00453721, NaN, NaN, NaN, 0.0323506, "- N/A -   "
2.67, 78.31712, 0.004567757, NaN, NaN, NaN, 0.0335714, "- N/A -   "
2.69, 78.90686, 0.004598301, NaN, NaN, NaN, 0.0347922, "- N/A -   "
2.71, 79.37865, 0.00462607, NaN, NaN, NaN, 0.0372337, "- N/A -   "
2.73, 79.85043, 0.004656613, NaN, NaN, NaN, 0.0396753, "- N/A -   "
2.75, 80.44018, 0.00468438, NaN, NaN, NaN, 0.04089605, "- N/A -   "
2.77, 81.0299, 0.004714925, NaN, NaN, NaN, 0.04211683, "- N/A -   "
2.79, 81.5017, 0.004745469, NaN, NaN, NaN, 0.0433376, "- N/A -   "
2.81, 82.09144, 0.004781567, NaN, NaN, NaN, 0.0433376, "- N/A -   "
2.83, 82.79912, 0.004817664, NaN, NaN, NaN, 0.04211683, "- N/A -   "
2.85, 83.50681, 0.004853762, NaN, NaN, NaN, 0.0396753, "- N/A -   "
2.87, 84.21449, 0.00488986, NaN, NaN, NaN, 0.0384545, "- N/A -   "
2.89, 84.68629, 0.004923181, NaN, NaN, NaN, 0.0384545, "- N/A -   "
2.91, 85.39397, 0.004956502, NaN, NaN, NaN, 0.0384545, "- N/A -   "
2.93, 85.9837, 0.00498982, NaN, NaN, NaN, 0.0384545, "- N/A -   "
2.95, 86.57345, 0.005023144, NaN, NaN, NaN, 0.0384545, "- N/A -   "
2.97, 87.16318, 0.005056465, NaN, NaN, NaN, 0.0384545, "- N/A -   "
2.99, 87.8709, 0.005092563, NaN, NaN, NaN, 0.0372337, "- N/A -   "
3.01, 88.57855, 0.00513144, NaN, NaN, NaN, 0.03601294, "- N/A -   "
3.03, 89.16828, 0.00516476, NaN, NaN, NaN, 0.03601294, "- N/A -   "
3.05, 89.87598, 0.005198079, NaN, NaN, NaN, 0.0347922, "- N/A -   "
3.07, 90.4657, 0.005234177, NaN, NaN, NaN, 0.0347922, "- N/A -   "
3.09, 90.9375, 0.00526472, NaN, NaN, NaN, 0.03601294, "- N/A -   "
3.11, 91.64519, 0.00529804, NaN, NaN, NaN, 0.0347922, "- N/A -   "
3.13, 92.35287, 0.00533414, NaN, NaN, NaN, 0.0335714, "- N/A -   "
3.15, 93.0606, 0.00537024, NaN, NaN, NaN, 0.0323506, "- N/A -   "
3.17, 93.65029, 0.00540634, NaN, NaN, NaN, 0.0323506, "- N/A -   "
3.19, 94.24, 0.00543688, NaN, NaN, NaN, 0.0323506, "- N/A -   "
3.21, 94.8298, 0.0054702, NaN, NaN, NaN, 0.0323506, "- N/A -   "
3.23, 95.41951, 0.005503522, NaN, NaN, NaN, 0.0323506, "- N/A -   "
3.25, 96.00924, 0.00553684, NaN, NaN, NaN, 0.0323506, "- N/A -   "
3.27, 96.71693, 0.00556739, NaN, NaN, NaN, 0.0335714, "- N/A -   "
3.29, 97.30666, 0.005597932, NaN, NaN, NaN, 0.0347922, "- N/A -   "
3.31, 97.8964, 0.00563125, NaN, NaN, NaN, 0.03601294, "- N/A -   "
3.33, 98.60408, 0.00566457, NaN, NaN, NaN, 0.03601294, "- N/A -   "
3.35, 99.0759, 0.00569512, NaN, NaN, NaN, 0.03601294, "- N/A -   "
3.37, 99.66561, 0.00572844, NaN, NaN, NaN, 0.03601294, "- N/A -   "
3.39, 100.3733, 0.00576176, NaN, NaN, NaN, 0.03601294, "- N/A -   "
3.41, 101.199, 0.005797858, NaN, NaN, NaN, 0.0347922, "- N/A -   "
3.43, 101.671, 0.00583396, NaN, NaN, NaN, 0.0347922, "- N/A -   "
3.45, 102.3784, 0.0058645, NaN, NaN, NaN, 0.0347922, "- N/A -   "
3.47, 102.968, 0.00589504, NaN, NaN, NaN, 0.03601294, "- N/A -   "
3.49, 103.558, 0.005925589, NaN, NaN, NaN, 0.0372337, "- N/A -   "
3.51, 104.148, 0.005956133, NaN, NaN, NaN, 0.0384545, "- N/A -   "
3.53, 104.737, 0.005986677, NaN, NaN, NaN, 0.0396753, "- N/A -   "
3.55, 105.327, 0.00601722, NaN, NaN, NaN, 0.04089605, "- N/A -   "
3.57, 105.917, 0.00605054, NaN, NaN, NaN, 0.04211683, "- N/A -   "
3.59, 106.389, 0.00607831, NaN, NaN, NaN, 0.0433376, "- N/A -   "
3.61, 107.0963, 0.006108854, NaN, NaN, NaN, 0.0445584, "- N/A -   "
3.63, 107.686, 0.006142175, NaN, NaN, NaN, 0.04577916, "- N/A -   "
3.65, 108.512, 0.00618105, NaN, NaN, NaN, 0.0433376, "- N/A -   "
3.67, 109.219, 0.006219924, NaN, NaN, NaN, 0.04089605, "- N/A -   "
3.69, 110.045, 0.006256022, NaN, NaN, NaN, 0.0396753, "- N/A -   "
3.71, 110.753, 0.00629212, NaN, NaN, NaN, 0.0384545, "- N/A -   "
3.73, 111.46, 0.006330994, NaN, NaN, NaN, 0.03601294, "- N/A -   "
3.75, 112.286, 0.00636987, NaN, NaN, NaN, 0.0347922, "- N/A -   "
3.77, 112.994, 0.00640319, NaN, NaN, NaN, 0.0335714, "- N/A -   "
3.79, 113.701, 0.006436511, NaN, NaN, NaN, 0.0335714, "- N/A -   "
3.81, 114.2911, 0.006467055, NaN, NaN, NaN, 0.0347922, "- N/A -   "
3.83, 114.999, 0.006500376, NaN, NaN, NaN, 0.0347922, "- N/A -   "
3.85, 115.589, 0.0065337, NaN, NaN, NaN, 0.0347922, "- N/A -   "
3.87, 116.178, 0.006567018, NaN, NaN, NaN, 0.03601294, "- N/A -   "
3.89, 116.886, 0.006597562, NaN, NaN, NaN, 0.03601294, "- N/A -   "
3.91, 117.594, 0.00663366, NaN, NaN, NaN, 0.03601294, "- N/A -   "
3.93, 118.183, 0.00666976, NaN, NaN, NaN, 0.0347922, "- N/A -   "
3.95, 119.127, 0.006705856, NaN, NaN, NaN, 0.0323506, "- N/A -   "
3.97, 119.953, 0.00674473, NaN, NaN, NaN, 0.0299091, "- N/A -   "
3.99, 120.66, 0.00678083, NaN, NaN, NaN, 0.0286883, "- N/A -   "
4.01, 121.368, 0.006814149, NaN, NaN, NaN, 0.0286883, "- N/A -   "
4.03, 121.958, 0.00684747, NaN, NaN, NaN, 0.0286883, "- N/A -   "
4.05, 122.665, 0.006878014, NaN, NaN, NaN, 0.0299091, "- N/A -   "
4.07, 123.255, 0.00690856, NaN, NaN, NaN, 0.03112983, "- N/A -   "
4.09, 123.845, 0.006936326, NaN, NaN, NaN, 0.0335714, "- N/A -   "
4.11, 124.435, 0.00696687, NaN, NaN, NaN, 0.0347922, "- N/A -   "
4.13, 124.788, 0.00698908, NaN, NaN, NaN, 0.0396753, "- N/A -   "
4.15, 125.378, 0.007016852, NaN, NaN, NaN, 0.0433376, "- N/A -   "
4.17, 125.85, 0.00704462, NaN, NaN, NaN, 0.04577916, "- N/A -   "
4.19, 126.558, 0.007075164, NaN, NaN, NaN, 0.04699994, "- N/A -   "
4.21, 127.265, 0.007105708, NaN, NaN, NaN, 0.04699994, "- N/A -   "
4.23, 128.091, 0.00713903, NaN, NaN, NaN, 0.04699994, "- N/A -   "
4.25, 128.6807, 0.00717235, NaN, NaN, NaN, 0.04699994, "- N/A -   "
4.27, 129.388, 0.00720845, NaN, NaN, NaN, 0.04577916, "- N/A -   "
4.29, 130.214, 0.00724455, NaN, NaN, NaN, 0.04577916, "- N/A -   "
4.31, 131.04, 0.007277867, NaN, NaN, NaN, 0.0445584, "- N/A -   "
4.33, 131.629, 0.00731396, NaN, NaN, NaN, 0.0433376, "- N/A -   "
4.35, 132.573, 0.007352839, NaN, NaN, NaN, 0.04211683, "- N/A -   "
4.37, 133.281, 0.007388937, NaN, NaN, NaN, 0.0396753, "- N/A -   "
4.39, 134.224, 0.00742503, NaN, NaN, NaN, 0.0384545, "- N/A -   "
4.41, 134.932, 0.007466686, NaN, NaN, NaN, 0.03601294, "- N/A -   "
4.43, 135.64, 0.007500007, NaN, NaN, NaN, 0.0347922, "- N/A -   "
4.45, 136.465, 0.00753333, NaN, NaN, NaN, 0.0347922, "- N/A -   "
4.47, 137.173, 0.007566649, NaN, NaN, NaN, 0.0347922, "- N/A -   "
4.49, 137.999, 0.00760275, NaN, NaN, NaN, 0.0335714, "- N/A -   "
4.51, 138.942, 0.0076444, NaN, NaN, NaN, 0.0299091, "- N/A -   "
4.53, 139.65, 0.0076805, NaN, NaN, NaN, 0.0286883, "- N/A -   "
4.55, 140.475, 0.007716594, NaN, NaN, NaN, 0.0274675, "- N/A -   "
4.57, 141.183, 0.00774991, NaN, NaN, NaN, 0.0274675, "- N/A -   "
4.59, 142.009, 0.007783236, NaN, NaN, NaN, 0.0274675, "- N/A -   "
4.61, 142.5985, 0.007816557, NaN, NaN, NaN, 0.0274675, "- N/A -   "
4.63, 143.306, 0.007849878, NaN, NaN, NaN, 0.0286883, "- N/A -   "
4.65, 144.014, 0.007880422, NaN, NaN, NaN, 0.0286883, "- N/A -   "
4.67, 144.722, 0.007910966, NaN, NaN, NaN, 0.0299091, "- N/A -   "
4.69, 145.311, 0.007938734, NaN, NaN, NaN, 0.0323506, "- N/A -   "
4.71, 146.137, 0.007969278, NaN, NaN, NaN, 0.0335714, "- N/A -   "
4.73, 146.6087, 0.00799982, NaN, NaN, NaN, 0.0347922, "- N/A -   "
4.75, 147.316, 0.008030367, NaN, NaN, NaN, 0.0372337, "- N/A -   "
4.77, 147.906, 0.00805813, NaN, NaN, NaN, 0.0384545, "- N/A -   "
4.79, 148.6138, 0.008088678, NaN, NaN, NaN, 0.0396753, "- N/A -   "
4.81, 149.3215, 0.008119223, NaN, NaN, NaN, 0.04211683, "- N/A -   "
4.83, 149.911, 0.008149767, NaN, NaN, NaN, 0.0433376, "- N/A -   "
4.85, 150.619, 0.008180311, NaN, NaN, NaN, 0.0433376, "- N/A -   "
4.87, 151.209, 0.008210856, NaN, NaN, NaN, 0.0445584, "- N/A -   "
4.89, 152.152, 0.008244176, NaN, NaN, NaN, 0.0445584, "- N/A -   "
4.91, 152.978, 0.008277497, NaN, NaN, NaN, 0.0445584, "- N/A -   "
4.93, 153.568, 0.008308042, NaN, NaN, NaN, 0.04577916, "- N/A -   "
4.95, 154.2753, 0.008341363, NaN, NaN, NaN, 0.04699994, "- N/A -   "
4.97, 154.983, 0.008371907, NaN, NaN, NaN, 0.04699994, "- N/A -   "
4.99, 155.809, 0.008408005, NaN, NaN, NaN, 0.04577916, "- N/A -   "
5.01, 156.87, 0.00844688, NaN, NaN, NaN, 0.0433376, "- N/A -   "
5.03, 157.46, 0.008482977, NaN, NaN, NaN, 0.04211683, "- N/A -   "
5.05, 158.403, 0.008519075, NaN, NaN, NaN, 0.04089605, "- N/A -   "
5.07, 159.229, 0.008557949, NaN, NaN, NaN, 0.0384545, "- N/A -   "
5.09, 160.2906, 0.00859682, NaN, NaN, NaN, 0.03601294, "- N/A -   "
5.11, 161.116, 0.008641252, NaN, NaN, NaN, 0.0323506, "- N/A -   "
5.13, 161.942, 0.008677349, NaN, NaN, NaN, 0.0299091, "- N/A -   "
5.15, 162.768, 0.00871067, NaN, NaN, NaN, 0.0299091, "- N/A -   "
5.17, 163.475, 0.008743991, NaN, NaN, NaN, 0.0299091, "- N/A -   "
5.19, 164.301, 0.008777313, NaN, NaN, NaN, 0.0299091, "- N/A -   "
5.21, 165.126, 0.008810634, NaN, NaN, NaN, 0.0299091, "- N/A -   "
5.23, 165.7162, 0.008843955, NaN, NaN, NaN, 0.0299091, "- N/A -   "
5.25, 166.424, 0.008874499, NaN, NaN, NaN, 0.03112983, "- N/A -   "
5.27, 167.132, 0.00890782, NaN, NaN, NaN, 0.0323506, "- N/A -   "
5.29, 167.9572, 0.008938365, NaN, NaN, NaN, 0.0323506, "- N/A -   "
5.31, 168.665, 0.008974463, NaN, NaN, NaN, 0.0323506, "- N/A -   "
5.33, 169.373, 0.009005006, NaN, NaN, NaN, 0.0323506, "- N/A -   "
5.35, 170.08, 0.009038327, NaN, NaN, NaN, 0.0323506, "- N/A -   "
5.37, 170.788, 0.009071649, NaN, NaN, NaN, 0.0335714, "- N/A -   "
5.39, 171.614, 0.009102193, NaN, NaN, NaN, 0.0335714, "- N/A -   "
5.41, 172.4392, 0.009135514, NaN, NaN, NaN, 0.0335714, "- N/A -   "
5.43, 173.1469, 0.009168834, NaN, NaN, NaN, 0.0335714, "- N/A -   "
5.45, 173.737, 0.009199379, NaN, NaN, NaN, 0.0347922, "- N/A -   "
5.47, 174.4443, 0.009229924, NaN, NaN, NaN, 0.03601294, "- N/A -   "
5.49, 175.034, 0.009257691, NaN, NaN, NaN, 0.0384545, "- N/A -   "
5.51, 175.624, 0.009288235, NaN, NaN, NaN, 0.04089605, "- N/A -   "
5.53, 176.331, 0.009316003, NaN, NaN, NaN, 0.0433376, "- N/A -   "
5.55, 176.9212, 0.00934377, NaN, NaN, NaN, 0.0445584, "- N/A -   "
5.57, 177.629, 0.009377091, NaN, NaN, NaN, 0.0445584, "- N/A -   "
5.59, 178.337, 0.009410412, NaN, NaN, NaN, 0.04577916, "- N/A -   "
5.61, 179.162, 0.009440957, NaN, NaN, NaN, 0.04577916, "- N/A -   "
5.63, 179.988, 0.009477054, NaN, NaN, NaN, 0.0445584, "- N/A -   "
5.65, 180.696, 0.009513152, NaN, NaN, NaN, 0.0433376, "- N/A -   "
5.67, 181.521, 0.00954925, NaN, NaN, NaN, 0.04211683, "- N/A -   "
5.69, 182.465, 0.009588124, NaN, NaN, NaN, 0.0396753, "- N/A -   "
5.71, 183.29, 0.009626999, NaN, NaN, NaN, 0.0372337, "- N/A -   "
5.73, 184.116, 0.009663097, NaN, NaN, NaN, 0.03601294, "- N/A -   "
5.75, 184.824, 0.009699194, NaN, NaN, NaN, 0.0347922, "- N/A -   "
5.77, 185.649, 0.009738068, NaN, NaN, NaN, 0.0323506, "- N/A -   "
5.79, 186.593, 0.009774166, NaN, NaN, NaN, 0.03112983, "- N/A -   "
5.81, 187.301, 0.009807487, NaN, NaN, NaN, 0.03112983, "- N/A -   "
5.83, 187.89, 0.009840809, NaN, NaN, NaN, 0.03112983, "- N/A -   "
5.85, 188.598, 0.009874129, NaN, NaN, NaN, 0.03112983, "- N/A -   "
5.87, 189.3057, 0.009904673, NaN, NaN, NaN, 0.0323506, "- N/A -   "
5.89, 189.895, 0.009932441, NaN, NaN, NaN, 0.0347922, "- N/A -   "
5.91, 190.485, 0.00996576, NaN, NaN, NaN, 0.0347922, "- N/A -   "
5.93, 191.193, 0.009999082, NaN, NaN, NaN, 0.0347922, "- N/A -   "
5.95, 191.901, 0.0100324, NaN, NaN, NaN, 0.0347922, "- N/A -   "
5.97, 192.608, 0.0100657, NaN, NaN, NaN, 0.03601294, "- N/A -   "
5.99, 193.3159, 0.010099, NaN, NaN, NaN, 0.0347922, "- N/A -   "
6.01, 194.142, 0.0101351, NaN, NaN, NaN, 0.0335714, "- N/A -   "
6.03, 194.849, 0.0101685, NaN, NaN, NaN, 0.0335714, "- N/A -   "
6.05, 195.5569, 0.0102018, NaN, NaN, NaN, 0.0335714, "- N/A -   "
6.07, 196.265, 0.0102379, NaN, NaN, NaN, 0.0335714, "- N/A -   "
6.09, 196.972, 0.0102684, NaN, NaN, NaN, 0.0335714, "- N/A -   "
6.11, 197.68, 0.010299, NaN, NaN, NaN, 0.0347922, "- N/A -   "
6.13, 198.27, 0.0103295, NaN, NaN, NaN, 0.03601294, "- N/A -   "
6.15, 198.977, 0.0103628, NaN, NaN, NaN, 0.0372337, "- N/A -   "
6.17, 199.449, 0.0103906, NaN, NaN, NaN, 0.0396753, "- N/A -   "
6.19, 200.157, 0.0104184, NaN, NaN, NaN, 0.04089605, "- N/A -   "
6.21, 200.865, 0.0104489, NaN, NaN, NaN, 0.04211683, "- N/A -   "
6.23, 201.454, 0.0104822, NaN, NaN, NaN, 0.04211683, "- N/A -   "
6.25, 202.398, 0.0105211, NaN, NaN, NaN, 0.04089605, "- N/A -   "
6.27, 202.9876, 0.0105544, NaN, NaN, NaN, 0.0396753, "- N/A -   "
6.29, 203.813, 0.0105878, NaN, NaN, NaN, 0.0396753, "- N/A -   "
6.31, 204.521, 0.0106211, NaN, NaN, NaN, 0.0396753, "- N/A -   "
6.33, 205.2286, 0.0106544, NaN, NaN, NaN, 0.0396753, "- N/A -   "
6.35, 206.054, 0.0106877, NaN, NaN, NaN, 0.0396753, "- N/A -   "
6.37, 206.88, 0.0107266, NaN, NaN, NaN, 0.0384545, "- N/A -   "
6.39, 207.4696, 0.01076269, NaN, NaN, NaN, 0.0372337, "- N/A -   "
6.41, 208.177, 0.0107932, NaN, NaN, NaN, 0.0372337, "- N/A -   "
6.43, 209.003, 0.0108266, NaN, NaN, NaN, 0.0372337, "- N/A -   "
6.45, 209.711, 0.0108654, NaN, NaN, NaN, 0.03601294, "- N/A -   "
6.47, 210.536, 0.0108988, NaN, NaN, NaN, 0.03601294, "- N/A -   "
6.49, 211.126, 0.0109293, NaN, NaN, NaN, 0.03601294, "- N/A -   "
6.51, 211.716, 0.0109598, NaN, NaN, NaN, 0.0372337, "- N/A -   "
6.53, 212.541, 0.0109959, NaN, NaN, NaN, 0.0372337, "- N/A -   "
6.55, 213.249, 0.0110293, NaN, NaN, NaN, 0.0372337, "- N/A -   "
6.57, 214.075, 0.0110626, NaN, NaN, NaN, 0.03601294, "- N/A -   "
6.59, 214.782, 0.0110987, NaN, NaN, NaN, 0.0347922, "- N/A -   "
6.61, 215.608, 0.0111348, NaN, NaN, NaN, 0.0335714, "- N/A -   "
6.63, 216.198, 0.0111709, NaN, NaN, NaN, 0.0335714, "- N/A -   "
6.65, 216.905, 0.0112042, NaN, NaN, NaN, 0.0335714, "- N/A -   "
6.67, 217.731, 0.0112375, NaN, NaN, NaN, 0.0335714, "- N/A -   "
6.69, 218.4387, 0.0112708, NaN, NaN, NaN, 0.0323506, "- N/A -   "
6.71, 219.1464, 0.0113042, NaN, NaN, NaN, 0.0323506, "- N/A -   "
6.73, 219.8541, 0.0113403, NaN, NaN, NaN, 0.03112983, "- N/A -   "
6.75, 220.562, 0.0113764, NaN, NaN, NaN, 0.03112983, "- N/A -   "
6.77, 221.269, 0.0114097, NaN, NaN, NaN, 0.0299091, "- N/A -   "
6.79, 221.977, 0.011443, NaN, NaN, NaN, 0.0299091, "- N/A -   "
6.81, 222.685, 0.0114763, NaN, NaN, NaN, 0.0299091, "- N/A -   "
6.83, 223.3925, 0.0115096, NaN, NaN, NaN, 0.03112983, "- N/A -   "
6.85, 223.8643, 0.01154018, NaN, NaN, NaN, 0.0323506, "- N/A -   "
6.87, 224.454, 0.0115679, NaN, NaN, NaN, 0.0347922, "- N/A -   "
6.89, 225.044, 0.0115929, NaN, NaN, NaN, 0.0372337, "- N/A -   "
6.91, 225.516, 0.0116207, NaN, NaN, NaN, 0.0396753, "- N/A -   "
6.93, 226.1053, 0.01165125, NaN, NaN, NaN, 0.04211683, "- N/A -   "
6.95, 226.813, 0.0116818, NaN, NaN, NaN, 0.04211683, "- N/A -   "
6.97, 227.757, 0.0117151, NaN, NaN, NaN, 0.04211683, "- N/A -   "
6.99, 228.228, 0.01174566, NaN, NaN, NaN, 0.0433376, "- N/A -   "
7.01, 228.936, 0.0117762, NaN, NaN, NaN, 0.0445584, "- N/A -   "
7.03, 229.526, 0.0118095, NaN, NaN, NaN, 0.0445584, "- N/A -   "
7.05, 230.351, 0.0118428, NaN, NaN, NaN, 0.0445584, "- N/A -   "
7.07, 231.0591, 0.0118762, NaN, NaN, NaN, 0.0445584, "- N/A -   "
7.09, 231.649, 0.0119095, NaN, NaN, NaN, 0.0433376, "- N/A -   "
7.11, 232.592, 0.0119456, NaN, NaN, NaN, 0.0433376, "- N/A -   "
7.13, 233.3001, 0.01198446, NaN, NaN, NaN, 0.04211683, "- N/A -   "
7.15, 234.008, 0.0120206, NaN, NaN, NaN, 0.0396753, "- N/A -   "
7.17, 234.833, 0.0120594, NaN, NaN, NaN, 0.0372337, "- N/A -   "
7.19, 235.777, 0.0120983, NaN, NaN, NaN, 0.0347922, "- N/A -   "
7.21, 236.603, 0.0121372, NaN, NaN, NaN, 0.0335714, "- N/A -   "
7.23, 237.192, 0.0121705, NaN, NaN, NaN, 0.0335714, "- N/A -   "
7.25, 238.018, 0.0122066, NaN, NaN, NaN, 0.0323506, "- N/A -   "
7.27, 238.844, 0.0122399, NaN, NaN, NaN, 0.03112983, "- N/A -   "
7.29, 239.433, 0.0122732, NaN, NaN, NaN, 0.03112983, "- N/A -   "
7.31, 240.141, 0.0123066, NaN, NaN, NaN, 0.03112983, "- N/A -   "
7.33, 240.967, 0.0123427, NaN, NaN, NaN, 0.03112983, "- N/A -   "
7.35, 241.556, 0.01237876, NaN, NaN, NaN, 0.0299091, "- N/A -   "
7.37, 242.2641, 0.0124121, NaN, NaN, NaN, 0.0286883, "- N/A -   "
7.39, 243.207, 0.0124482, NaN, NaN, NaN, 0.0274675, "- N/A -   "
7.41, 243.914, 0.0124815, NaN, NaN, NaN, 0.0274675, "- N/A -   "
7.43, 244.503, 0.01251482, NaN, NaN, NaN, 0.0274675, "- N/A -   "
7.45, 245.092, 0.0125454, NaN, NaN, NaN, 0.0286883, "- N/A -   "
7.47, 245.6813, 0.0125731, NaN, NaN, NaN, 0.03112983, "- N/A -   "
7.49, 246.388, 0.0126037, NaN, NaN, NaN, 0.0323506, "- N/A -   "
7.51, 247.095, 0.0126342, NaN, NaN, NaN, 0.0335714, "- N/A -   "
7.53, 247.567, 0.0126648, NaN, NaN, NaN, 0.0347922, "- N/A -   "
7.55, 248.038, 0.0126898, NaN, NaN, NaN, 0.0384545, "- N/A -   "
7.57, 248.627, 0.0127203, NaN, NaN, NaN, 0.0396753, "- N/A -   "
7.59, 249.216, 0.0127481, NaN, NaN, NaN, 0.0433376, "- N/A -   "
7.61, 249.805, 0.0127758, NaN, NaN, NaN, 0.0445584, "- N/A -   "
7.63, 250.512, 0.0128064, NaN, NaN, NaN, 0.04577916, "- N/A -   "
7.65, 251.101, 0.0128397, NaN, NaN, NaN, 0.04577916, "- N/A -   "
7.67, 251.808, 0.012873, NaN, NaN, NaN, 0.04577916, "- N/A -   "
7.69, 252.515, 0.0129063, NaN, NaN, NaN, 0.04577916, "- N/A -   "
7.71, 253.34, 0.01294244, NaN, NaN, NaN, 0.0445584, "- N/A -   "
7.73, 254.165, 0.0129813, NaN, NaN, NaN, 0.04211683, "- N/A -   "
7.75, 254.872, 0.0130174, NaN, NaN, NaN, 0.04089605, "- N/A -   "
7.77, 255.697, 0.01305351, NaN, NaN, NaN, 0.0396753, "- N/A -   "
7.79, 256.403, 0.0130896, NaN, NaN, NaN, 0.0384545, "- N/A -   "
7.81, 257.228, 0.0131285, NaN, NaN, NaN, 0.0372337, "- N/A -   "
7.83, 258.053, 0.0131646, NaN, NaN, NaN, 0.0347922, "- N/A -   "
7.85, 258.76, 0.0132007, NaN, NaN, NaN, 0.0335714, "- N/A -   "
7.87, 259.585, 0.013234, NaN, NaN, NaN, 0.0335714, "- N/A -   "
7.89, 260.174, 0.0132701, NaN, NaN, NaN, 0.0323506, "- N/A -   "
7.91, 260.8809, 0.0133034, NaN, NaN, NaN, 0.0323506, "- N/A -   "
7.93, 261.588, 0.0133367, NaN, NaN, NaN, 0.0323506, "- N/A -   "
7.95, 262.4126, 0.0133728, NaN, NaN, NaN, 0.03112983, "- N/A -   "
7.97, 263.2374, 0.0134117, NaN, NaN, NaN, 0.0299091, "- N/A -   "
7.99, 263.8265, 0.013445, NaN, NaN, NaN, 0.0286883, "- N/A -   "
8, 264.18, 0.0134645, NaN, NaN, NaN, 0.0286883, "- N/A -   "
8.01, 264.6513, 0.0134811, NaN, NaN, NaN, 0.0274675, "- N/A -   "
8.02, 265.0048, 0.01349779, NaN, NaN, NaN, 0.0274675, "- N/A -   "
8.03, 265.358, 0.0135172, NaN, NaN, NaN, 0.0274675, "- N/A -   "
8.04, 265.712, 0.0135339, NaN, NaN, NaN, 0.0262467, "- N/A -   "
8.05, 266.183, 0.0135533, NaN, NaN, NaN, 0.0250259, "- N/A -   "
8.06, 266.4187, 0.0135672, NaN, NaN, NaN, 0.0262467, "- N/A -   "
8.07, 266.89, 0.0135866, NaN, NaN, NaN, 0.0250259, "- N/A -   "
8.08, 267.243, 0.0136033, NaN, NaN, NaN, 0.0250259, "- N/A -   "
8.09, 267.597, 0.01362, NaN, NaN, NaN, 0.0250259, "- N/A -   "
8.1, 267.8326, 0.0136339, NaN, NaN, NaN, 0.0262467, "- N/A -   "
8.11, 268.304, 0.0136505, NaN, NaN, NaN, 0.0262467, "- N/A -   "
8.12, 268.422, 0.0136644, NaN, NaN, NaN, 0.0274675, "- N/A -   "
8.13, 268.7752, 0.0136783, NaN, NaN, NaN, 0.0286883, "- N/A -   "
8.14, 269.1287, 0.0136922, NaN, NaN, NaN, 0.0299091, "- N/A -   "
8.15, 269.247, 0.013706, NaN, NaN, NaN, 0.0323506, "- N/A -   "
8.16, 269.6, 0.0137199, NaN, NaN, NaN, 0.0335714, "- N/A -   "
8.17, 269.836, 0.0137366, NaN, NaN, NaN, 0.0347922, "- N/A -   "
8.18, 270.307, 0.0137505, NaN, NaN, NaN, 0.03601294, "- N/A -   "
8.19, 270.425, 0.0137644, NaN, NaN, NaN, 0.03601294, "- N/A -   "
8.2, 270.8961, 0.0137782, NaN, NaN, NaN, 0.0372337, "- N/A -   "
8.21, 271.132, 0.0137921, NaN, NaN, NaN, 0.0384545, "- N/A -   "
8.22, 271.367, 0.01380601, NaN, NaN, NaN, 0.0396753, "- N/A -   "
8.23, 271.603, 0.0138199, NaN, NaN, NaN, 0.04089605, "- N/A -   "
8.24, 271.839, 0.0138338, NaN, NaN, NaN, 0.04211683, "- N/A -   "
8.25, 272.192, 0.0138477, NaN, NaN, NaN, 0.0433376, "- N/A -   "
8.26, 272.546, 0.0138615, NaN, NaN, NaN, 0.0445584, "- N/A -   "
8.27, 272.899, 0.0138782, NaN, NaN, NaN, 0.04577916, "- N/A -   "
8.28, 273.1348, 0.0138921, NaN, NaN, NaN, 0.04577916, "- N/A -   "
8.29, 273.488, 0.0139087, NaN, NaN, NaN, 0.04577916, "- N/A -   "
8.3, 273.842, 0.0139254, NaN, NaN, NaN, 0.04577916, "- N/A -   "
8.31, 274.313, 0.0139421, NaN, NaN, NaN, 0.04699994, "- N/A -   "
8.32, 274.549, 0.013956, NaN, NaN, NaN, 0.04699994, "- N/A -   "
8.33, 274.784, 0.0139726, NaN, NaN, NaN, 0.0482207, "- N/A -   "
8.34, 275.138, 0.0139865, NaN, NaN, NaN, 0.0482207, "- N/A -   "
8.35, 275.4913, 0.0140032, NaN, NaN, NaN, 0.0482207, "- N/A -   "
8.36, 275.963, 0.01401982, NaN, NaN, NaN, 0.0482207, "- N/A -   "
8.37, 276.198, 0.0140365, NaN, NaN, NaN, 0.0494415, "- N/A -   "
8.38, 276.552, 0.0140559, NaN, NaN, NaN, 0.0482207, "- N/A -   "
8.39, 277.023, 0.0140726, NaN, NaN, NaN, 0.04699994, "- N/A -   "
8.4, 277.494, 0.014092, NaN, NaN, NaN, 0.04699994, "- N/A -   "
8.41, 277.966, 0.0141115, NaN, NaN, NaN, 0.04577916, "- N/A -   "
8.42, 278.319, 0.0141281, NaN, NaN, NaN, 0.0445584, "- N/A -   "
8.43, 278.6726, 0.0141503, NaN, NaN, NaN, 0.0433376, "- N/A -   "
8.44, 279.144, 0.014167, NaN, NaN, NaN, 0.04211683, "- N/A -   "
8.45, 279.615, 0.0141836, NaN, NaN, NaN, 0.04211683, "- N/A -   "
8.46, 279.851, 0.0142031, NaN, NaN, NaN, 0.04089605, "- N/A -   "
8.47, 280.204, 0.0142197, NaN, NaN, NaN, 0.04089605, "- N/A -   "
8.48, 280.558, 0.0142392, NaN, NaN, NaN, 0.04089605, "- N/A -   "
8.49, 281.0291, 0.0142558, NaN, NaN, NaN, 0.0396753, "- N/A -   "
8.5, 281.3826, 0.0142725, NaN, NaN, NaN, 0.0396753, "- N/A -   "
8.51, 281.736, 0.0142919, NaN, NaN, NaN, 0.0384545, "- N/A -   "
8.52, 282.09, 0.0143086, NaN, NaN, NaN, 0.0384545, "- N/A -   "
8.53, 282.443, 0.0143253, NaN, NaN, NaN, 0.0384545, "- N/A -   "
8.54, 282.914, 0.0143447, NaN, NaN, NaN, 0.0372337, "- N/A -   "
8.55, 283.386, 0.0143641, NaN, NaN, NaN, 0.0372337, "- N/A -   "
8.56, 283.6213, 0.0143808, NaN, NaN, NaN, 0.03601294, "- N/A -   "
8.57, 284.093, 0.0144002, NaN, NaN, NaN, 0.0347922, "- N/A -   "
8.58, 284.446, 0.0144197, NaN, NaN, NaN, 0.0335714, "- N/A -   "
8.59, 284.917, 0.01443911, NaN, NaN, NaN, 0.0323506, "- N/A -   "
8.6, 285.3887, 0.0144585, NaN, NaN, NaN, 0.03112983, "- N/A -   "
8.61, 285.7422, 0.014478, NaN, NaN, NaN, 0.0299091, "- N/A -   "
8.62, 286.213, 0.0144946, NaN, NaN, NaN, 0.0299091, "- N/A -   "
8.63, 286.449, 0.0145113, NaN, NaN, NaN, 0.0299091, "- N/A -   "
8.64, 286.8026, 0.0145307, NaN, NaN, NaN, 0.0286883, "- N/A -   "
8.65, 287.274, 0.0145474, NaN, NaN, NaN, 0.0286883, "- N/A -   "
8.66, 287.6274, 0.0145641, NaN, NaN, NaN, 0.0286883, "- N/A -   "
8.67, 287.981, 0.0145807, NaN, NaN, NaN, 0.0286883, "- N/A -   "
8.68, 288.334, 0.0145974, NaN, NaN, NaN, 0.0299091, "- N/A -   "
8.69, 288.688, 0.014614, NaN, NaN, NaN, 0.0299091, "- N/A -   "
8.7, 289.041, 0.0146307, NaN, NaN, NaN, 0.0299091, "- N/A -   "
8.71, 289.395, 0.0146446, NaN, NaN, NaN, 0.0299091, "- N/A -   "
8.72, 289.748, 0.01466125, NaN, NaN, NaN, 0.03112983, "- N/A -   "
8.73, 289.984, 0.0146751, NaN, NaN, NaN, 0.03112983, "- N/A -   "
8.74, 290.3374, 0.014689, NaN, NaN, NaN, 0.0323506, "- N/A -   "
8.75, 290.573, 0.0147029, NaN, NaN, NaN, 0.0335714, "- N/A -   "
8.76, 290.6909, 0.0147168, NaN, NaN, NaN, 0.0347922, "- N/A -   "
8.77, 291.162, 0.0147307, NaN, NaN, NaN, 0.03601294, "- N/A -   "
8.78, 291.516, 0.0147473, NaN, NaN, NaN, 0.03601294, "- N/A -   "
8.79, 291.8691, 0.014764, NaN, NaN, NaN, 0.0372337, "- N/A -   "
8.8, 292.2226, 0.0147779, NaN, NaN, NaN, 0.0372337, "- N/A -   "
8.81, 292.576, 0.0147945, NaN, NaN, NaN, 0.0372337, "- N/A -   "
8.82, 292.93, 0.0148112, NaN, NaN, NaN, 0.0372337, "- N/A -   "
8.83, 293.283, 0.0148279, NaN, NaN, NaN, 0.0372337, "- N/A -   "
8.84, 293.637, 0.0148473, NaN, NaN, NaN, 0.0372337, "- N/A -   "
8.85, 293.872, 0.0148612, NaN, NaN, NaN, 0.0372337, "- N/A -   "
8.86, 294.343, 0.0148778, NaN, NaN, NaN, 0.0372337, "- N/A -   "
8.87, 294.8148, 0.0148945, NaN, NaN, NaN, 0.0384545, "- N/A -   "
8.88, 294.9326, 0.0149112, NaN, NaN, NaN, 0.0384545, "- N/A -   "
8.89, 295.404, 0.0149223, NaN, NaN, NaN, 0.0396753, "- N/A -   "
8.9, 295.6396, 0.0149389, NaN, NaN, NaN, 0.0396753, "- N/A -   "
8.91, 295.993, 0.0149556, NaN, NaN, NaN, 0.0396753, "- N/A -   "
8.92, 296.347, 0.0149695, NaN, NaN, NaN, 0.04089605, "- N/A -   "
8.93, 296.7, 0.0149861, NaN, NaN, NaN, 0.04211683, "- N/A -   "
8.94, 296.936, 0.015, NaN, NaN, NaN, 0.04211683, "- N/A -   "
8.95, 297.289, 0.0150139, NaN, NaN, NaN, 0.0433376, "- N/A -   "
9, 299.057, 0.0150944, NaN, NaN, NaN, 0.0445584, "- N/A -   "
9.05, 300.7061, 0.0151749, NaN, NaN, NaN, 0.04699994, "- N/A -   "
9.1, 302.827, 0.0152694, NaN, NaN, NaN, 0.04089605, "- N/A -   "
9.15, 304.948, 0.0153693, NaN, NaN, NaN, 0.0335714, "- N/A -   "
9.2, 307.0687, 0.0154582, NaN, NaN, NaN, 0.03112983, "- N/A -   "
9.25, 308.8361, 0.0155443, NaN, NaN, NaN, 0.03112983, "- N/A -   "
9.3, 310.486, 0.0156165, NaN, NaN, NaN, 0.0347922, "- N/A -   "
9.35, 312.135, 0.0156942, NaN, NaN, NaN, 0.0372337, "- N/A -   "
9.4, 314.02, 0.0157803, NaN, NaN, NaN, 0.03601294, "- N/A -   "
9.45, 316.1413, 0.01587469, NaN, NaN, NaN, 0.03112983, "- N/A -   "
9.5, 317.9087, 0.0159552, NaN, NaN, NaN, 0.0323506, "- N/A -   "
9.55, 319.558, 0.016033, NaN, NaN, NaN, 0.03601294, "- N/A -   "
9.6, 321.208, 0.0161079, NaN, NaN, NaN, 0.0384545, "- N/A -   "
9.65, 323.093, 0.0161885, NaN, NaN, NaN, 0.0396753, "- N/A -   "
9.7, 324.86, 0.0162718, NaN, NaN, NaN, 0.04089605, "- N/A -   "
9.75, 326.746, 0.01635507, NaN, NaN, NaN, 0.0396753, "- N/A -   "
9.8, 328.7487, 0.0164467, NaN, NaN, NaN, 0.03601294, "- N/A -   "
9.85, 330.752, 0.01653278, NaN, NaN, NaN, 0.03601294, "- N/A -   "
9.9, 332.4013, 0.01661053, NaN, NaN, NaN, 0.0372337, "- N/A -   "
9.95, 334.404, 0.01669661, NaN, NaN, NaN, 0.0372337, "- N/A -   "
10, 336.29, 0.0167827, NaN, NaN, NaN, 0.03601294, "- N/A -   "
10.05, 338.2926, 0.0168715, NaN, NaN, NaN, 0.0335714, "- N/A -   "
10.1, 340.178, 0.01695207, NaN, NaN, NaN, 0.0335714, "- N/A -   "
10.15, 341.8274, 0.0170326, NaN, NaN, NaN, 0.0347922, "- N/A -   "
10.2, 343.713, 0.0171187, NaN, NaN, NaN, 0.0347922, "- N/A -   "
10.25, 345.716, 0.0172048, NaN, NaN, NaN, 0.0323506, "- N/A -   "
10.3, 347.13, 0.0172742, NaN, NaN, NaN, 0.0396753, "- N/A -   "
10.35, 348.897, 0.0173519, NaN, NaN, NaN, 0.04089605, "- N/A -   "
10.4, 350.7822, 0.0174324, NaN, NaN, NaN, 0.0433376, "- N/A -   "
10.45, 352.6674, 0.0175102, NaN, NaN, NaN, 0.0445584, "- N/A -   "
10.5, 354.6704, 0.0176018, NaN, NaN, NaN, 0.04211683, "- N/A -   "
10.55, 356.909, 0.0176962, NaN, NaN, NaN, 0.03601294, "- N/A -   "
10.6, 359.03, 0.0177879, NaN, NaN, NaN, 0.0323506, "- N/A -   "
10.65, 360.7974, 0.0178712, NaN, NaN, NaN, 0.0323506, "- N/A -   "
10.7, 362.5648, 0.0179517, NaN, NaN, NaN, 0.0347922, "- N/A -   "
10.75, 364.45, 0.0180322, NaN, NaN, NaN, 0.0347922, "- N/A -   "
10.8, 366.6887, 0.0181266, NaN, NaN, NaN, 0.0299091, "- N/A -   "
10.85, 368.692, 0.0182127, NaN, NaN, NaN, 0.0286883, "- N/A -   "
10.9, 370.459, 0.0182932, NaN, NaN, NaN, 0.0299091, "- N/A -   "
10.95, 371.991, 0.0183654, NaN, NaN, NaN, 0.0347922, "- N/A -   "
11, 373.64, 0.0184376, NaN, NaN, NaN, 0.0396753, "- N/A -   "
11.05, 375.29, 0.0185098, NaN, NaN, NaN, 0.0445584, "- N/A -   "
11.1, 376.94, 0.0185848, NaN, NaN, NaN, 0.0482207, "- N/A -   "
11.15, 379.178, 0.0186792, NaN, NaN, NaN, 0.0433376, "- N/A -   "
11.2, 381.5348, 0.0187819, NaN, NaN, NaN, 0.0347922, "- N/A -   "
11.25, 383.538, 0.01886803, NaN, NaN, NaN, 0.0347922, "- N/A -   "
11.3, 385.3052, 0.0189486, NaN, NaN, NaN, 0.0347922, "- N/A -   "
11.35, 387.5439, 0.0190402, NaN, NaN, NaN, 0.0323506, "- N/A -   "
11.4, 389.783, 0.01913182, NaN, NaN, NaN, 0.0274675, "- N/A -   "
11.45, 391.668, 0.0192151, NaN, NaN, NaN, 0.0286883, "- N/A -   "
11.5, 393.435, 0.0192929, NaN, NaN, NaN, 0.0299091, "- N/A -   "
11.55, 395.2026, 0.0193651, NaN, NaN, NaN, 0.0347922, "- N/A -   "
11.6, 396.734, 0.01944, NaN, NaN, NaN, 0.0396753, "- N/A -   "
11.65, 398.3839, 0.0195095, NaN, NaN, NaN, 0.04577916, "- N/A -   "
11.7, 400.269, 0.01959276, NaN, NaN, NaN, 0.0445584, "- N/A -   "
11.75, 402.39, 0.0196816, NaN, NaN, NaN, 0.04211683, "- N/A -   "
11.8, 404.2752, 0.0197621, NaN, NaN, NaN, 0.0433376, "- N/A -   "
11.85, 406.514, 0.0198566, NaN, NaN, NaN, 0.0396753, "- N/A -   "
11.9, 408.7526, 0.0199482, NaN, NaN, NaN, 0.0347922, "- N/A -   "
11.95, 411.109, 0.0200481, NaN, NaN, NaN, 0.0286883, "- N/A -   "
12, 413.112, 0.02013145, NaN, NaN, NaN, 0.0286883, "- N/A -   "
12.05, 415.1152, 0.020212, NaN, NaN, NaN, 0.0286883, "- N/A -   "
12.1, 416.765, 0.0202897, NaN, NaN, NaN, 0.03112983, "- N/A -   "
12.15, 418.5322, 0.0203647, NaN, NaN, NaN, 0.0347922, "- N/A -   "
12.2, 420.4174, 0.0204452, NaN, NaN, NaN, 0.03601294, "- N/A -   "
12.25, 422.538, 0.0205313, NaN, NaN, NaN, 0.0347922, "- N/A -   "
12.3, 424.423, 0.0206146, NaN, NaN, NaN, 0.0347922, "- N/A -   "
12.35, 426.073, 0.0206868, NaN, NaN, NaN, 0.0396753, "- N/A -   "
12.4, 427.958, 0.02076455, NaN, NaN, NaN, 0.04211683, "- N/A -   "
12.45, 429.9613, 0.0208451, NaN, NaN, NaN, 0.0433376, "- N/A -   "
12.5, 431.964, 0.0209339, NaN, NaN, NaN, 0.04211683, "- N/A -   "
12.55, 434.4387, 0.0210339, NaN, NaN, NaN, 0.0335714, "- N/A -   "
12.6, 436.7952, 0.0211283, NaN, NaN, NaN, 0.0299091, "- N/A -   "
12.65, 438.68, 0.02120883, NaN, NaN, NaN, 0.0299091, "- N/A -   "
12.7, 440.4478, 0.021281, NaN, NaN, NaN, 0.03601294, "- N/A -   "
12.75, 442.333, 0.0213616, NaN, NaN, NaN, 0.0372337, "- N/A -   "
12.8, 444.3361, 0.0214449, NaN, NaN, NaN, 0.0372337, "- N/A -   "
12.85, 446.6926, 0.0215365, NaN, NaN, NaN, 0.0335714, "- N/A -   "
12.9, 448.578, 0.02161979, NaN, NaN, NaN, 0.0347922, "- N/A -   "
12.95, 450.3452, 0.02169476, NaN, NaN, NaN, 0.0372337, "- N/A -   "
13, 452.23, 0.0217697, NaN, NaN, NaN, 0.04089605, "- N/A -   "
13.05, 454.116, 0.02185026, NaN, NaN, NaN, 0.04211683, "- N/A -   "
13.1, 456.237, 0.0219363, NaN, NaN, NaN, 0.04089605, "- N/A -   "
13.15, 458.2396, 0.0220196, NaN, NaN, NaN, 0.04211683, "- N/A -   "
13.2, 460.36, 0.02210572, NaN, NaN, NaN, 0.0396753, "- N/A -   "
13.25, 462.599, 0.0221946, NaN, NaN, NaN, 0.0372337, "- N/A -   "
[...]
25.1, 978.699, 0.0419623, NaN, NaN, NaN, 0.0286883, "- N/A -   "
25.15, 980.946, 0.0420484, NaN, NaN, NaN, 0.0274675, "- N/A -   "
25.2, 982.957, 0.04212055, NaN, NaN, NaN, 0.0323506, "- N/A -   "
25.25, 984.7309, 0.04218719, NaN, NaN, NaN, 0.0396753, "- N/A -   "
25.3, 986.623, 0.0422622, NaN, NaN, NaN, 0.0433376, "- N/A -   "
25.35, 988.752, 0.0423427, NaN, NaN, NaN, 0.0445584, "- N/A -   "
25.4, 990.8815, 0.042426, NaN, NaN, NaN, 0.0445584, "- N/A -   "
25.45, 993.484, 0.04251485, NaN, NaN, NaN, 0.0433376, "- N/A -   "
25.5, 995.8493, 0.0426037, NaN, NaN, NaN, 0.04089605, "- N/A -   "
25.55, 998.3332, 0.04269534, NaN, NaN, NaN, 0.03601294, "- N/A -   "
25.6, 1001.05, 0.04279252, NaN, NaN, NaN, 0.0299091, "- N/A -   "
25.65, 1003.54, 0.0428842, NaN, NaN, NaN, 0.0274675, "- N/A -   "
25.7, 1005.67, 0.0429675, NaN, NaN, NaN, 0.0262467, "- N/A -   "
25.75, 1007.68, 0.0430452, NaN, NaN, NaN, 0.0299091, "- N/A -   "
25.8, 1009.92, 0.04312018, NaN, NaN, NaN, 0.0323506, "- N/A -   "
25.85, 1012.05, 0.0432007, NaN, NaN, NaN, 0.0335714, "- N/A -   "
25.9, 1014.19, 0.04328123, NaN, NaN, NaN, 0.0347922, "- N/A -   "
25.95, 1016.34, 0.0433618, NaN, NaN, NaN, 0.03601294, "- N/A -   "
26, 1018.37, 0.043434, NaN, NaN, NaN, 0.04211683, "- N/A -   "
26.05, 1020.39, 0.0435117, NaN, NaN, NaN, 0.0433376, "- N/A -   "
26.1, 1022.42, 0.04358945, NaN, NaN, NaN, 0.04699994, "- N/A -   "
26.15, 1025.04, 0.04368108, NaN, NaN, NaN, 0.0433376, "- N/A -   "
26.2, 1027.79, 0.04378105, NaN, NaN, NaN, 0.03601294, "- N/A -   "
26.25, 1030.53, 0.0438755, NaN, NaN, NaN, 0.03112983, "- N/A -   "
26.3, 1032.8, 0.04395876, NaN, NaN, NaN, 0.03112983, "- N/A -   "
26.35, 1034.82, 0.0440365, NaN, NaN, NaN, 0.0335714, "- N/A -   "
26.4, 1036.73, 0.0441087, NaN, NaN, NaN, 0.0384545, "- N/A -   "
26.45, 1038.88, 0.044192, NaN, NaN, NaN, 0.0396753, "- N/A -   "
26.5, 1041.62, 0.0442864, NaN, NaN, NaN, 0.0347922, "- N/A -   "
26.55, 1044.01, 0.04437527, NaN, NaN, NaN, 0.0323506, "- N/A -   "
26.6, 1046.03, 0.0444475, NaN, NaN, NaN, 0.03601294, "- N/A -   "
26.65, 1047.94, 0.04452244, NaN, NaN, NaN, 0.0396753, "- N/A -   "
26.7, 1050.09, 0.044603, NaN, NaN, NaN, 0.04211683, "- N/A -   "
26.75, 1052.47, 0.04468904, NaN, NaN, NaN, 0.0396753, "- N/A -   "
26.8, 1054.86, 0.04477235, NaN, NaN, NaN, 0.0396753, "- N/A -   "
26.85, 1057.24, 0.0448612, NaN, NaN, NaN, 0.0372337, "- N/A -   "
26.9, 1059.51, 0.0449445, NaN, NaN, NaN, 0.0372337, "- N/A -   "
26.95, 1061.774, 0.0450278, NaN, NaN, NaN, 0.0372337, "- N/A -   "
27, 1064.04, 0.0451111, NaN, NaN, NaN, 0.0372337, "- N/A -   "
27.05, 1066.66, 0.0452027, NaN, NaN, NaN, 0.0335714, "- N/A -   "
27.1, 1068.93, 0.0452916, NaN, NaN, NaN, 0.03112983, "- N/A -   "
27.15, 1071.31, 0.04537768, NaN, NaN, NaN, 0.03112983, "- N/A -   "
27.2, 1073.7, 0.04546376, NaN, NaN, NaN, 0.0286883, "- N/A -   "
27.25, 1076.08, 0.04554428, NaN, NaN, NaN, 0.0299091, "- N/A -   "
27.3, 1077.873, 0.0456193, NaN, NaN, NaN, 0.0335714, "- N/A -   "
27.35, 1079.78, 0.0456915, NaN, NaN, NaN, 0.0384545, "- N/A -   "
27.4, 1081.81, 0.04576087, NaN, NaN, NaN, 0.0445584, "- N/A -   "
27.45, 1083.84, 0.0458414, NaN, NaN, NaN, 0.04577916, "- N/A -   "
27.5, 1085.863, 0.0459164, NaN, NaN, NaN, 0.0494415, "- N/A -   "
27.55, 1088.37, 0.04600245, NaN, NaN, NaN, 0.0482207, "- N/A -   "
27.6, 1091.11, 0.0460996, NaN, NaN, NaN, 0.0433376, "- N/A -   "
27.65, 1093.85, 0.0461996, NaN, NaN, NaN, 0.0347922, "- N/A -   "
27.7, 1096.36, 0.04629123, NaN, NaN, NaN, 0.0323506, "- N/A -   "
27.75, 1098.5, 0.04636898, NaN, NaN, NaN, 0.0335714, "- N/A -   "
27.8, 1100.77, 0.04645228, NaN, NaN, NaN, 0.0335714, "- N/A -   "
27.85, 1103.393, 0.04654669, NaN, NaN, NaN, 0.0299091, "- N/A -   "
27.9, 1105.78, 0.04663277, NaN, NaN, NaN, 0.0274675, "- N/A -   "
27.95, 1107.686, 0.0467077, NaN, NaN, NaN, 0.03112983, "- N/A -   "
28, 1109.59, 0.0467772, NaN, NaN, NaN, 0.0372337, "- N/A -   "
28.05, 1111.38, 0.04684658, NaN, NaN, NaN, 0.0433376, "- N/A -   "
28.1, 1113.41, 0.0469216, NaN, NaN, NaN, 0.04699994, "- N/A -   "
28.15, 1115.68, 0.0470049, NaN, NaN, NaN, 0.0482207, "- N/A -   "
28.2, 1118.3, 0.0470993, NaN, NaN, NaN, 0.0433376, "- N/A -   "
28.25, 1121.04, 0.0471937, NaN, NaN, NaN, 0.0372337, "- N/A -   "
28.3, 1123.43, 0.0472853, NaN, NaN, NaN, 0.0347922, "- N/A -   "
28.35, 1125.81, 0.0473686, NaN, NaN, NaN, 0.0335714, "- N/A -   "
28.4, 1128.32, 0.0474575, NaN, NaN, NaN, 0.03112983, "- N/A -   "
28.45, 1130.821, 0.0475491, NaN, NaN, NaN, 0.0274675, "- N/A -   "
28.5, 1132.97, 0.0476324, NaN, NaN, NaN, 0.0274675, "- N/A -   "
28.55, 1135.114, 0.0477101, NaN, NaN, NaN, 0.0299091, "- N/A -   "
28.6, 1137.14, 0.0477851, NaN, NaN, NaN, 0.0335714, "- N/A -   "
28.65, 1139.17, 0.0478573, NaN, NaN, NaN, 0.0384545, "- N/A -   "
28.7, 1140.96, 0.04793229, NaN, NaN, NaN, 0.0433376, "- N/A -   "
28.75, 1143.34, 0.0480128, NaN, NaN, NaN, 0.0445584, "- N/A -   "
28.8, 1145.61, 0.04809612, NaN, NaN, NaN, 0.0433376, "- N/A -   "
28.85, 1147.874, 0.04817942, NaN, NaN, NaN, 0.0445584, "- N/A -   "
28.9, 1150.02, 0.0482627, NaN, NaN, NaN, 0.0445584, "- N/A -   "
28.95, 1152.64, 0.04835158, NaN, NaN, NaN, 0.04089605, "- N/A -   "
29, 1155.63, 0.0484571, NaN, NaN, NaN, 0.0323506, "- N/A -   "
29.05, 1158.01, 0.04854595, NaN, NaN, NaN, 0.0286883, "- N/A -   "
29.1, 1160.4, 0.048632, NaN, NaN, NaN, 0.0286883, "- N/A -   "
29.15, 1162.42, 0.048707, NaN, NaN, NaN, 0.03112983, "- N/A -   "
29.2, 1164.45, 0.048782, NaN, NaN, NaN, 0.0347922, "- N/A -   "
29.25, 1166.84, 0.0488625, NaN, NaN, NaN, 0.0372337, "- N/A -   "
29.3, 1169.22, 0.04895136, NaN, NaN, NaN, 0.0347922, "- N/A -   "
29.35, 1171.61, 0.0490374, NaN, NaN, NaN, 0.0335714, "- N/A -   "
29.4, 1173.39, 0.04910686, NaN, NaN, NaN, 0.0384545, "- N/A -   "
29.45, 1175.3, 0.04917905, NaN, NaN, NaN, 0.0433376, "- N/A -   "
29.5, 1177.57, 0.0492596, NaN, NaN, NaN, 0.0445584, "- N/A -   "
29.55, 1180.19, 0.049354, NaN, NaN, NaN, 0.04089605, "- N/A -   "
29.6, 1182.934, 0.0494512, NaN, NaN, NaN, 0.0335714, "- N/A -   "
29.65, 1185.56, 0.0495428, NaN, NaN, NaN, 0.0299091, "- N/A -   "
29.7, 1187.82, 0.0496289, NaN, NaN, NaN, 0.0286883, "- N/A -   "
29.75, 1189.85, 0.0497066, NaN, NaN, NaN, 0.03112983, "- N/A -   "
29.8, 1191.88, 0.04977883, NaN, NaN, NaN, 0.03601294, "- N/A -   "
29.85, 1194.14, 0.04986213, NaN, NaN, NaN, 0.03601294, "- N/A -   "
29.9, 1196.65, 0.049951, NaN, NaN, NaN, 0.0335714, "- N/A -   "
29.95, 1198.914, 0.0500343, NaN, NaN, NaN, 0.0335714, "- N/A -   "
30, 1201.06, 0.0501093, NaN, NaN, NaN, 0.0372337, "- N/A -   "
30.05, 1203.09, 0.05018979, NaN, NaN, NaN, 0.0384545, "- N/A -   "
30.1, 1205.23, 0.0502648, NaN, NaN, NaN, 0.04211683, "- N/A -   "
30.15, 1207.62, 0.05035084, NaN, NaN, NaN, 0.04089605, "- N/A -   "
30.2, 1210.12, 0.05043692, NaN, NaN, NaN, 0.0396753, "- N/A -   "
30.25, 1212.15, 0.0505174, NaN, NaN, NaN, 0.04089605, "- N/A -   "
30.3, 1214.655, 0.0506063, NaN, NaN, NaN, 0.0384545, "- N/A -   "
30.35, 1217.16, 0.0506952, NaN, NaN, NaN, 0.03601294, "- N/A -   "
30.4, 1219.31, 0.0507785, NaN, NaN, NaN, 0.03601294, "- N/A -   "
30.45, 1221.93, 0.0508701, NaN, NaN, NaN, 0.0323506, "- N/A -   "
30.5, 1224.2, 0.0509562, NaN, NaN, NaN, 0.03112983, "- N/A -   "
30.55, 1226.34, 0.05103392, NaN, NaN, NaN, 0.0335714, "- N/A -   "
30.6, 1228.49, 0.0511117, NaN, NaN, NaN, 0.03601294, "- N/A -   "
30.65, 1230.75, 0.0512005, NaN, NaN, NaN, 0.0347922, "- N/A -   "
30.7, 1233.38, 0.0512894, NaN, NaN, NaN, 0.0323506, "- N/A -   "
30.75, 1235.52, 0.0513671, NaN, NaN, NaN, 0.0347922, "- N/A -   "
30.8, 1237.313, 0.05143655, NaN, NaN, NaN, 0.04089605, "- N/A -   "
30.85, 1239.46, 0.0515143, NaN, NaN, NaN, 0.0445584, "- N/A -   "
30.9, 1241.73, 0.0515948, NaN, NaN, NaN, 0.0445584, "- N/A -   "
30.95, 1244.35, 0.0516865, NaN, NaN, NaN, 0.04089605, "- N/A -   "
31, 1246.85, 0.0517781, NaN, NaN, NaN, 0.0372337, "- N/A -   "
31.05, 1249.36, 0.0518697, NaN, NaN, NaN, 0.0335714, "- N/A -   "
31.1, 1251.74, 0.0519558, NaN, NaN, NaN, 0.0323506, "- N/A -   "
31.15, 1253.89, 0.0520391, NaN, NaN, NaN, 0.0323506, "- N/A -   "
31.2, 1256.15, 0.0521224, NaN, NaN, NaN, 0.0323506, "- N/A -   "
31.25, 1258.54, 0.0522085, NaN, NaN, NaN, 0.03112983, "- N/A -   "
31.3, 1260.81, 0.0522946, NaN, NaN, NaN, 0.03112983, "- N/A -   "
31.35, 1263.19, 0.0523751, NaN, NaN, NaN, 0.03112983, "- N/A -   "
31.4, 1265.1, 0.05244729, NaN, NaN, NaN, 0.0372337, "- N/A -   "
31.45, 1266.89, 0.0525167, NaN, NaN, NaN, 0.04211683, "- N/A -   "
31.5, 1268.8, 0.05259168, NaN, NaN, NaN, 0.04577916, "- N/A -   "
31.55, 1271.06, 0.05266943, NaN, NaN, NaN, 0.0494415, "- N/A -   "
31.6, 1273.45, 0.05275551, NaN, NaN, NaN, 0.04699994, "- N/A -   "
31.65, 1275.95, 0.05284992, NaN, NaN, NaN, 0.04211683, "- N/A -   "
31.7, 1278.57, 0.05294433, NaN, NaN, NaN, 0.0384545, "- N/A -   "
31.75, 1280.96, 0.0530332, NaN, NaN, NaN, 0.0347922, "- N/A -   "
31.8, 1283.46, 0.05312204, NaN, NaN, NaN, 0.0335714, "- N/A -   "
31.85, 1285.85, 0.0532137, NaN, NaN, NaN, 0.0299091, "- N/A -   "
31.9, 1288.23, 0.053297, NaN, NaN, NaN, 0.0286883, "- N/A -   "
31.95, 1290.38, 0.0533775, NaN, NaN, NaN, 0.0299091, "- N/A -   "
32, 1292.53, 0.0534525, NaN, NaN, NaN, 0.0335714, "- N/A -   "
32.05, 1294.43, 0.0535274, NaN, NaN, NaN, 0.0372337, "- N/A -   "
32.1, 1296.34, 0.05360242, NaN, NaN, NaN, 0.04089605, "- N/A -   "
32.15, 1298.37, 0.05367739, NaN, NaN, NaN, 0.0445584, "- N/A -   "
32.2, 1300.755, 0.0537607, NaN, NaN, NaN, 0.0445584, "- N/A -   "
32.25, 1302.9, 0.053844, NaN, NaN, NaN, 0.0445584, "- N/A -   "
32.3, 1305.53, 0.05393563, NaN, NaN, NaN, 0.04089605, "- N/A -   "
32.35, 1307.91, 0.0540245, NaN, NaN, NaN, 0.0384545, "- N/A -   "
32.4, 1310.77, 0.0541272, NaN, NaN, NaN, 0.0299091, "- N/A -   "
32.45, 1313.28, 0.05421608, NaN, NaN, NaN, 0.0274675, "- N/A -   "
32.5, 1315.66, 0.05430216, NaN, NaN, NaN, 0.0262467, "- N/A -   "
32.55, 1317.69, 0.0543827, NaN, NaN, NaN, 0.0286883, "- N/A -   "
32.6, 1319.95, 0.0544577, NaN, NaN, NaN, 0.03112983, "- N/A -   "
32.65, 1321.74, 0.0545299, NaN, NaN, NaN, 0.03601294, "- N/A -   "
32.7, 1324.01, 0.05461038, NaN, NaN, NaN, 0.0384545, "- N/A -   "
32.75, 1326.275, 0.0546937, NaN, NaN, NaN, 0.0372337, "- N/A -   "
32.8, 1328.3, 0.05476865, NaN, NaN, NaN, 0.04211683, "- N/A -   "
32.85, 1330.21, 0.0548436, NaN, NaN, NaN, 0.04577916, "- N/A -   "
32.9, 1332.36, 0.0549214, NaN, NaN, NaN, 0.0482207, "- N/A -   "
32.95, 1334.62, 0.0550019, NaN, NaN, NaN, 0.0482207, "- N/A -   "
33, 1337.48, 0.05510464, NaN, NaN, NaN, 0.0396753, "- N/A -   "
33.05, 1340.11, 0.05519905, NaN, NaN, NaN, 0.0347922, "- N/A -   "
33.1, 1342.49, 0.0552879, NaN, NaN, NaN, 0.0335714, "- N/A -   "
33.15, 1344.64, 0.0553712, NaN, NaN, NaN, 0.0335714, "- N/A -   "
33.2, 1346.91, 0.0554517, NaN, NaN, NaN, 0.0347922, "- N/A -   "
33.25, 1349.29, 0.055535, NaN, NaN, NaN, 0.0335714, "- N/A -   "
33.3, 1351.56, 0.0556211, NaN, NaN, NaN, 0.0323506, "- N/A -   "
33.35, 1354.06, 0.0557072, NaN, NaN, NaN, 0.03112983, "- N/A -   "
33.4, 1355.97, 0.0557849, NaN, NaN, NaN, 0.0347922, "- N/A -   "
33.45, 1358.23, 0.0558599, NaN, NaN, NaN, 0.0372337, "- N/A -   "
33.5, 1360.14, 0.05593489, NaN, NaN, NaN, 0.04089605, "- N/A -   "
33.55, 1362.53, 0.0560182, NaN, NaN, NaN, 0.04089605, "- N/A -   "
33.6, 1364.67, 0.0561015, NaN, NaN, NaN, 0.04211683, "- N/A -   "
33.65, 1367.3, 0.05619035, NaN, NaN, NaN, 0.0384545, "- N/A -   "
33.7, 1369.8, 0.056282, NaN, NaN, NaN, 0.0347922, "- N/A -   "
33.75, 1372.19, 0.05636806, NaN, NaN, NaN, 0.0335714, "- N/A -   "
33.8, 1374.45, 0.05645414, NaN, NaN, NaN, 0.0335714, "- N/A -   "
33.85, 1376.72, 0.0565374, NaN, NaN, NaN, 0.0323506, "- N/A -   "
33.9, 1379.1, 0.0566207, NaN, NaN, NaN, 0.0323506, "- N/A -   "
33.95, 1381.37, 0.056704, NaN, NaN, NaN, 0.0323506, "- N/A -   "
34, 1383.52, 0.0567874, NaN, NaN, NaN, 0.0335714, "- N/A -   "
34.05, 1385.9, 0.0568707, NaN, NaN, NaN, 0.0335714, "- N/A -   "
34.1, 1388.17, 0.056954, NaN, NaN, NaN, 0.0323506, "- N/A -   "
34.15, 1390.194, 0.0570317, NaN, NaN, NaN, 0.0347922, "- N/A -   "
34.2, 1392.102, 0.0571039, NaN, NaN, NaN, 0.0396753, "- N/A -   "
34.25, 1394.25, 0.0571817, NaN, NaN, NaN, 0.04211683, "- N/A -   "
34.3, 1396.28, 0.0572594, NaN, NaN, NaN, 0.04577916, "- N/A -   "
34.35, 1398.54, 0.05733993, NaN, NaN, NaN, 0.04699994, "- N/A -   "
34.4, 1400.93, 0.057426, NaN, NaN, NaN, 0.0445584, "- N/A -   "
34.45, 1403.79, 0.057526, NaN, NaN, NaN, 0.0372337, "- N/A -   "
34.5, 1406.41, 0.05762038, NaN, NaN, NaN, 0.0323506, "- N/A -   "
34.55, 1408.56, 0.05770368, NaN, NaN, NaN, 0.0323506, "- N/A -   "
34.6, 1410.94, 0.05778698, NaN, NaN, NaN, 0.0323506, "- N/A -   "
34.65, 1413.33, 0.0578786, NaN, NaN, NaN, 0.0286883, "- N/A -   "
34.7, 1415.83, 0.05796747, NaN, NaN, NaN, 0.0262467, "- N/A -   "
34.75, 1417.86, 0.0580424, NaN, NaN, NaN, 0.0299091, "- N/A -   "
34.8, 1420.007, 0.0581174, NaN, NaN, NaN, 0.0335714, "- N/A -   "
34.85, 1421.8, 0.0581896, NaN, NaN, NaN, 0.0384545, "- N/A -   "
34.9, 1423.7, 0.0582618, NaN, NaN, NaN, 0.0433376, "- N/A -   "
34.95, 1425.61, 0.0583368, NaN, NaN, NaN, 0.0482207, "- N/A -   "
35, 1428.12, 0.0584201, NaN, NaN, NaN, 0.04699994, "- N/A -   "
35.05, 1430.86, 0.0585173, NaN, NaN, NaN, 0.04089605, "- N/A -   "
35.1, 1433.48, 0.0586145, NaN, NaN, NaN, 0.0347922, "- N/A -   "
35.15, 1435.87, 0.05870331, NaN, NaN, NaN, 0.0323506, "- N/A -   "
35.2, 1438.13, 0.0587866, NaN, NaN, NaN, 0.0323506, "- N/A -   "
35.25, 1440.76, 0.0588782, NaN, NaN, NaN, 0.0286883, "- N/A -   "
35.3, 1443.02, 0.0589615, NaN, NaN, NaN, 0.0299091, "- N/A -   "
35.35, 1445.17, 0.0590449, NaN, NaN, NaN, 0.03112983, "- N/A -   "
35.4, 1447.43, 0.0591282, NaN, NaN, NaN, 0.0299091, "- N/A -   "
35.45, 1449.34, 0.05919757, NaN, NaN, NaN, 0.03601294, "- N/A -   "
35.5, 1451.13, 0.059267, NaN, NaN, NaN, 0.04211683, "- N/A -   "
35.55, 1453.159, 0.059342, NaN, NaN, NaN, 0.04577916, "- N/A -   "
35.6, 1455.544, 0.059428, NaN, NaN, NaN, 0.0445584, "- N/A -   "
35.65, 1457.81, 0.0595113, NaN, NaN, NaN, 0.04577916, "- N/A -   "
35.7, 1460.195, 0.05959465, NaN, NaN, NaN, 0.0445584, "- N/A -   "
35.75, 1462.7, 0.0596835, NaN, NaN, NaN, 0.04211683, "- N/A -   "
35.8, 1465.2, 0.05978069, NaN, NaN, NaN, 0.03601294, "- N/A -   "
35.85, 1468.07, 0.0598779, NaN, NaN, NaN, 0.0299091, "- N/A -   "
35.9, 1470.33, 0.059964, NaN, NaN, NaN, 0.0286883, "- N/A -   "
35.95, 1472.48, 0.06004448, NaN, NaN, NaN, 0.0299091, "- N/A -   "
36, 1474.51, 0.06012223, NaN, NaN, NaN, 0.0323506, "- N/A -   "
36.05, 1476.77, 0.06019998, NaN, NaN, NaN, 0.0347922, "- N/A -   "
36.1, 1478.8, 0.0602805, NaN, NaN, NaN, 0.0372337, "- N/A -   "
36.15, 1481.18, 0.0603638, NaN, NaN, NaN, 0.0372337, "- N/A -   "
36.2, 1483.21, 0.0604416, NaN, NaN, NaN, 0.0384545, "- N/A -   "
36.25, 1485.36, 0.06051653, NaN, NaN, NaN, 0.0433376, "- N/A -   "
36.3, 1487.5, 0.0605971, NaN, NaN, NaN, 0.0445584, "- N/A -   "
36.35, 1489.65, 0.0606748, NaN, NaN, NaN, 0.04577916, "- N/A -   "
36.4, 1492.27, 0.0607692, NaN, NaN, NaN, 0.04089605, "- N/A -   "
36.45, 1494.9, 0.0608692, NaN, NaN, NaN, 0.0335714, "- N/A -   "
36.5, 1497.52, 0.06096081, NaN, NaN, NaN, 0.0299091, "- N/A -   "
36.55, 1499.67, 0.0610413, NaN, NaN, NaN, 0.03112983, "- N/A -   "
36.6, 1501.58, 0.0611163, NaN, NaN, NaN, 0.0347922, "- N/A -   "
36.65, 1503.84, 0.0612024, NaN, NaN, NaN, 0.0347922, "- N/A -   "
36.7, 1506.23, 0.0612857, NaN, NaN, NaN, 0.0335714, "- N/A -   "
36.75, 1508.73, 0.06137177, NaN, NaN, NaN, 0.0323506, "- N/A -   "
36.8, 1510.64, 0.0614495, NaN, NaN, NaN, 0.03601294, "- N/A -   "
36.85, 1512.67, 0.06152449, NaN, NaN, NaN, 0.0396753, "- N/A -   "
36.9, 1514.693, 0.0616022, NaN, NaN, NaN, 0.04211683, "- N/A -   "
36.95, 1516.96, 0.0616855, NaN, NaN, NaN, 0.04089605, "- N/A -   "
37, 1519.34, 0.06177162, NaN, NaN, NaN, 0.0396753, "- N/A -   "
37.05, 1521.61, 0.0618549, NaN, NaN, NaN, 0.04089605, "- N/A -   "
37.1, 1523.88, 0.061941, NaN, NaN, NaN, 0.0384545, "- N/A -   "
37.15, 1526.14, 0.0620243, NaN, NaN, NaN, 0.0384545, "- N/A -   "
37.2, 1528.29, 0.0621076, NaN, NaN, NaN, 0.0384545, "- N/A -   "
37.25, 1530.67, 0.06219369, NaN, NaN, NaN, 0.0372337, "- N/A -   "
37.3, 1533.18, 0.06228532, NaN, NaN, NaN, 0.0347922, "- N/A -   "
37.35, 1535.56, 0.0623714, NaN, NaN, NaN, 0.0323506, "- N/A -   "
37.4, 1537.71, 0.0624519, NaN, NaN, NaN, 0.0335714, "- N/A -   "
37.45, 1539.97, 0.0625408, NaN, NaN, NaN, 0.0323506, "- N/A -   "
37.5, 1542.12, 0.0626213, NaN, NaN, NaN, 0.0323506, "- N/A -   "
37.55, 1544.27, 0.0627018, NaN, NaN, NaN, 0.0335714, "- N/A -   "
37.6, 1546.29, 0.06277403, NaN, NaN, NaN, 0.0384545, "- N/A -   "
37.65, 1548.56, 0.06285733, NaN, NaN, NaN, 0.0384545, "- N/A -   "
37.7, 1550.47, 0.0629323, NaN, NaN, NaN, 0.04211683, "- N/A -   "
37.75, 1552.5, 0.06300728, NaN, NaN, NaN, 0.04699994, "- N/A -   "
37.8, 1554.88, 0.06309336, NaN, NaN, NaN, 0.0445584, "- N/A -   "
37.85, 1557.5, 0.0631933, NaN, NaN, NaN, 0.0384545, "- N/A -   "
37.9, 1560.01, 0.06328495, NaN, NaN, NaN, 0.0335714, "- N/A -   "
37.95, 1562.39, 0.06336825, NaN, NaN, NaN, 0.0335714, "- N/A -   "
38, 1564.421, 0.06344878, NaN, NaN, NaN, 0.0347922, "- N/A -   "
38.05, 1566.81, 0.0635376, NaN, NaN, NaN, 0.0323506, "- N/A -   "
38.1, 1569.31, 0.06362927, NaN, NaN, NaN, 0.0286883, "- N/A -   "
38.15, 1571.58, 0.0637126, NaN, NaN, NaN, 0.0286883, "- N/A -   "
38.2, 1573.48, 0.06378754, NaN, NaN, NaN, 0.0335714, "- N/A -   "
38.25, 1575.273, 0.06385696, NaN, NaN, NaN, 0.0384545, "- N/A -   "
38.3, 1577.181, 0.0639292, NaN, NaN, NaN, 0.0433376, "- N/A -   "
38.35, 1579.21, 0.06400413, NaN, NaN, NaN, 0.04699994, "- N/A -   "
38.4, 1581.35, 0.0640874, NaN, NaN, NaN, 0.0482207, "- N/A -   "
38.45, 1584.1, 0.06418461, NaN, NaN, NaN, 0.04211683, "- N/A -   "
38.5, 1586.6, 0.06427903, NaN, NaN, NaN, 0.03601294, "- N/A -   "
38.55, 1588.87, 0.0643651, NaN, NaN, NaN, 0.0347922, "- N/A -   "
38.6, 1591.13, 0.06444841, NaN, NaN, NaN, 0.0347922, "- N/A -   "
38.65, 1593.52, 0.06453727, NaN, NaN, NaN, 0.0323506, "- N/A -   "
38.7, 1596.14, 0.0646289, NaN, NaN, NaN, 0.0286883, "- N/A -   "
38.75, 1598.29, 0.0647122, NaN, NaN, NaN, 0.0299091, "- N/A -   "
38.8, 1600.316, 0.06479273, NaN, NaN, NaN, 0.03112983, "- N/A -   "
38.85, 1602.46, 0.0648677, NaN, NaN, NaN, 0.0335714, "- N/A -   "
38.9, 1604.37, 0.06494267, NaN, NaN, NaN, 0.0372337, "- N/A -   "
38.95, 1606.16, 0.06501209, NaN, NaN, NaN, 0.0433376, "- N/A -   "
39, 1608.31, 0.0650954, NaN, NaN, NaN, 0.0445584, "- N/A -   "
39.05, 1610.81, 0.06518425, NaN, NaN, NaN, 0.04211683, "- N/A -   "
39.1, 1613.08, 0.0652676, NaN, NaN, NaN, 0.04211683, "- N/A -   "
39.15, 1615.34, 0.06535363, NaN, NaN, NaN, 0.0396753, "- N/A -   "
39.2, 1617.85, 0.06544527, NaN, NaN, NaN, 0.03601294, "- N/A -   "
39.25, 1620.59, 0.06554523, NaN, NaN, NaN, 0.0286883, "- N/A -   "
39.3, 1622.97, 0.06563131, NaN, NaN, NaN, 0.0274675, "- N/A -   "
39.35, 1625.12, 0.0657146, NaN, NaN, NaN, 0.0274675, "- N/A -   "
39.4, 1627.15, 0.06578958, NaN, NaN, NaN, 0.0323506, "- N/A -   "
39.45, 1629.29, 0.0658673, NaN, NaN, NaN, 0.0335714, "- N/A -   "
39.5, 1631.32, 0.06594785, NaN, NaN, NaN, 0.0347922, "- N/A -   "
39.55, 1633.59, 0.06603116, NaN, NaN, NaN, 0.03601294, "- N/A -   "
39.6, 1635.61, 0.0661117, NaN, NaN, NaN, 0.0372337, "- N/A -   "
39.65, 1637.52, 0.0661811, NaN, NaN, NaN, 0.04211683, "- N/A -   "
39.7, 1639.43, 0.0662589, NaN, NaN, NaN, 0.04577916, "- N/A -   "
39.75, 1641.7, 0.06633938, NaN, NaN, NaN, 0.04577916, "- N/A -   "
39.8, 1644.32, 0.06643379, NaN, NaN, NaN, 0.04089605, "- N/A -   "
39.85, 1647.06, 0.06653375, NaN, NaN, NaN, 0.0347922, "- N/A -   "
39.9, 1649.45, 0.06662261, NaN, NaN, NaN, 0.0323506, "- N/A -   "
39.95, 1651.71, 0.06670591, NaN, NaN, NaN, 0.0323506, "- N/A -   "
40, 1653.74, 0.06678644, NaN, NaN, NaN, 0.0347922, "- N/A -   "
40.05, 1656.01, 0.0668725, NaN, NaN, NaN, 0.0335714, "- N/A -   "
40.1, 1658.15, 0.06695582, NaN, NaN, NaN, 0.0335714, "- N/A -   "
40.15, 1660.42, 0.0670363, NaN, NaN, NaN, 0.0335714, "- N/A -   "
40.169, 1661.02, 0.0670669, NaN, NaN, NaN, 0.0335714, "- N/A -   "