File: 2_Tensile_Data/Hamel_ForceTest_Bolt7_Test2.csv
Time, Load (lb), Position (in), AxialStrain (in), TransverseStrain (in), Auxiliary (), Control Out (V), Stress (psi)
0.0, 1.06153, 0.0, NaN, NaN, NaN, 0.04699994, "- N/A -   "
0.01, 1.06153, 1.66605e-05, NaN, NaN, NaN, 0.04577916, "- N/A -   "
0.02, 1.06153, 3.3321e-05, NaN, NaN, NaN, 0.04577916, "- N/A -   "
0.03, 1.06153, 5.27583e-05, NaN, NaN, NaN, 0.04577916, "- N/A -   "
0.04, 1.17947, 6.94188E-5, NaN, NaN, NaN, 0.04577916, "- N/A -   "
0.05, 1.17947, 8.607931E-5, NaN, NaN, NaN, 0.04577916, "- N/A -   "
0.06, 1.17947, 9.99631e-05, NaN, NaN, NaN, 0.04577916, "- N/A -   "
0.07, 1.17947, 0.000116624, NaN, NaN, NaN, 0.04577916, "- N/A -   "
0.08, 1.29742, 0.000133284, NaN, NaN, NaN, 0.04699994, "- N/A -   "
0.09, 1.29742, 0.000147168, NaN, NaN, NaN, 0.04699994, "- N/A -   "
0.1, 1.29742, 0.000163828, NaN, NaN, NaN, 0.04699994, "- N/A -   "
0.11, 1.29742, 0.000180489, NaN, NaN, NaN, 0.04699994, "- N/A -   "
0.12, 1.41537, 0.000197149, NaN, NaN, NaN, 0.04699994, "- N/A -   "
0.13, 1.41537, 0.000216587, NaN, NaN, NaN, 0.04577916, "- N/A -   "
0.14, 1.41537, 0.000233247, NaN, NaN, NaN, 0.04577916, "- N/A -   "
0.15, 1.53332, 2.526844E-4, NaN, NaN, NaN, 0.04577916, "- N/A -   "
0.16, 1.53332, 2.721217E-4, NaN, NaN, NaN, 0.0445584, "- N/A -   "
0.17, 1.53332, 0.000291559, NaN, NaN, NaN, 0.04211683, "- N/A -   "
0.18, 1.53332, 3.109962E-4, NaN, NaN, NaN, 0.04089605, "- N/A -   "
0.19, 1.65126, 0.00033321, NaN, NaN, NaN, 0.0384545, "- N/A -   "
0.2, 1.65126, 0.000352647, NaN, NaN, NaN, 0.0372337, "- N/A -   "
0.21, 1.65126, 3.748615E-4, NaN, NaN, NaN, 0.0347922, "- N/A -   "
0.22, 1.76921, 0.000397076, NaN, NaN, NaN, 0.0323506, "- N/A -   "
0.23, 1.76921, 0.000416513, NaN, NaN, NaN, 0.03112983, "- N/A -   "
0.24, 1.76921, 4.387268E-4, NaN, NaN, NaN, 0.0286883, "- N/A -   "
0.25, 1.88716, 0.000458164, NaN, NaN, NaN, 0.0286883, "- N/A -   "
0.26, 1.88716, 0.000474825, NaN, NaN, NaN, 0.0274675, "- N/A -   "
0.27, 1.88716, 0.000491485, NaN, NaN, NaN, 0.0274675, "- N/A -   "
0.28, 2.005107, 5.081456E-4, NaN, NaN, NaN, 0.0274675, "- N/A -   "
0.29, 1.88716, 0.000522029, NaN, NaN, NaN, 0.0286883, "- N/A -   "
0.3, 2.005107, 5.359131E-4, NaN, NaN, NaN, 0.0299091, "- N/A -   "
0.31, 2.005107, 5.525736E-4, NaN, NaN, NaN, 0.0299091, "- N/A -   "
0.32, 2.005107, 0.000569234, NaN, NaN, NaN, 0.0299091, "- N/A -   "
0.33, 2.12305, 5.858946E-4, NaN, NaN, NaN, 0.0299091, "- N/A -   "
0.34, 2.12305, 0.000602555, NaN, NaN, NaN, 0.0299091, "- N/A -   "
0.35, 2.12305, 0.000619216, NaN, NaN, NaN, 0.03112983, "- N/A -   "
0.36, 2.12305, 0.000635876, NaN, NaN, NaN, 0.03112983, "- N/A -   "
0.37, 2.241, 6.497599E-4, NaN, NaN, NaN, 0.03112983, "- N/A -   "
0.38, 2.12305, 0.00066642, NaN, NaN, NaN, 0.03112983, "- N/A -   "
0.39, 2.241, 6.803042E-4, NaN, NaN, NaN, 0.0323506, "- N/A -   "
0.4, 2.241, 0.000694188, NaN, NaN, NaN, 0.0335714, "- N/A -   "
0.41, 2.241, 7.108485E-4, NaN, NaN, NaN, 0.0335714, "- N/A -   "
0.42, 2.241, 7.27509E-4, NaN, NaN, NaN, 0.0347922, "- N/A -   "
0.43, 2.241, 7.413927E-4, NaN, NaN, NaN, 0.0347922, "- N/A -   "
0.44, 2.35895, 0.000758053, NaN, NaN, NaN, 0.0347922, "- N/A -   "
0.45, 2.35895, 0.000774714, NaN, NaN, NaN, 0.03601294, "- N/A -   "
0.46, 2.476897, 0.000791374, NaN, NaN, NaN, 0.0347922, "- N/A -   "
0.47, 2.35895, 8.080348E-4, NaN, NaN, NaN, 0.0347922, "- N/A -   "
0.48, 2.476897, 8.27472E-4, NaN, NaN, NaN, 0.0335714, "- N/A -   "
0.49, 2.476897, 8.469093E-4, NaN, NaN, NaN, 0.0335714, "- N/A -   "
0.5, 2.476897, 0.000860793, NaN, NaN, NaN, 0.0335714, "- N/A -   "
0.51, 2.476897, 8.774536E-4, NaN, NaN, NaN, 0.0335714, "- N/A -   "
0.52, 2.59484, 8.941141E-4, NaN, NaN, NaN, 0.0335714, "- N/A -   "
0.53, 2.59484, 9.107746E-4, NaN, NaN, NaN, 0.0335714, "- N/A -   "
0.54, 2.59484, 9.246584E-4, NaN, NaN, NaN, 0.0347922, "- N/A -   "
0.55, 2.59484, 0.000941319, NaN, NaN, NaN, 0.0347922, "- N/A -   "
0.56, 2.476897, 9.552026E-4, NaN, NaN, NaN, 0.03601294, "- N/A -   "
0.57, 2.59484, 0.000969086, NaN, NaN, NaN, 0.0372337, "- N/A -   "
0.58, 2.59484, 9.829701E-4, NaN, NaN, NaN, 0.0384545, "- N/A -   "
0.59, 2.712792, 9.996307E-4, NaN, NaN, NaN, 0.0384545, "- N/A -   "
0.6, 2.712792, 0.00101351, NaN, NaN, NaN, 0.0396753, "- N/A -   "
0.61, 2.712792, 0.00103017, NaN, NaN, NaN, 0.0396753, "- N/A -   "
0.62, 2.712792, 0.00104684, NaN, NaN, NaN, 0.04089605, "- N/A -   "
0.63, 2.712792, 0.00106072, NaN, NaN, NaN, 0.04089605, "- N/A -   "
0.64, 2.712792, 0.001074603, NaN, NaN, NaN, 0.04211683, "- N/A -   "
0.65, 2.712792, 0.00109126, NaN, NaN, NaN, 0.0433376, "- N/A -   "
0.66, 2.59484, 0.00110515, NaN, NaN, NaN, 0.0433376, "- N/A -   "
0.67, 2.712792, 0.001119031, NaN, NaN, NaN, 0.0445584, "- N/A -   "
0.68, 2.83074, 0.00113569, NaN, NaN, NaN, 0.04577916, "- N/A -   "
0.69, 2.712792, 0.00114958, NaN, NaN, NaN, 0.04577916, "- N/A -   "
0.7, 2.83074, 0.00116624, NaN, NaN, NaN, 0.04699994, "- N/A -   "
0.71, 2.59484, 0.00118012, NaN, NaN, NaN, 0.04699994, "- N/A -   "
0.72, 2.712792, 0.00119956, NaN, NaN, NaN, 0.04699994, "- N/A -   "
0.73, 2.712792, 0.00121622, NaN, NaN, NaN, 0.04699994, "- N/A -   "
0.74, 2.94869, 0.00123288, NaN, NaN, NaN, 0.04577916, "- N/A -   "
0.75, 2.83074, 0.00125232, NaN, NaN, NaN, 0.0445584, "- N/A -   "
0.76, 2.94869, 0.00126898, NaN, NaN, NaN, 0.0445584, "- N/A -   "
0.77, 2.94869, 0.00128841, NaN, NaN, NaN, 0.0433376, "- N/A -   "
0.78, 2.94869, 0.00130785, NaN, NaN, NaN, 0.04211683, "- N/A -   "
0.79, 3.06663, 0.00132729, NaN, NaN, NaN, 0.04089605, "- N/A -   "
0.8, 3.06663, 0.00134672, NaN, NaN, NaN, 0.0396753, "- N/A -   "
0.81, 3.18458, 0.00136894, NaN, NaN, NaN, 0.0384545, "- N/A -   "
0.82, 3.18458, 0.00138838, NaN, NaN, NaN, 0.0372337, "- N/A -   "
0.83, 3.18458, 0.00140781, NaN, NaN, NaN, 0.0347922, "- N/A -   "
0.84, 3.18458, 0.00142447, NaN, NaN, NaN, 0.0347922, "- N/A -   "
0.85, 3.30253, 0.001443911, NaN, NaN, NaN, 0.0335714, "- N/A -   "
0.86, 3.42048, 0.00146612, NaN, NaN, NaN, 0.0323506, "- N/A -   "
0.87, 3.42048, 0.00148556, NaN, NaN, NaN, 0.0299091, "- N/A -   "
0.88, 3.42048, 0.001505, NaN, NaN, NaN, 0.0299091, "- N/A -   "
0.89, 3.42048, 0.00152166, NaN, NaN, NaN, 0.0286883, "- N/A -   "
0.9, 3.53842, 0.00153832, NaN, NaN, NaN, 0.0286883, "- N/A -   "
0.91, 3.65637, 0.001554981, NaN, NaN, NaN, 0.0286883, "- N/A -   "
0.92, 3.53842, 0.00157442, NaN, NaN, NaN, 0.0274675, "- N/A -   "
0.93, 3.65637, 0.0015883, NaN, NaN, NaN, 0.0286883, "- N/A -   "
0.94, 3.65637, 0.00160496, NaN, NaN, NaN, 0.0286883, "- N/A -   "
0.95, 3.65637, 0.001621623, NaN, NaN, NaN, 0.0286883, "- N/A -   "
0.96, 3.65637, 0.00163551, NaN, NaN, NaN, 0.0299091, "- N/A -   "
0.97, 3.65637, 0.00165217, NaN, NaN, NaN, 0.0299091, "- N/A -   "
0.98, 3.774319, 0.00166883, NaN, NaN, NaN, 0.03112983, "- N/A -   "
0.99, 3.89227, 0.00168271, NaN, NaN, NaN, 0.03112983, "- N/A -   "
1, 3.89227, 0.00169937, NaN, NaN, NaN, 0.03112983, "- N/A -   "
1.01, 3.89227, 0.00171326, NaN, NaN, NaN, 0.0323506, "- N/A -   "
1.02, 4.010214, 0.00172992, NaN, NaN, NaN, 0.0335714, "- N/A -   "
1.03, 4.010214, 0.0017438, NaN, NaN, NaN, 0.0335714, "- N/A -   "
1.04, 4.12816, 0.00175768, NaN, NaN, NaN, 0.0347922, "- N/A -   "
1.05, 4.12816, 0.00177434, NaN, NaN, NaN, 0.0347922, "- N/A -   "
1.06, 4.12816, 0.001791, NaN, NaN, NaN, 0.0347922, "- N/A -   "
1.07, 4.246109, 0.00180767, NaN, NaN, NaN, 0.0347922, "- N/A -   "
1.08, 4.246109, 0.00182433, NaN, NaN, NaN, 0.0347922, "- N/A -   "
1.09, 4.36406, 0.00184376, NaN, NaN, NaN, 0.0347922, "- N/A -   "
1.1, 4.246109, 0.00186042, NaN, NaN, NaN, 0.0335714, "- N/A -   "
1.11, 4.482, 0.00187708, NaN, NaN, NaN, 0.0335714, "- N/A -   "
1.12, 4.482, 0.00189374, NaN, NaN, NaN, 0.0335714, "- N/A -   "
1.13, 4.59995, 0.001913182, NaN, NaN, NaN, 0.0335714, "- N/A -   "
1.14, 4.482, 0.00192984, NaN, NaN, NaN, 0.0335714, "- N/A -   "
1.15, 4.59995, 0.0019465, NaN, NaN, NaN, 0.0323506, "- N/A -   "
1.16, 4.717899, 0.00196316, NaN, NaN, NaN, 0.0323506, "- N/A -   "
1.17, 4.717899, 0.00197982, NaN, NaN, NaN, 0.0323506, "- N/A -   "
1.18, 4.83585, 0.00199371, NaN, NaN, NaN, 0.0335714, "- N/A -   "
1.19, 4.717899, 0.00201037, NaN, NaN, NaN, 0.0335714, "- N/A -   "
1.2, 4.83585, 0.002024252, NaN, NaN, NaN, 0.0347922, "- N/A -   "
1.21, 4.953794, 0.00204091, NaN, NaN, NaN, 0.0347922, "- N/A -   "
1.22, 4.83585, 0.002057573, NaN, NaN, NaN, 0.03601294, "- N/A -   "
1.23, 4.953794, 0.002071457, NaN, NaN, NaN, 0.03601294, "- N/A -   "
1.24, 4.953794, 0.00208534, NaN, NaN, NaN, 0.0372337, "- N/A -   "
1.25, 5.071741, 0.002102001, NaN, NaN, NaN, 0.0384545, "- N/A -   "
1.26, 5.071741, 0.002115885, NaN, NaN, NaN, 0.0384545, "- N/A -   "
1.27, 5.071741, 0.00212977, NaN, NaN, NaN, 0.0396753, "- N/A -   "
1.28, 5.18969, 0.00214643, NaN, NaN, NaN, 0.0396753, "- N/A -   "
1.29, 5.18969, 0.00216309, NaN, NaN, NaN, 0.0396753, "- N/A -   "
1.3, 5.18969, 0.00217975, NaN, NaN, NaN, 0.0396753, "- N/A -   "
1.31, 5.18969, 0.00219363, NaN, NaN, NaN, 0.04089605, "- N/A -   "
1.32, 5.425584, 0.00221029, NaN, NaN, NaN, 0.04089605, "- N/A -   "
1.33, 5.425584, 0.002226955, NaN, NaN, NaN, 0.04211683, "- N/A -   "
1.34, 5.425584, 0.00224362, NaN, NaN, NaN, 0.04211683, "- N/A -   "
1.35, 5.425584, 0.00226028, NaN, NaN, NaN, 0.04089605, "- N/A -   "
1.36, 5.54353, 0.00227694, NaN, NaN, NaN, 0.04089605, "- N/A -   "
1.37, 5.66148, 0.0022936, NaN, NaN, NaN, 0.04089605, "- N/A -   "
1.38, 5.66148, 0.00231026, NaN, NaN, NaN, 0.04089605, "- N/A -   "
1.39, 5.66148, 0.00232969, NaN, NaN, NaN, 0.0396753, "- N/A -   "
1.4, 5.66148, 0.00234913, NaN, NaN, NaN, 0.0396753, "- N/A -   "
1.41, 5.779426, 0.00236579, NaN, NaN, NaN, 0.0396753, "- N/A -   "
1.42, 5.779426, 0.00238245, NaN, NaN, NaN, 0.0384545, "- N/A -   "
1.43, 5.897373, 0.00239911, NaN, NaN, NaN, 0.0396753, "- N/A -   "
1.44, 5.897373, 0.00241577, NaN, NaN, NaN, 0.0396753, "- N/A -   "
1.45, 6.01532, 0.00243243, NaN, NaN, NaN, 0.0384545, "- N/A -   "
1.46, 6.01532, 0.00245187, NaN, NaN, NaN, 0.0384545, "- N/A -   "
1.47, 6.13327, 0.00246576, NaN, NaN, NaN, 0.0384545, "- N/A -   "
1.48, 6.13327, 0.00248242, NaN, NaN, NaN, 0.0384545, "- N/A -   "
1.49, 6.13327, 0.00249908, NaN, NaN, NaN, 0.0384545, "- N/A -   "
1.5, 6.251216, 0.00251574, NaN, NaN, NaN, 0.0384545, "- N/A -   "
1.51, 6.251216, 0.0025324, NaN, NaN, NaN, 0.0384545, "- N/A -   "
1.52, 6.369163, 0.00254906, NaN, NaN, NaN, 0.0384545, "- N/A -   "
1.53, 6.369163, 0.0025685, NaN, NaN, NaN, 0.0384545, "- N/A -   "
1.54, 6.369163, 0.002585156, NaN, NaN, NaN, 0.0372337, "- N/A -   "
1.55, 6.487111, 0.00260459, NaN, NaN, NaN, 0.0372337, "- N/A -   "
1.56, 6.487111, 0.00262125, NaN, NaN, NaN, 0.03601294, "- N/A -   "
1.57, 6.60506, 0.00263514, NaN, NaN, NaN, 0.0372337, "- N/A -   "
1.58, 6.60506, 0.00265457, NaN, NaN, NaN, 0.0372337, "- N/A -   "
1.59, 6.723006, 0.00267124, NaN, NaN, NaN, 0.03601294, "- N/A -   "
1.6, 6.723006, 0.00269067, NaN, NaN, NaN, 0.03601294, "- N/A -   "
1.61, 6.723006, 0.00270733, NaN, NaN, NaN, 0.0347922, "- N/A -   "
1.62, 6.84095, 0.00272677, NaN, NaN, NaN, 0.0347922, "- N/A -   "
1.63, 6.84095, 0.002743431, NaN, NaN, NaN, 0.0347922, "- N/A -   "
1.64, 6.84095, 0.00276009, NaN, NaN, NaN, 0.0335714, "- N/A -   "
1.65, 6.9589, 0.00277675, NaN, NaN, NaN, 0.0335714, "- N/A -   "
1.66, 6.9589, 0.00279341, NaN, NaN, NaN, 0.0335714, "- N/A -   "
1.67, 7.07685, 0.00281007, NaN, NaN, NaN, 0.0335714, "- N/A -   "
1.68, 7.07685, 0.00282673, NaN, NaN, NaN, 0.0335714, "- N/A -   "
1.69, 7.07685, 0.002843394, NaN, NaN, NaN, 0.0335714, "- N/A -   "
1.7, 7.1948, 0.00286005, NaN, NaN, NaN, 0.0335714, "- N/A -   "
1.71, 7.312743, 0.00287671, NaN, NaN, NaN, 0.0335714, "- N/A -   "
1.72, 7.312743, 0.00289338, NaN, NaN, NaN, 0.0335714, "- N/A -   "
1.73, 7.430691, 0.00291281, NaN, NaN, NaN, 0.0335714, "- N/A -   "
1.74, 7.430691, 0.0029267, NaN, NaN, NaN, 0.0335714, "- N/A -   "
1.75, 7.548638, 0.00294613, NaN, NaN, NaN, 0.0323506, "- N/A -   "
1.76, 7.548638, 0.00296279, NaN, NaN, NaN, 0.0323506, "- N/A -   "
1.77, 7.548638, 0.00297945, NaN, NaN, NaN, 0.0335714, "- N/A -   "
1.78, 7.666586, 0.002996115, NaN, NaN, NaN, 0.0323506, "- N/A -   "
1.79, 7.666586, 0.003012776, NaN, NaN, NaN, 0.0335714, "- N/A -   "
1.8, 7.784533, 0.003029436, NaN, NaN, NaN, 0.0323506, "- N/A -   "
1.81, 7.784533, 0.00304332, NaN, NaN, NaN, 0.0335714, "- N/A -   "
1.82, 7.90248, 0.00306276, NaN, NaN, NaN, 0.0323506, "- N/A -   "
1.83, 7.784533, 0.00307942, NaN, NaN, NaN, 0.0323506, "- N/A -   "
1.84, 8.020428, 0.003096078, NaN, NaN, NaN, 0.0323506, "- N/A -   "
1.85, 8.020428, 0.003112739, NaN, NaN, NaN, 0.0335714, "- N/A -   "
1.86, 8.138375, 0.0031294, NaN, NaN, NaN, 0.0335714, "- N/A -   "
1.87, 8.020428, 0.00314606, NaN, NaN, NaN, 0.0335714, "- N/A -   "
1.88, 8.138375, 0.00315994, NaN, NaN, NaN, 0.0335714, "- N/A -   "
1.89, 8.138375, 0.003179381, NaN, NaN, NaN, 0.0335714, "- N/A -   "
1.9, 8.256323, 0.003196041, NaN, NaN, NaN, 0.0323506, "- N/A -   "
1.91, 8.256323, 0.003212702, NaN, NaN, NaN, 0.0323506, "- N/A -   "
1.92, 8.37427, 0.00322936, NaN, NaN, NaN, 0.0323506, "- N/A -   "
1.93, 8.37427, 0.003246023, NaN, NaN, NaN, 0.0323506, "- N/A -   "
1.94, 8.37427, 0.00326268, NaN, NaN, NaN, 0.0323506, "- N/A -   "
1.95, 8.37427, 0.003279344, NaN, NaN, NaN, 0.0335714, "- N/A -   "
1.96, 8.610166, 0.00329323, NaN, NaN, NaN, 0.0335714, "- N/A -   "
1.97, 8.610166, 0.003309888, NaN, NaN, NaN, 0.0347922, "- N/A -   "
1.98, 8.610166, 0.003323772, NaN, NaN, NaN, 0.03601294, "- N/A -   "
1.99, 8.610166, 0.003337656, NaN, NaN, NaN, 0.0372337, "- N/A -   "
2, 8.610166, 0.00335154, NaN, NaN, NaN, 0.0372337, "- N/A -   "
2.01, 8.728113, 0.0033682, NaN, NaN, NaN, 0.0372337, "- N/A -   "
2.02, 8.728113, 0.003382084, NaN, NaN, NaN, 0.0384545, "- N/A -   "
2.03, 8.846061, 0.00339874, NaN, NaN, NaN, 0.0384545, "- N/A -   "
2.04, 8.846061, 0.003415405, NaN, NaN, NaN, 0.0396753, "- N/A -   "
2.05, 8.964007, 0.00342929, NaN, NaN, NaN, 0.0396753, "- N/A -   "
2.06, 8.964007, 0.00344595, NaN, NaN, NaN, 0.0396753, "- N/A -   "
2.07, 8.964007, 0.00346261, NaN, NaN, NaN, 0.04089605, "- N/A -   "
2.08, 8.964007, 0.00347649, NaN, NaN, NaN, 0.04211683, "- N/A -   "
2.09, 9.081955, 0.00349038, NaN, NaN, NaN, 0.04211683, "- N/A -   "
2.1, 9.081955, 0.00350704, NaN, NaN, NaN, 0.0433376, "- N/A -   "
2.11, 9.199903, 0.00352092, NaN, NaN, NaN, 0.0433376, "- N/A -   "
2.12, 9.199903, 0.003537582, NaN, NaN, NaN, 0.0433376, "- N/A -   "
2.13, 9.31785, 0.00355147, NaN, NaN, NaN, 0.0445584, "- N/A -   "
2.14, 9.31785, 0.003570903, NaN, NaN, NaN, 0.0433376, "- N/A -   "
2.15, 9.435798, 0.00358756, NaN, NaN, NaN, 0.0433376, "- N/A -   "
2.16, 9.553744, 0.00360422, NaN, NaN, NaN, 0.0433376, "- N/A -   "
2.17, 9.435798, 0.00362088, NaN, NaN, NaN, 0.0433376, "- N/A -   "
2.18, 9.671693, 0.00364032, NaN, NaN, NaN, 0.04211683, "- N/A -   "
2.19, 9.671693, 0.00365698, NaN, NaN, NaN, 0.04211683, "- N/A -   "
2.2, 9.78964, 0.00367364, NaN, NaN, NaN, 0.04211683, "- N/A -   "
2.21, 9.907588, 0.00369308, NaN, NaN, NaN, 0.04089605, "- N/A -   "
2.22, 10.0255, 0.00371252, NaN, NaN, NaN, 0.0396753, "- N/A -   "
2.23, 10.0255, 0.00372918, NaN, NaN, NaN, 0.0396753, "- N/A -   "
2.24, 10.1435, 0.00375139, NaN, NaN, NaN, 0.0384545, "- N/A -   "
2.25, 10.26143, 0.00377083, NaN, NaN, NaN, 0.0372337, "- N/A -   "
2.26, 10.3794, 0.00379027, NaN, NaN, NaN, 0.03601294, "- N/A -   "
2.27, 10.3794, 0.0038097, NaN, NaN, NaN, 0.0347922, "- N/A -   "
2.28, 10.4973, 0.00382914, NaN, NaN, NaN, 0.0335714, "- N/A -   "
2.29, 10.6153, 0.0038458, NaN, NaN, NaN, 0.0323506, "- N/A -   "
2.3, 10.73322, 0.00386246, NaN, NaN, NaN, 0.0323506, "- N/A -   "
2.31, 10.8512, 0.00387912, NaN, NaN, NaN, 0.0323506, "- N/A -   "
2.32, 10.8512, 0.00389856, NaN, NaN, NaN, 0.0323506, "- N/A -   "
2.33, 10.9691, 0.00391244, NaN, NaN, NaN, 0.0323506, "- N/A -   "
2.34, 11.0871, 0.0039291, NaN, NaN, NaN, 0.0323506, "- N/A -   "
2.35, 11.0871, 0.00394576, NaN, NaN, NaN, 0.0323506, "- N/A -   "
2.36, 11.205, 0.00396242, NaN, NaN, NaN, 0.0323506, "- N/A -   "
2.37, 11.4409, 0.00397909, NaN, NaN, NaN, 0.0335714, "- N/A -   "
2.38, 11.4409, 0.003992969, NaN, NaN, NaN, 0.0335714, "- N/A -   "
2.39, 11.5589, 0.00400963, NaN, NaN, NaN, 0.0335714, "- N/A -   "
2.4, 11.6768, 0.00402629, NaN, NaN, NaN, 0.0335714, "- N/A -   "
2.41, 11.6768, 0.00404295, NaN, NaN, NaN, 0.0335714, "- N/A -   "
2.42, 11.7947, 0.00406239, NaN, NaN, NaN, 0.0335714, "- N/A -   "
2.43, 11.9127, 0.00407905, NaN, NaN, NaN, 0.0323506, "- N/A -   "
2.44, 12.0306, 0.00409849, NaN, NaN, NaN, 0.03112983, "- N/A -   "
2.45, 12.14859, 0.00411792, NaN, NaN, NaN, 0.03112983, "- N/A -   "
2.46, 12.14859, 0.00413458, NaN, NaN, NaN, 0.0299091, "- N/A -   "
2.47, 12.2665, 0.004154021, NaN, NaN, NaN, 0.0299091, "- N/A -   "
2.48, 12.3845, 0.00417068, NaN, NaN, NaN, 0.0299091, "- N/A -   "
2.49, 12.5024, 0.004187342, NaN, NaN, NaN, 0.0286883, "- N/A -   "
2.5, 12.6204, 0.004204, NaN, NaN, NaN, 0.0286883, "- N/A -   "
2.51, 12.6204, 0.00422066, NaN, NaN, NaN, 0.0286883, "- N/A -   "
2.52, 12.7383, 0.00423732, NaN, NaN, NaN, 0.0286883, "- N/A -   "
2.53, 12.8563, 0.004253984, NaN, NaN, NaN, 0.0286883, "- N/A -   "
2.54, 12.8563, 0.00427064, NaN, NaN, NaN, 0.0286883, "- N/A -   "
2.55, 12.9742, 0.004287305, NaN, NaN, NaN, 0.0286883, "- N/A -   "
2.56, 12.9742, 0.00430119, NaN, NaN, NaN, 0.0299091, "- N/A -   "
2.57, 13.2101, 0.00431785, NaN, NaN, NaN, 0.0299091, "- N/A -   "
2.58, 13.2101, 0.00433173, NaN, NaN, NaN, 0.03112983, "- N/A -   "
2.59, 13.3281, 0.004345617, NaN, NaN, NaN, 0.0323506, "- N/A -   "
2.6, 13.446, 0.00436228, NaN, NaN, NaN, 0.0335714, "- N/A -   "
2.61, 13.564, 0.004376161, NaN, NaN, NaN, 0.0335714, "- N/A -   "
2.62, 13.564, 0.004392822, NaN, NaN, NaN, 0.0335714, "- N/A -   "
2.63, 13.6819, 0.004409482, NaN, NaN, NaN, 0.0335714, "- N/A -   "
2.64, 13.9178, 0.00442614, NaN, NaN, NaN, 0.0347922, "- N/A -   "
2.65, 13.9178, 0.00444003, NaN, NaN, NaN, 0.03601294, "- N/A -   "
2.66, 14.0357, 0.004451134, NaN, NaN, NaN, 0.0372337, "- N/A -   "
2.67, 13.9178, 0.004465017, NaN, NaN, NaN, 0.0384545, "- N/A -   "
2.68, 14.1537, 0.0044789, NaN, NaN, NaN, 0.04089605, "- N/A -   "
2.69, 14.2716, 0.004492785, NaN, NaN, NaN, 0.04089605, "- N/A -   "
2.7, 14.3896, 0.004509445, NaN, NaN, NaN, 0.04089605, "- N/A -   "
2.71, 14.3896, 0.004523329, NaN, NaN, NaN, 0.04211683, "- N/A -   "
2.72, 14.5075, 0.004542766, NaN, NaN, NaN, 0.04211683, "- N/A -   "
2.73, 14.6255, 0.00455943, NaN, NaN, NaN, 0.04211683, "- N/A -   "
2.74, 14.8614, 0.00457331, NaN, NaN, NaN, 0.04211683, "- N/A -   "
2.75, 14.8614, 0.00458997, NaN, NaN, NaN, 0.04211683, "- N/A -   "
2.76, 14.9793, 0.004603855, NaN, NaN, NaN, 0.0433376, "- N/A -   "
2.77, 15.0973, 0.004620515, NaN, NaN, NaN, 0.0445584, "- N/A -   "
2.78, 15.2152, 0.00463718, NaN, NaN, NaN, 0.0445584, "- N/A -   "
2.79, 15.3332, 0.004653836, NaN, NaN, NaN, 0.0445584, "- N/A -   "
2.8, 15.4511, 0.004670497, NaN, NaN, NaN, 0.0433376, "- N/A -   "
2.81, 15.5691, 0.004687157, NaN, NaN, NaN, 0.0433376, "- N/A -   "
2.82, 15.687, 0.00470659, NaN, NaN, NaN, 0.0433376, "- N/A -   "
2.83, 15.805, 0.004726032, NaN, NaN, NaN, 0.04211683, "- N/A -   "
2.84, 16.0409, 0.004745469, NaN, NaN, NaN, 0.04089605, "- N/A -   "
2.85, 16.1588, 0.00476213, NaN, NaN, NaN, 0.0396753, "- N/A -   "
2.86, 16.27675, 0.004781567, NaN, NaN, NaN, 0.0384545, "- N/A -   "
2.87, 16.5126, 0.004798227, NaN, NaN, NaN, 0.0384545, "- N/A -   "
2.88, 16.5126, 0.004814888, NaN, NaN, NaN, 0.0384545, "- N/A -   "
2.89, 16.6306, 0.004834325, NaN, NaN, NaN, 0.0384545, "- N/A -   "
2.9, 16.74854, 0.00484821, NaN, NaN, NaN, 0.0384545, "- N/A -   "
2.91, 16.86649, 0.004867646, NaN, NaN, NaN, 0.0372337, "- N/A -   "
2.92, 17.1024, 0.004887083, NaN, NaN, NaN, 0.0372337, "- N/A -   "
2.93, 17.2203, 0.004903744, NaN, NaN, NaN, 0.03601294, "- N/A -   "
2.94, 17.3383, 0.004923181, NaN, NaN, NaN, 0.03601294, "- N/A -   "
2.95, 17.4562, 0.004939842, NaN, NaN, NaN, 0.0347922, "- N/A -   "
2.96, 17.6921, 0.004956502, NaN, NaN, NaN, 0.0347922, "- N/A -   "
2.97, 17.8101, 0.004973163, NaN, NaN, NaN, 0.0347922, "- N/A -   "
2.98, 17.8101, 0.00498982, NaN, NaN, NaN, 0.03601294, "- N/A -   "
2.99, 18.046, 0.00500648, NaN, NaN, NaN, 0.0347922, "- N/A -   "
3, 18.16391, 0.005025921, NaN, NaN, NaN, 0.0347922, "- N/A -   "
3.01, 18.16391, 0.005039805, NaN, NaN, NaN, 0.0347922, "- N/A -   "
3.02, 18.2819, 0.00505924, NaN, NaN, NaN, 0.0335714, "- N/A -   "
3.03, 18.6357, 0.00507868, NaN, NaN, NaN, 0.0323506, "- N/A -   "
3.04, 18.7536, 0.005098116, NaN, NaN, NaN, 0.0323506, "- N/A -   "
3.05, 18.8716, 0.005114777, NaN, NaN, NaN, 0.03112983, "- N/A -   "
3.06, 18.9895, 0.005134214, NaN, NaN, NaN, 0.03112983, "- N/A -   "
3.07, 19.2254, 0.005150875, NaN, NaN, NaN, 0.03112983, "- N/A -   "
3.08, 19.3434, 0.005167535, NaN, NaN, NaN, 0.0299091, "- N/A -   "
3.09, 19.4613, 0.005184196, NaN, NaN, NaN, 0.0299091, "- N/A -   "
3.1, 19.57928, 0.00520086, NaN, NaN, NaN, 0.0299091, "- N/A -   "
3.11, 19.6972, 0.00521752, NaN, NaN, NaN, 0.0299091, "- N/A -   "
3.12, 19.9331, 0.00523695, NaN, NaN, NaN, 0.0299091, "- N/A -   "
3.13, 19.9331, 0.00525361, NaN, NaN, NaN, 0.0286883, "- N/A -   "
3.14, 20.169, 0.00527028, NaN, NaN, NaN, 0.0286883, "- N/A -   "
3.15, 20.287, 0.00528694, NaN, NaN, NaN, 0.0286883, "- N/A -   "
3.16, 20.4049, 0.005303596, NaN, NaN, NaN, 0.0286883, "- N/A -   "
3.17, 20.6408, 0.00532026, NaN, NaN, NaN, 0.0286883, "- N/A -   "
3.18, 20.6408, 0.00533692, NaN, NaN, NaN, 0.0286883, "- N/A -   "
3.19, 20.8767, 0.00535358, NaN, NaN, NaN, 0.0286883, "- N/A -   "
3.2, 20.99465, 0.00537024, NaN, NaN, NaN, 0.0286883, "- N/A -   "
3.21, 21.2305, 0.0053869, NaN, NaN, NaN, 0.0286883, "- N/A -   "
3.22, 21.2305, 0.00540078, NaN, NaN, NaN, 0.0299091, "- N/A -   "
3.23, 21.3485, 0.00541744, NaN, NaN, NaN, 0.0323506, "- N/A -   "
3.24, 21.46644, 0.00543133, NaN, NaN, NaN, 0.0323506, "- N/A -   "
3.25, 21.5844, 0.00544521, NaN, NaN, NaN, 0.0335714, "- N/A -   "
3.26, 21.7023, 0.00545909, NaN, NaN, NaN, 0.0347922, "- N/A -   "
3.27, 21.93823, 0.00547575, NaN, NaN, NaN, 0.03601294, "- N/A -   "
3.28, 21.93823, 0.00548964, NaN, NaN, NaN, 0.03601294, "- N/A -   "
3.29, 22.0562, 0.005503522, NaN, NaN, NaN, 0.0372337, "- N/A -   "
3.3, 22.1741, 0.00551741, NaN, NaN, NaN, 0.0384545, "- N/A -   "
3.31, 22.29207, 0.00553407, NaN, NaN, NaN, 0.0384545, "- N/A -   "
3.32, 22.41, 0.00555073, NaN, NaN, NaN, 0.0396753, "- N/A -   "
3.33, 22.6459, 0.00556461, NaN, NaN, NaN, 0.04089605, "- N/A -   "
3.34, 22.7639, 0.00557849, NaN, NaN, NaN, 0.04089605, "- N/A -   "
3.35, 22.88181, 0.00559238, NaN, NaN, NaN, 0.04211683, "- N/A -   "
3.36, 22.88181, 0.00560626, NaN, NaN, NaN, 0.0433376, "- N/A -   "
3.37, 23.1177, 0.00562292, NaN, NaN, NaN, 0.0433376, "- N/A -   "
3.38, 23.3536, 0.00563958, NaN, NaN, NaN, 0.0445584, "- N/A -   "
3.39, 23.3536, 0.00565347, NaN, NaN, NaN, 0.0445584, "- N/A -   "
3.4, 23.4715, 0.00567013, NaN, NaN, NaN, 0.0445584, "- N/A -   "
3.41, 23.7074, 0.00568956, NaN, NaN, NaN, 0.0433376, "- N/A -   "
3.42, 23.9433, 0.00570623, NaN, NaN, NaN, 0.0433376, "- N/A -   "
3.43, 24.0613, 0.00572289, NaN, NaN, NaN, 0.0433376, "- N/A -   "
3.44, 24.1792, 0.00573955, NaN, NaN, NaN, 0.0433376, "- N/A -   "
3.45, 24.29718, 0.005756207, NaN, NaN, NaN, 0.0433376, "- N/A -   "
3.46, 24.4151, 0.00577009, NaN, NaN, NaN, 0.0445584, "- N/A -   "
3.47, 24.65102, 0.005786751, NaN, NaN, NaN, 0.0445584, "- N/A -   "
3.48, 24.8869, 0.00580341, NaN, NaN, NaN, 0.0445584, "- N/A -   "
3.49, 25.0049, 0.005820072, NaN, NaN, NaN, 0.0445584, "- N/A -   "
3.5, 25.1228, 0.00583673, NaN, NaN, NaN, 0.0445584, "- N/A -   "
3.51, 25.2408, 0.00585617, NaN, NaN, NaN, 0.0445584, "- N/A -   "
3.52, 25.3587, 0.00587283, NaN, NaN, NaN, 0.0445584, "- N/A -   "
3.53, 25.5946, 0.00588949, NaN, NaN, NaN, 0.0433376, "- N/A -   "
3.54, 25.7125, 0.00590615, NaN, NaN, NaN, 0.0433376, "- N/A -   "
3.55, 25.8305, 0.005925589, NaN, NaN, NaN, 0.04211683, "- N/A -   "
3.56, 26.0664, 0.00594225, NaN, NaN, NaN, 0.04211683, "- N/A -   "
3.57, 26.18434, 0.00596169, NaN, NaN, NaN, 0.04089605, "- N/A -   "
3.58, 26.3023, 0.00598112, NaN, NaN, NaN, 0.04089605, "- N/A -   "
3.59, 26.5382, 0.00599778, NaN, NaN, NaN, 0.0396753, "- N/A -   "
3.6, 26.7741, 0.00602, NaN, NaN, NaN, 0.0384545, "- N/A -   "
3.61, 27.01, 0.00603944, NaN, NaN, NaN, 0.03601294, "- N/A -   "
3.62, 27.1279, 0.00606165, NaN, NaN, NaN, 0.0347922, "- N/A -   "
3.63, 27.3638, 0.00608109, NaN, NaN, NaN, 0.0335714, "- N/A -   "
3.64, 27.4818, 0.00610052, NaN, NaN, NaN, 0.03112983, "- N/A -   "
3.65, 27.5997, 0.00611996, NaN, NaN, NaN, 0.03112983, "- N/A -   "
3.66, 27.8356, 0.006136622, NaN, NaN, NaN, 0.0299091, "- N/A -   "
3.67, 27.95355, 0.00615328, NaN, NaN, NaN, 0.0299091, "- N/A -   "
3.68, 27.95355, 0.00616994, NaN, NaN, NaN, 0.0299091, "- N/A -   "
3.69, 28.1894, 0.006183827, NaN, NaN, NaN, 0.03112983, "- N/A -   "
3.7, 28.3074, 0.006200487, NaN, NaN, NaN, 0.03112983, "- N/A -   "
3.71, 28.42534, 0.00621715, NaN, NaN, NaN, 0.03112983, "- N/A -   "
3.72, 28.54329, 0.006236585, NaN, NaN, NaN, 0.0299091, "- N/A -   "
3.73, 28.6612, 0.00625325, NaN, NaN, NaN, 0.0299091, "- N/A -   "
3.74, 28.7792, 0.00626991, NaN, NaN, NaN, 0.0299091, "- N/A -   "
3.75, 28.89713, 0.00628657, NaN, NaN, NaN, 0.03112983, "- N/A -   "
3.76, 29.0151, 0.00630045, NaN, NaN, NaN, 0.03112983, "- N/A -   "
3.77, 29.133, 0.00631711, NaN, NaN, NaN, 0.03112983, "- N/A -   "
3.78, 29.251, 0.006333771, NaN, NaN, NaN, 0.03112983, "- N/A -   "
3.79, 29.3689, 0.00635043, NaN, NaN, NaN, 0.0323506, "- N/A -   "
3.8, 29.4869, 0.006367092, NaN, NaN, NaN, 0.0323506, "- N/A -   "
3.81, 29.6048, 0.006383753, NaN, NaN, NaN, 0.0323506, "- N/A -   "
3.82, 29.7228, 0.00639764, NaN, NaN, NaN, 0.0323506, "- N/A -   "
3.83, 29.7228, 0.006414297, NaN, NaN, NaN, 0.0323506, "- N/A -   "
3.84, 29.9587, 0.00642818, NaN, NaN, NaN, 0.0335714, "- N/A -   "
3.85, 29.9587, 0.006444841, NaN, NaN, NaN, 0.0335714, "- N/A -   "
3.86, 30.0766, 0.006458725, NaN, NaN, NaN, 0.0347922, "- N/A -   "
3.87, 30.1946, 0.006472609, NaN, NaN, NaN, 0.03601294, "- N/A -   "
3.88, 30.3125, 0.006489269, NaN, NaN, NaN, 0.03601294, "- N/A -   "
3.89, 30.4304, 0.00650593, NaN, NaN, NaN, 0.0372337, "- N/A -   "
3.9, 30.5484, 0.00652259, NaN, NaN, NaN, 0.0372337, "- N/A -   "
3.91, 30.6663, 0.006536474, NaN, NaN, NaN, 0.0372337, "- N/A -   "
3.92, 30.78429, 0.006553135, NaN, NaN, NaN, 0.0372337, "- N/A -   "
3.93, 30.9022, 0.006569795, NaN, NaN, NaN, 0.0372337, "- N/A -   "
3.94, 31.0202, 0.006589232, NaN, NaN, NaN, 0.0372337, "- N/A -   "
3.95, 31.2561, 0.00660867, NaN, NaN, NaN, 0.03601294, "- N/A -   "
3.96, 31.374, 0.00662255, NaN, NaN, NaN, 0.03601294, "- N/A -   "
3.97, 31.492, 0.006641991, NaN, NaN, NaN, 0.0347922, "- N/A -   "
3.98, 31.6099, 0.006658651, NaN, NaN, NaN, 0.0347922, "- N/A -   "
3.99, 31.72787, 0.006672535, NaN, NaN, NaN, 0.0372337, "- N/A -   "
4, 31.8458, 0.006686419, NaN, NaN, NaN, 0.0372337, "- N/A -   "
4.01, 31.8458, 0.006703079, NaN, NaN, NaN, 0.0384545, "- N/A -   "
4.02, 31.9638, 0.006716963, NaN, NaN, NaN, 0.0384545, "- N/A -   "
4.03, 32.08171, 0.006730847, NaN, NaN, NaN, 0.0396753, "- N/A -   "
4.04, 32.1997, 0.00674473, NaN, NaN, NaN, 0.04089605, "- N/A -   "
4.05, 32.1997, 0.006761391, NaN, NaN, NaN, 0.04089605, "- N/A -   "
4.06, 32.4356, 0.006775275, NaN, NaN, NaN, 0.04211683, "- N/A -   "
4.07, 32.5535, 0.006789158, NaN, NaN, NaN, 0.0433376, "- N/A -   "
4.08, 32.5535, 0.006805819, NaN, NaN, NaN, 0.0433376, "- N/A -   "
4.09, 32.7894, 0.00682248, NaN, NaN, NaN, 0.0445584, "- N/A -   "
4.1, 32.7894, 0.00683914, NaN, NaN, NaN, 0.0445584, "- N/A -   "
4.11, 33.02529, 0.006853024, NaN, NaN, NaN, 0.0445584, "- N/A -   "
4.12, 33.1432, 0.00686968, NaN, NaN, NaN, 0.0445584, "- N/A -   "
4.13, 33.1432, 0.006886345, NaN, NaN, NaN, 0.0445584, "- N/A -   "
4.14, 33.2612, 0.00690301, NaN, NaN, NaN, 0.04577916, "- N/A -   "
4.15, 33.49708, 0.006919666, NaN, NaN, NaN, 0.0445584, "- N/A -   "
4.16, 33.61503, 0.0069391, NaN, NaN, NaN, 0.0445584, "- N/A -   "
4.17, 33.8509, 0.00695576, NaN, NaN, NaN, 0.0433376, "- N/A -   "
4.18, 33.8509, 0.006975201, NaN, NaN, NaN, 0.04211683, "- N/A -   "
4.19, 34.2048, 0.006994638, NaN, NaN, NaN, 0.04089605, "- N/A -   "
4.2, 34.2048, 0.007016852, NaN, NaN, NaN, 0.0396753, "- N/A -   "
4.21, 34.4407, 0.00703351, NaN, NaN, NaN, 0.0384545, "- N/A -   "
4.22, 34.55861, 0.00705295, NaN, NaN, NaN, 0.0372337, "- N/A -   "
4.23, 34.6766, 0.00706961, NaN, NaN, NaN, 0.0372337, "- N/A -   "
4.24, 34.7945, 0.00708905, NaN, NaN, NaN, 0.03601294, "- N/A -   "
4.25, 34.7945, 0.007105708, NaN, NaN, NaN, 0.03601294, "- N/A -   "
4.26, 35.0304, 0.00712515, NaN, NaN, NaN, 0.03601294, "- N/A -   "
4.27, 35.1483, 0.007141806, NaN, NaN, NaN, 0.03601294, "- N/A -   "
4.28, 35.3842, 0.00715847, NaN, NaN, NaN, 0.0347922, "- N/A -   "
4.29, 35.50219, 0.007177904, NaN, NaN, NaN, 0.0335714, "- N/A -   "
4.3, 35.6201, 0.007194564, NaN, NaN, NaN, 0.0335714, "- N/A -   "
4.31, 35.6201, 0.007214, NaN, NaN, NaN, 0.0323506, "- N/A -   "
4.32, 35.85603, 0.00723066, NaN, NaN, NaN, 0.0323506, "- N/A -   "
4.33, 35.97398, 0.0072501, NaN, NaN, NaN, 0.03112983, "- N/A -   "
4.34, 36.0919, 0.00726676, NaN, NaN, NaN, 0.03112983, "- N/A -   "
4.35, 36.2099, 0.00728342, NaN, NaN, NaN, 0.03112983, "- N/A -   "
4.36, 36.32782, 0.00730008, NaN, NaN, NaN, 0.03112983, "- N/A -   "
4.37, 36.44577, 0.00731396, NaN, NaN, NaN, 0.0323506, "- N/A -   "
4.38, 36.5637, 0.00733063, NaN, NaN, NaN, 0.0335714, "- N/A -   "
4.39, 36.6817, 0.00734451, NaN, NaN, NaN, 0.0335714, "- N/A -   "
4.4, 36.6817, 0.00736117, NaN, NaN, NaN, 0.0347922, "- N/A -   "
4.41, 36.9176, 0.00737505, NaN, NaN, NaN, 0.0347922, "- N/A -   "
4.42, 37.0355, 0.00739171, NaN, NaN, NaN, 0.0347922, "- N/A -   "
4.43, 37.15345, 0.00740837, NaN, NaN, NaN, 0.0347922, "- N/A -   "
4.44, 37.3893, 0.00742503, NaN, NaN, NaN, 0.0347922, "- N/A -   "
4.45, 37.3893, 0.0074417, NaN, NaN, NaN, 0.03601294, "- N/A -   "
4.46, 37.5073, 0.00745558, NaN, NaN, NaN, 0.03601294, "- N/A -   "
4.47, 37.74319, 0.00747224, NaN, NaN, NaN, 0.03601294, "- N/A -   "
4.48, 37.8611, 0.0074889, NaN, NaN, NaN, 0.03601294, "- N/A -   "
4.49, 37.9791, 0.00750556, NaN, NaN, NaN, 0.03601294, "- N/A -   "
4.5, 38.215, 0.007525, NaN, NaN, NaN, 0.0347922, "- N/A -   "
4.51, 38.3329, 0.00754166, NaN, NaN, NaN, 0.0347922, "- N/A -   "
4.52, 38.4509, 0.0075611, NaN, NaN, NaN, 0.0335714, "- N/A -   "
4.53, 38.68677, 0.007577756, NaN, NaN, NaN, 0.0335714, "- N/A -   "
4.54, 38.68677, 0.007594417, NaN, NaN, NaN, 0.0335714, "- N/A -   "
4.55, 38.9227, 0.00761385, NaN, NaN, NaN, 0.0323506, "- N/A -   "
4.56, 39.04061, 0.00763051, NaN, NaN, NaN, 0.0323506, "- N/A -   "
4.57, 39.3945, 0.00764995, NaN, NaN, NaN, 0.0323506, "- N/A -   "
4.58, 39.3945, 0.007666612, NaN, NaN, NaN, 0.0323506, "- N/A -   "
4.59, 39.5124, 0.00768327, NaN, NaN, NaN, 0.0323506, "- N/A -   "
4.6, 39.7483, 0.00769716, NaN, NaN, NaN, 0.0323506, "- N/A -   "
4.61, 39.7483, 0.00771104, NaN, NaN, NaN, 0.0335714, "- N/A -   "
4.62, 39.98419, 0.0077277, NaN, NaN, NaN, 0.0335714, "- N/A -   "
4.63, 40.10214, 0.00774158, NaN, NaN, NaN, 0.0347922, "- N/A -   "
4.64, 40.33803, 0.007755468, NaN, NaN, NaN, 0.03601294, "- N/A -   "
4.65, 40.33803, 0.00777213, NaN, NaN, NaN, 0.03601294, "- N/A -   "
4.66, 40.456, 0.00778601, NaN, NaN, NaN, 0.0372337, "- N/A -   "
4.67, 40.57393, 0.00780267, NaN, NaN, NaN, 0.0384545, "- N/A -   "
4.68, 40.8098, 0.007816557, NaN, NaN, NaN, 0.0384545, "- N/A -   "
4.69, 40.8098, 0.007833217, NaN, NaN, NaN, 0.0396753, "- N/A -   "
4.7, 40.9278, 0.0078471, NaN, NaN, NaN, 0.0396753, "- N/A -   "
4.71, 41.16367, 0.007860985, NaN, NaN, NaN, 0.04089605, "- N/A -   "
4.72, 41.16367, 0.007877645, NaN, NaN, NaN, 0.04211683, "- N/A -   "
4.73, 41.39956, 0.007891529, NaN, NaN, NaN, 0.04211683, "- N/A -   "
4.74, 41.6355, 0.00790819, NaN, NaN, NaN, 0.04211683, "- N/A -   "
4.75, 41.7534, 0.00792485, NaN, NaN, NaN, 0.04211683, "- N/A -   "
4.76, 41.9893, 0.007944287, NaN, NaN, NaN, 0.04089605, "- N/A -   "
4.77, 42.2252, 0.007963724, NaN, NaN, NaN, 0.04089605, "- N/A -   "
4.78, 42.3431, 0.007980385, NaN, NaN, NaN, 0.0396753, "- N/A -   "
4.79, 42.579, 0.007997046, NaN, NaN, NaN, 0.0396753, "- N/A -   "
4.8, 42.8149, 0.008013706, NaN, NaN, NaN, 0.0396753, "- N/A -   "
4.81, 42.8149, 0.008030367, NaN, NaN, NaN, 0.0396753, "- N/A -   "
4.82, 42.93288, 0.00804425, NaN, NaN, NaN, 0.04089605, "- N/A -   "
4.83, 43.0508, 0.008063688, NaN, NaN, NaN, 0.04089605, "- N/A -   "
4.84, 43.2867, 0.008080348, NaN, NaN, NaN, 0.04089605, "- N/A -   "
4.85, 43.40467, 0.008097009, NaN, NaN, NaN, 0.04089605, "- N/A -   "
4.86, 43.6406, 0.008113669, NaN, NaN, NaN, 0.0396753, "- N/A -   "
4.87, 43.87646, 0.008133106, NaN, NaN, NaN, 0.0396753, "- N/A -   "
4.88, 44.1124, 0.008149767, NaN, NaN, NaN, 0.0384545, "- N/A -   "
4.89, 44.2303, 0.008169204, NaN, NaN, NaN, 0.0372337, "- N/A -   "
4.9, 44.4662, 0.008188642, NaN, NaN, NaN, 0.03601294, "- N/A -   "
4.91, 44.58414, 0.008208079, NaN, NaN, NaN, 0.0347922, "- N/A -   "
4.92, 44.82, 0.008224739, NaN, NaN, NaN, 0.0347922, "- N/A -   "
4.93, 44.93799, 0.0082414, NaN, NaN, NaN, 0.0347922, "- N/A -   "
4.94, 45.17388, 0.008258061, NaN, NaN, NaN, 0.0347922, "- N/A -   "
4.95, 45.29183, 0.008274721, NaN, NaN, NaN, 0.0347922, "- N/A -   "
4.96, 45.40978, 0.008291381, NaN, NaN, NaN, 0.0347922, "- N/A -   "
4.97, 45.6457, 0.008310818, NaN, NaN, NaN, 0.0347922, "- N/A -   "
4.98, 45.8816, 0.008324702, NaN, NaN, NaN, 0.0347922, "- N/A -   "
4.99, 45.8816, 0.008341363, NaN, NaN, NaN, 0.0347922, "- N/A -   "
5, 46.11746, 0.008355246, NaN, NaN, NaN, 0.03601294, "- N/A -   "
5.01, 46.23541, 0.008371907, NaN, NaN, NaN, 0.03601294, "- N/A -   "
5.02, 46.4713, 0.008385791, NaN, NaN, NaN, 0.0372337, "- N/A -   "
5.03, 46.5893, 0.008402451, NaN, NaN, NaN, 0.0372337, "- N/A -   "
5.04, 46.7072, 0.008419112, NaN, NaN, NaN, 0.0372337, "- N/A -   "
5.05, 47.061, 0.008438549, NaN, NaN, NaN, 0.03601294, "- N/A -   "
5.06, 47.179, 0.008455209, NaN, NaN, NaN, 0.03601294, "- N/A -   "
5.07, 47.4149, 0.008474647, NaN, NaN, NaN, 0.03601294, "- N/A -   "
5.08, 47.5328, 0.00849131, NaN, NaN, NaN, 0.03601294, "- N/A -   "
5.09, 47.7687, 0.008507968, NaN, NaN, NaN, 0.0347922, "- N/A -   "
5.1, 48.00462, 0.008527406, NaN, NaN, NaN, 0.0347922, "- N/A -   "
5.11, 48.2405, 0.008544065, NaN, NaN, NaN, 0.0335714, "- N/A -   "
5.12, 48.3585, 0.008563503, NaN, NaN, NaN, 0.0335714, "- N/A -   "
5.13, 48.47641, 0.008580163, NaN, NaN, NaN, 0.0335714, "- N/A -   "
5.14, 48.7123, 0.00859682, NaN, NaN, NaN, 0.0335714, "- N/A -   "
5.15, 48.83025, 0.008613484, NaN, NaN, NaN, 0.0335714, "- N/A -   "
5.16, 49.1841, 0.008630145, NaN, NaN, NaN, 0.0323506, "- N/A -   "
5.17, 49.30204, 0.008646806, NaN, NaN, NaN, 0.0323506, "- N/A -   "
5.18, 49.41999, 0.008663466, NaN, NaN, NaN, 0.0323506, "- N/A -   "
5.19, 49.6559, 0.008680127, NaN, NaN, NaN, 0.0323506, "- N/A -   "
5.2, 49.8918, 0.008696787, NaN, NaN, NaN, 0.0323506, "- N/A -   "
5.21, 50.0097, 0.00871345, NaN, NaN, NaN, 0.0335714, "- N/A -   "
5.22, 50.1277, 0.008727332, NaN, NaN, NaN, 0.0335714, "- N/A -   "
5.23, 50.3636, 0.008743991, NaN, NaN, NaN, 0.0335714, "- N/A -   "
5.24, 50.5995, 0.00876343, NaN, NaN, NaN, 0.0335714, "- N/A -   "
5.25, 50.83536, 0.008777313, NaN, NaN, NaN, 0.0335714, "- N/A -   "
5.26, 50.83536, 0.008793973, NaN, NaN, NaN, 0.0335714, "- N/A -   "
5.27, 51.0713, 0.008810634, NaN, NaN, NaN, 0.0335714, "- N/A -   "
5.28, 51.30715, 0.008827294, NaN, NaN, NaN, 0.0335714, "- N/A -   "
5.29, 51.543, 0.008841178, NaN, NaN, NaN, 0.0347922, "- N/A -   "
5.3, 51.66099, 0.008857839, NaN, NaN, NaN, 0.0347922, "- N/A -   "
5.31, 51.7789, 0.008877276, NaN, NaN, NaN, 0.0335714, "- N/A -   "
5.32, 52.01483, 0.008896713, NaN, NaN, NaN, 0.0335714, "- N/A -   "
5.33, 52.25073, 0.00891337, NaN, NaN, NaN, 0.0323506, "- N/A -   "
5.34, 52.36868, 0.008930034, NaN, NaN, NaN, 0.0335714, "- N/A -   "
5.35, 52.6046, 0.008946694, NaN, NaN, NaN, 0.0323506, "- N/A -   "
5.36, 52.9584, 0.008960579, NaN, NaN, NaN, 0.0335714, "- N/A -   "
5.37, 52.9584, 0.008977239, NaN, NaN, NaN, 0.0347922, "- N/A -   "
5.38, 53.19431, 0.008991122, NaN, NaN, NaN, 0.0347922, "- N/A -   "
5.39, 53.3123, 0.009005006, NaN, NaN, NaN, 0.0372337, "- N/A -   "
5.4, 53.4302, 0.009018891, NaN, NaN, NaN, 0.0372337, "- N/A -   "
5.41, 53.6661, 0.009035551, NaN, NaN, NaN, 0.0384545, "- N/A -   "
5.42, 53.902, 0.009049434, NaN, NaN, NaN, 0.0384545, "- N/A -   "
5.43, 54.0199, 0.009066095, NaN, NaN, NaN, 0.0396753, "- N/A -   "
5.44, 54.2558, 0.009082755, NaN, NaN, NaN, 0.0396753, "- N/A -   "
5.45, 54.3738, 0.009099416, NaN, NaN, NaN, 0.0384545, "- N/A -   "
5.46, 54.7276, 0.009116077, NaN, NaN, NaN, 0.0384545, "- N/A -   "
5.47, 54.9635, 0.009132737, NaN, NaN, NaN, 0.0384545, "- N/A -   "
5.48, 55.0815, 0.009149397, NaN, NaN, NaN, 0.0384545, "- N/A -   "
5.49, 55.1994, 0.009163281, NaN, NaN, NaN, 0.0396753, "- N/A -   "
5.5, 55.43531, 0.009179942, NaN, NaN, NaN, 0.04089605, "- N/A -   "
5.51, 55.55326, 0.009193826, NaN, NaN, NaN, 0.04089605, "- N/A -   "
5.52, 55.6712, 0.009207709, NaN, NaN, NaN, 0.0433376, "- N/A -   "
5.53, 55.9071, 0.009221593, NaN, NaN, NaN, 0.0433376, "- N/A -   "
5.54, 56.02505, 0.009238253, NaN, NaN, NaN, 0.0445584, "- N/A -   "
5.55, 56.2609, 0.009254915, NaN, NaN, NaN, 0.0433376, "- N/A -   "
5.56, 56.6148, 0.009274351, NaN, NaN, NaN, 0.0433376, "- N/A -   "
5.57, 56.73273, 0.009291013, NaN, NaN, NaN, 0.04211683, "- N/A -   "
5.58, 56.9686, 0.009310449, NaN, NaN, NaN, 0.04211683, "- N/A -   "
5.59, 57.20452, 0.009327109, NaN, NaN, NaN, 0.04089605, "- N/A -   "
5.6, 57.5584, 0.00934377, NaN, NaN, NaN, 0.04089605, "- N/A -   "
5.61, 57.6763, 0.009363207, NaN, NaN, NaN, 0.0396753, "- N/A -   "
5.62, 57.91221, 0.009382645, NaN, NaN, NaN, 0.0396753, "- N/A -   "
5.63, 58.1481, 0.009399305, NaN, NaN, NaN, 0.0384545, "- N/A -   "
5.64, 58.5019, 0.009418743, NaN, NaN, NaN, 0.0384545, "- N/A -   "
5.65, 58.6199, 0.009435403, NaN, NaN, NaN, 0.0372337, "- N/A -   "
5.66, 58.8558, 0.009452064, NaN, NaN, NaN, 0.0372337, "- N/A -   "
5.67, 59.0917, 0.009471501, NaN, NaN, NaN, 0.0372337, "- N/A -   "
5.68, 59.2096, 0.009488161, NaN, NaN, NaN, 0.03601294, "- N/A -   "
5.69, 59.4455, 0.009507598, NaN, NaN, NaN, 0.0347922, "- N/A -   "
5.7, 59.68142, 0.009527035, NaN, NaN, NaN, 0.0347922, "- N/A -   "
5.71, 59.9173, 0.009546473, NaN, NaN, NaN, 0.0335714, "- N/A -   "
5.72, 60.27116, 0.009563133, NaN, NaN, NaN, 0.0323506, "- N/A -   "
5.73, 60.3891, 0.00957979, NaN, NaN, NaN, 0.0323506, "- N/A -   "
5.74, 60.7429, 0.009596455, NaN, NaN, NaN, 0.0323506, "- N/A -   "
5.75, 60.8609, 0.009615891, NaN, NaN, NaN, 0.03112983, "- N/A -   "
5.76, 61.09679, 0.009632552, NaN, NaN, NaN, 0.03112983, "- N/A -   "
5.77, 61.3327, 0.00964921, NaN, NaN, NaN, 0.03112983, "- N/A -   "
5.78, 61.45063, 0.009663097, NaN, NaN, NaN, 0.0323506, "- N/A -   "
5.79, 61.56858, 0.009679756, NaN, NaN, NaN, 0.0323506, "- N/A -   "
5.8, 61.8045, 0.00969364, NaN, NaN, NaN, 0.0335714, "- N/A -   "
5.81, 62.0404, 0.009710301, NaN, NaN, NaN, 0.0335714, "- N/A -   "
5.82, 62.2763, 0.009726961, NaN, NaN, NaN, 0.0347922, "- N/A -   "
5.83, 62.5122, 0.00974362, NaN, NaN, NaN, 0.0335714, "- N/A -   "
5.84, 62.7481, 0.009760283, NaN, NaN, NaN, 0.0335714, "- N/A -   "
5.85, 62.866, 0.009776942, NaN, NaN, NaN, 0.0335714, "- N/A -   "
5.86, 63.2198, 0.009793603, NaN, NaN, NaN, 0.0335714, "- N/A -   "
5.87, 63.33779, 0.009810264, NaN, NaN, NaN, 0.0335714, "- N/A -   "
5.88, 63.5737, 0.009826925, NaN, NaN, NaN, 0.0335714, "- N/A -   "
5.89, 63.80958, 0.009846362, NaN, NaN, NaN, 0.0323506, "- N/A -   "
5.9, 64.04548, 0.009865799, NaN, NaN, NaN, 0.0323506, "- N/A -   "
5.91, 64.28137, 0.009885237, NaN, NaN, NaN, 0.0299091, "- N/A -   "
5.92, 64.5173, 0.009904673, NaN, NaN, NaN, 0.0286883, "- N/A -   "
5.93, 64.75317, 0.009921335, NaN, NaN, NaN, 0.0286883, "- N/A -   "
5.94, 64.98906, 0.009937994, NaN, NaN, NaN, 0.0286883, "- N/A -   "
5.95, 65.22495, 0.009954655, NaN, NaN, NaN, 0.0286883, "- N/A -   "
5.96, 65.3429, 0.009971315, NaN, NaN, NaN, 0.0286883, "- N/A -   "
[...]
21.81, 642.3078, 0.0363643, NaN, NaN, NaN, 0.0396753, "- N/A -   "
21.83, 643.1358, 0.0363977, NaN, NaN, NaN, 0.04089605, "- N/A -   "
21.85, 643.964, 0.03642821, NaN, NaN, NaN, 0.04089605, "- N/A -   "
21.87, 644.7917, 0.03646153, NaN, NaN, NaN, 0.04211683, "- N/A -   "
21.89, 645.856, 0.0364921, NaN, NaN, NaN, 0.04211683, "- N/A -   "
21.91, 646.6842, 0.0365254, NaN, NaN, NaN, 0.04211683, "- N/A -   "
21.93, 647.63, 0.0365615, NaN, NaN, NaN, 0.04089605, "- N/A -   "
21.95, 648.5767, 0.03659759, NaN, NaN, NaN, 0.04089605, "- N/A -   "
21.97, 649.405, 0.03663091, NaN, NaN, NaN, 0.0396753, "- N/A -   "
21.99, 650.3509, 0.036667, NaN, NaN, NaN, 0.0384545, "- N/A -   "
22.01, 651.1789, 0.03670033, NaN, NaN, NaN, 0.0396753, "- N/A -   "
22.03, 652.1251, 0.0367309, NaN, NaN, NaN, 0.0396753, "- N/A -   "
22.05, 652.953, 0.0367642, NaN, NaN, NaN, 0.04089605, "- N/A -   "
22.07, 653.781, 0.03680029, NaN, NaN, NaN, 0.0396753, "- N/A -   "
22.09, 654.7273, 0.0368336, NaN, NaN, NaN, 0.0384545, "- N/A -   "
22.11, 655.6735, 0.0368669, NaN, NaN, NaN, 0.0384545, "- N/A -   "
22.13, 656.6198, 0.0369003, NaN, NaN, NaN, 0.0384545, "- N/A -   "
22.15, 657.566, 0.0369364, NaN, NaN, NaN, 0.0372337, "- N/A -   "
22.17, 658.6306, 0.0369725, NaN, NaN, NaN, 0.03601294, "- N/A -   "
22.19, 659.459, 0.03700855, NaN, NaN, NaN, 0.0347922, "- N/A -   "
22.21, 660.4048, 0.0370446, NaN, NaN, NaN, 0.0335714, "- N/A -   "
22.23, 661.3511, 0.0370807, NaN, NaN, NaN, 0.0335714, "- N/A -   "
22.25, 662.2973, 0.0371141, NaN, NaN, NaN, 0.0335714, "- N/A -   "
22.27, 663.2435, 0.0371474, NaN, NaN, NaN, 0.0323506, "- N/A -   "
22.29, 664.072, 0.0371807, NaN, NaN, NaN, 0.0323506, "- N/A -   "
22.31, 664.7812, 0.03721403, NaN, NaN, NaN, 0.0323506, "- N/A -   "
22.33, 665.7274, 0.0372446, NaN, NaN, NaN, 0.0335714, "- N/A -   "
22.35, 666.437, 0.0372751, NaN, NaN, NaN, 0.03601294, "- N/A -   "
22.37, 667.2651, 0.03730566, NaN, NaN, NaN, 0.03601294, "- N/A -   "
22.39, 668.093, 0.037339, NaN, NaN, NaN, 0.03601294, "- N/A -   "
22.41, 668.9211, 0.0373723, NaN, NaN, NaN, 0.03601294, "- N/A -   "
22.43, 669.749, 0.0374056, NaN, NaN, NaN, 0.0372337, "- N/A -   "
22.45, 670.577, 0.03743617, NaN, NaN, NaN, 0.0384545, "- N/A -   "
22.47, 671.405, 0.0374667, NaN, NaN, NaN, 0.0396753, "- N/A -   "
22.49, 672.2329, 0.0375, NaN, NaN, NaN, 0.0384545, "- N/A -   "
22.51, 673.179, 0.0375361, NaN, NaN, NaN, 0.0372337, "- N/A -   "
22.53, 674.007, 0.0375639, NaN, NaN, NaN, 0.0396753, "- N/A -   "
22.55, 674.8351, 0.0375944, NaN, NaN, NaN, 0.04089605, "- N/A -   "
22.57, 675.426, 0.03762499, NaN, NaN, NaN, 0.04211683, "- N/A -   "
22.59, 676.2544, 0.0376555, NaN, NaN, NaN, 0.0433376, "- N/A -   "
22.61, 677.0824, 0.0376861, NaN, NaN, NaN, 0.04577916, "- N/A -   "
22.63, 678.0286, 0.03771662, NaN, NaN, NaN, 0.04577916, "- N/A -   "
22.65, 678.857, 0.0377527, NaN, NaN, NaN, 0.04577916, "- N/A -   "
22.67, 679.803, 0.0377888, NaN, NaN, NaN, 0.0433376, "- N/A -   "
22.69, 680.8674, 0.03782769, NaN, NaN, NaN, 0.04089605, "- N/A -   "
22.71, 682.05, 0.03786934, NaN, NaN, NaN, 0.0372337, "- N/A -   "
22.73, 683.233, 0.037911, NaN, NaN, NaN, 0.0347922, "- N/A -   "
22.75, 684.1792, 0.0379471, NaN, NaN, NaN, 0.0335714, "- N/A -   "
22.77, 685.1255, 0.0379832, NaN, NaN, NaN, 0.03112983, "- N/A -   "
22.79, 686.0717, 0.0380193, NaN, NaN, NaN, 0.03112983, "- N/A -   "
22.81, 686.9, 0.0380498, NaN, NaN, NaN, 0.03112983, "- N/A -   "
22.83, 687.7277, 0.0380832, NaN, NaN, NaN, 0.0323506, "- N/A -   "
22.85, 688.4374, 0.0381137, NaN, NaN, NaN, 0.0323506, "- N/A -   "
22.87, 689.2653, 0.03814424, NaN, NaN, NaN, 0.0335714, "- N/A -   "
22.89, 690.2116, 0.0381803, NaN, NaN, NaN, 0.0335714, "- N/A -   "
22.91, 691.158, 0.0382137, NaN, NaN, NaN, 0.0335714, "- N/A -   "
22.93, 692.104, 0.03824698, NaN, NaN, NaN, 0.0323506, "- N/A -   "
22.95, 693.05, 0.0382859, NaN, NaN, NaN, 0.03112983, "- N/A -   "
22.97, 694.1148, 0.03832473, NaN, NaN, NaN, 0.0274675, "- N/A -   "
22.99, 695.1794, 0.038358, NaN, NaN, NaN, 0.0274675, "- N/A -   "
23.01, 695.889, 0.0383914, NaN, NaN, NaN, 0.0286883, "- N/A -   "
23.03, 696.835, 0.0384219, NaN, NaN, NaN, 0.0286883, "- N/A -   "
23.05, 697.545, 0.0384525, NaN, NaN, NaN, 0.0299091, "- N/A -   "
23.07, 698.2547, 0.03848023, NaN, NaN, NaN, 0.0323506, "- N/A -   "
23.09, 699.083, 0.03851355, NaN, NaN, NaN, 0.0323506, "- N/A -   "
23.11, 699.7923, 0.0385413, NaN, NaN, NaN, 0.03601294, "- N/A -   "
23.13, 700.3837, 0.0385691, NaN, NaN, NaN, 0.0384545, "- N/A -   "
23.15, 701.2117, 0.03859407, NaN, NaN, NaN, 0.04089605, "- N/A -   "
23.17, 701.8031, 0.0386246, NaN, NaN, NaN, 0.0433376, "- N/A -   "
23.19, 702.6311, 0.0386524, NaN, NaN, NaN, 0.0445584, "- N/A -   "
23.21, 703.459, 0.0386829, NaN, NaN, NaN, 0.04577916, "- N/A -   "
23.23, 704.1687, 0.03871347, NaN, NaN, NaN, 0.04699994, "- N/A -   "
23.25, 705.1149, 0.0387468, NaN, NaN, NaN, 0.04699994, "- N/A -   "
23.27, 706.0612, 0.0387829, NaN, NaN, NaN, 0.04699994, "- N/A -   "
23.29, 707.126, 0.03881899, NaN, NaN, NaN, 0.04577916, "- N/A -   "
23.31, 708.1903, 0.0388579, NaN, NaN, NaN, 0.0433376, "- N/A -   "
23.33, 709.137, 0.03889674, NaN, NaN, NaN, 0.04089605, "- N/A -   "
23.35, 710.083, 0.0389328, NaN, NaN, NaN, 0.0396753, "- N/A -   "
23.37, 711.029, 0.0389662, NaN, NaN, NaN, 0.0396753, "- N/A -   "
23.39, 711.9752, 0.0390023, NaN, NaN, NaN, 0.0384545, "- N/A -   "
23.41, 712.921, 0.0390356, NaN, NaN, NaN, 0.0372337, "- N/A -   "
23.43, 713.868, 0.03907167, NaN, NaN, NaN, 0.03601294, "- N/A -   "
23.45, 714.814, 0.03910777, NaN, NaN, NaN, 0.03601294, "- N/A -   "
23.47, 715.76, 0.0391411, NaN, NaN, NaN, 0.03601294, "- N/A -   "
23.49, 716.5882, 0.03917441, NaN, NaN, NaN, 0.0347922, "- N/A -   "
23.51, 717.416, 0.0392077, NaN, NaN, NaN, 0.0347922, "- N/A -   "
23.53, 718.4807, 0.0392438, NaN, NaN, NaN, 0.0335714, "- N/A -   "
23.55, 719.5452, 0.0392827, NaN, NaN, NaN, 0.03112983, "- N/A -   "
23.57, 720.491, 0.0393188, NaN, NaN, NaN, 0.03112983, "- N/A -   "
23.59, 721.319, 0.0393549, NaN, NaN, NaN, 0.0299091, "- N/A -   "
23.61, 722.1474, 0.03938822, NaN, NaN, NaN, 0.0286883, "- N/A -   "
23.63, 723.0936, 0.03941877, NaN, NaN, NaN, 0.0299091, "- N/A -   "
23.65, 723.922, 0.0394549, NaN, NaN, NaN, 0.0286883, "- N/A -   "
23.67, 724.7496, 0.03948541, NaN, NaN, NaN, 0.0299091, "- N/A -   "
23.69, 725.5775, 0.039516, NaN, NaN, NaN, 0.03112983, "- N/A -   "
23.71, 726.2873, 0.03954372, NaN, NaN, NaN, 0.0335714, "- N/A -   "
23.73, 727.115, 0.03957149, NaN, NaN, NaN, 0.03601294, "- N/A -   "
23.75, 727.8249, 0.03960203, NaN, NaN, NaN, 0.0372337, "- N/A -   "
23.77, 728.535, 0.0396298, NaN, NaN, NaN, 0.0396753, "- N/A -   "
23.79, 729.126, 0.0396576, NaN, NaN, NaN, 0.04211683, "- N/A -   "
23.81, 729.9539, 0.03968534, NaN, NaN, NaN, 0.0445584, "- N/A -   "
23.83, 730.664, 0.03971588, NaN, NaN, NaN, 0.04577916, "- N/A -   "
23.85, 731.6099, 0.0397492, NaN, NaN, NaN, 0.04577916, "- N/A -   "
23.87, 732.556, 0.0397881, NaN, NaN, NaN, 0.0445584, "- N/A -   "
23.89, 733.5023, 0.0398214, NaN, NaN, NaN, 0.0433376, "- N/A -   "
23.91, 734.4486, 0.0398547, NaN, NaN, NaN, 0.0433376, "- N/A -   "
23.93, 735.277, 0.03988804, NaN, NaN, NaN, 0.0433376, "- N/A -   "
23.95, 735.986, 0.03992136, NaN, NaN, NaN, 0.0445584, "- N/A -   "
23.97, 736.933, 0.0399547, NaN, NaN, NaN, 0.0433376, "- N/A -   "
23.99, 737.997, 0.039988, NaN, NaN, NaN, 0.0433376, "- N/A -   "
24.01, 738.943, 0.0400241, NaN, NaN, NaN, 0.04211683, "- N/A -   "
24.03, 739.8895, 0.0400602, NaN, NaN, NaN, 0.04089605, "- N/A -   "
24.05, 740.954, 0.04010185, NaN, NaN, NaN, 0.0384545, "- N/A -   "
24.07, 742.1369, 0.0401407, NaN, NaN, NaN, 0.0347922, "- N/A -   "
24.09, 743.2014, 0.0401796, NaN, NaN, NaN, 0.0323506, "- N/A -   "
24.11, 744.266, 0.0402185, NaN, NaN, NaN, 0.0299091, "- N/A -   "
24.13, 745.212, 0.04025735, NaN, NaN, NaN, 0.0274675, "- N/A -   "
24.15, 746.2767, 0.0402934, NaN, NaN, NaN, 0.0274675, "- N/A -   "
24.17, 747.1047, 0.0403268, NaN, NaN, NaN, 0.0274675, "- N/A -   "
24.19, 747.9326, 0.04035731, NaN, NaN, NaN, 0.0274675, "- N/A -   "
24.21, 748.761, 0.04039063, NaN, NaN, NaN, 0.0274675, "- N/A -   "
24.23, 749.5886, 0.0404184, NaN, NaN, NaN, 0.0299091, "- N/A -   "
24.25, 750.2983, 0.04045172, NaN, NaN, NaN, 0.0299091, "- N/A -   "
24.27, 751.1262, 0.040485, NaN, NaN, NaN, 0.03112983, "- N/A -   "
24.29, 752.072, 0.0405156, NaN, NaN, NaN, 0.0323506, "- N/A -   "
24.31, 752.9, 0.04054335, NaN, NaN, NaN, 0.0335714, "- N/A -   "
24.33, 753.8467, 0.0405767, NaN, NaN, NaN, 0.0335714, "- N/A -   "
24.35, 754.556, 0.04061, NaN, NaN, NaN, 0.0347922, "- N/A -   "
24.37, 755.384, 0.0406433, NaN, NaN, NaN, 0.0347922, "- N/A -   "
24.39, 756.331, 0.04067386, NaN, NaN, NaN, 0.0347922, "- N/A -   "
24.41, 757.0402, 0.04070718, NaN, NaN, NaN, 0.0347922, "- N/A -   "
24.43, 758.1048, 0.0407405, NaN, NaN, NaN, 0.03601294, "- N/A -   "
24.45, 758.696, 0.04077105, NaN, NaN, NaN, 0.03601294, "- N/A -   "
24.47, 759.6424, 0.0408016, NaN, NaN, NaN, 0.0372337, "- N/A -   "
24.49, 760.3522, 0.0408321, NaN, NaN, NaN, 0.0384545, "- N/A -   "
24.51, 761.1801, 0.0408599, NaN, NaN, NaN, 0.04089605, "- N/A -   "
24.53, 761.8898, 0.04088767, NaN, NaN, NaN, 0.0433376, "- N/A -   "
24.55, 762.836, 0.04092099, NaN, NaN, NaN, 0.0433376, "- N/A -   "
24.57, 763.5457, 0.04095431, NaN, NaN, NaN, 0.0433376, "- N/A -   "
24.59, 764.492, 0.0409849, NaN, NaN, NaN, 0.0445584, "- N/A -   "
24.61, 765.438, 0.0410182, NaN, NaN, NaN, 0.04577916, "- N/A -   "
24.63, 766.1479, 0.0410515, NaN, NaN, NaN, 0.04577916, "- N/A -   "
24.65, 767.3307, 0.0410876, NaN, NaN, NaN, 0.0433376, "- N/A -   "
24.67, 768.277, 0.04112647, NaN, NaN, NaN, 0.04089605, "- N/A -   "
24.69, 769.4597, 0.0411653, NaN, NaN, NaN, 0.0384545, "- N/A -   "
24.71, 770.5243, 0.0412042, NaN, NaN, NaN, 0.03601294, "- N/A -   "
24.73, 771.5888, 0.04124587, NaN, NaN, NaN, 0.0335714, "- N/A -   "
24.75, 772.7716, 0.04128197, NaN, NaN, NaN, 0.03112983, "- N/A -   "
24.77, 773.5996, 0.0413181, NaN, NaN, NaN, 0.0299091, "- N/A -   "
24.79, 774.546, 0.04135139, NaN, NaN, NaN, 0.0299091, "- N/A -   "
24.81, 775.2555, 0.04138193, NaN, NaN, NaN, 0.0323506, "- N/A -   "
24.83, 775.8469, 0.0414069, NaN, NaN, NaN, 0.0347922, "- N/A -   "
24.85, 776.675, 0.0414375, NaN, NaN, NaN, 0.0372337, "- N/A -   "
24.87, 777.3845, 0.04146801, NaN, NaN, NaN, 0.0372337, "- N/A -   "
24.89, 778.212, 0.0415013, NaN, NaN, NaN, 0.0372337, "- N/A -   "
24.91, 779.277, 0.0415347, NaN, NaN, NaN, 0.0372337, "- N/A -   "
24.93, 780.223, 0.0415708, NaN, NaN, NaN, 0.0372337, "- N/A -   "
24.95, 781.0513, 0.04160407, NaN, NaN, NaN, 0.03601294, "- N/A -   "
24.97, 781.9975, 0.04164017, NaN, NaN, NaN, 0.0347922, "- N/A -   "
24.99, 783.1803, 0.041679, NaN, NaN, NaN, 0.0323506, "- N/A -   "
25.01, 784.1266, 0.0417151, NaN, NaN, NaN, 0.0323506, "- N/A -   "
25.03, 784.9545, 0.0417485, NaN, NaN, NaN, 0.03112983, "- N/A -   "
25.05, 785.901, 0.0417818, NaN, NaN, NaN, 0.03112983, "- N/A -   "
25.07, 786.729, 0.0418151, NaN, NaN, NaN, 0.0323506, "- N/A -   "
25.09, 787.4384, 0.04184287, NaN, NaN, NaN, 0.0335714, "- N/A -   "
25.11, 788.266, 0.0418734, NaN, NaN, NaN, 0.0347922, "- N/A -   "
25.13, 789.213, 0.04190396, NaN, NaN, NaN, 0.03601294, "- N/A -   "
25.15, 789.9223, 0.0419317, NaN, NaN, NaN, 0.0384545, "- N/A -   "
25.17, 790.514, 0.0419595, NaN, NaN, NaN, 0.04211683, "- N/A -   "
25.19, 791.342, 0.0419873, NaN, NaN, NaN, 0.0433376, "- N/A -   "
25.21, 792.288, 0.04202336, NaN, NaN, NaN, 0.0433376, "- N/A -   "
25.23, 793.2342, 0.04205946, NaN, NaN, NaN, 0.04089605, "- N/A -   "
25.25, 794.299, 0.0420983, NaN, NaN, NaN, 0.0396753, "- N/A -   "
25.27, 795.245, 0.04213443, NaN, NaN, NaN, 0.0372337, "- N/A -   "
25.29, 796.309, 0.04217053, NaN, NaN, NaN, 0.03601294, "- N/A -   "
25.31, 797.137, 0.0422011, NaN, NaN, NaN, 0.0372337, "- N/A -   "
25.33, 797.9654, 0.0422344, NaN, NaN, NaN, 0.0372337, "- N/A -   "
25.35, 798.9116, 0.0422705, NaN, NaN, NaN, 0.0372337, "- N/A -   "
25.37, 799.8579, 0.04230381, NaN, NaN, NaN, 0.03601294, "- N/A -   "
25.39, 800.686, 0.04233991, NaN, NaN, NaN, 0.03601294, "- N/A -   "
25.41, 801.6321, 0.0423705, NaN, NaN, NaN, 0.03601294, "- N/A -   "
25.43, 802.578, 0.0424038, NaN, NaN, NaN, 0.03601294, "- N/A -   "
25.45, 803.4063, 0.0424371, NaN, NaN, NaN, 0.03601294, "- N/A -   "
25.47, 804.234, 0.0424732, NaN, NaN, NaN, 0.03601294, "- N/A -   "
25.49, 805.181, 0.0425065, NaN, NaN, NaN, 0.0347922, "- N/A -   "
25.51, 806.1268, 0.0425426, NaN, NaN, NaN, 0.0335714, "- N/A -   "
25.53, 807.191, 0.0425787, NaN, NaN, NaN, 0.0323506, "- N/A -   "
25.55, 808.1376, 0.04261481, NaN, NaN, NaN, 0.03112983, "- N/A -   "
25.57, 808.9655, 0.04265091, NaN, NaN, NaN, 0.0299091, "- N/A -   "
25.59, 810.0301, 0.042687, NaN, NaN, NaN, 0.0299091, "- N/A -   "
25.61, 810.9763, 0.0427203, NaN, NaN, NaN, 0.0299091, "- N/A -   "
25.63, 811.804, 0.0427536, NaN, NaN, NaN, 0.0286883, "- N/A -   "
25.65, 812.751, 0.042787, NaN, NaN, NaN, 0.0286883, "- N/A -   "
25.67, 813.6968, 0.0428203, NaN, NaN, NaN, 0.0286883, "- N/A -   "
25.69, 814.643, 0.04285361, NaN, NaN, NaN, 0.0286883, "- N/A -   "
25.71, 815.471, 0.04288693, NaN, NaN, NaN, 0.0299091, "- N/A -   "
25.73, 816.181, 0.0429175, NaN, NaN, NaN, 0.0299091, "- N/A -   "
25.75, 817.0086, 0.04294524, NaN, NaN, NaN, 0.0323506, "- N/A -   "
25.77, 817.9549, 0.0429786, NaN, NaN, NaN, 0.0335714, "- N/A -   "
25.79, 818.665, 0.0430119, NaN, NaN, NaN, 0.0335714, "- N/A -   "
25.81, 819.729, 0.04304243, NaN, NaN, NaN, 0.0335714, "- N/A -   "
25.83, 820.4388, 0.043073, NaN, NaN, NaN, 0.0347922, "- N/A -   "
25.85, 821.1485, 0.0431007, NaN, NaN, NaN, 0.0372337, "- N/A -   "
25.87, 821.858, 0.04312851, NaN, NaN, NaN, 0.04089605, "- N/A -   "
25.89, 822.5679, 0.0431591, NaN, NaN, NaN, 0.04211683, "- N/A -   "
25.91, 823.3958, 0.04319237, NaN, NaN, NaN, 0.0433376, "- N/A -   "
25.93, 824.342, 0.04322292, NaN, NaN, NaN, 0.0433376, "- N/A -   "
25.95, 825.2883, 0.04325624, NaN, NaN, NaN, 0.0445584, "- N/A -   "
25.97, 825.998, 0.04328678, NaN, NaN, NaN, 0.0445584, "- N/A -   "
25.99, 826.708, 0.0433173, NaN, NaN, NaN, 0.04699994, "- N/A -   "
26.01, 827.6539, 0.0433479, NaN, NaN, NaN, 0.0482207, "- N/A -   "
26.03, 828.4819, 0.0433784, NaN, NaN, NaN, 0.0482207, "- N/A -   "
26.05, 829.4281, 0.0434117, NaN, NaN, NaN, 0.0482207, "- N/A -   "
26.07, 830.256, 0.04344506, NaN, NaN, NaN, 0.0482207, "- N/A -   "
26.09, 831.4389, 0.04348393, NaN, NaN, NaN, 0.04577916, "- N/A -   "
26.11, 832.6217, 0.04352836, NaN, NaN, NaN, 0.04089605, "- N/A -   "
26.13, 833.805, 0.04357001, NaN, NaN, NaN, 0.0372337, "- N/A -   "
26.15, 834.869, 0.0436089, NaN, NaN, NaN, 0.0347922, "- N/A -   "
26.17, 835.8153, 0.043645, NaN, NaN, NaN, 0.0335714, "- N/A -   "
26.19, 836.8798, 0.04368108, NaN, NaN, NaN, 0.0323506, "- N/A -   "
26.21, 837.708, 0.0437144, NaN, NaN, NaN, 0.0335714, "- N/A -   "
26.23, 838.536, 0.0437477, NaN, NaN, NaN, 0.0323506, "- N/A -   "
26.25, 839.3637, 0.0437755, NaN, NaN, NaN, 0.0347922, "- N/A -   "
26.27, 840.192, 0.0438088, NaN, NaN, NaN, 0.0347922, "- N/A -   "
26.29, 841.138, 0.0438421, NaN, NaN, NaN, 0.0347922, "- N/A -   "
26.31, 842.084, 0.04387823, NaN, NaN, NaN, 0.0335714, "- N/A -   "
26.33, 843.1487, 0.04391433, NaN, NaN, NaN, 0.0323506, "- N/A -   "
26.35, 844.095, 0.0439532, NaN, NaN, NaN, 0.03112983, "- N/A -   "
26.37, 845.1595, 0.0439893, NaN, NaN, NaN, 0.0286883, "- N/A -   "
26.39, 845.9874, 0.0440254, NaN, NaN, NaN, 0.0274675, "- N/A -   "
26.41, 846.9337, 0.0440615, NaN, NaN, NaN, 0.0262467, "- N/A -   "
26.43, 847.762, 0.044092, NaN, NaN, NaN, 0.0286883, "- N/A -   "
26.45, 848.5896, 0.04411981, NaN, NaN, NaN, 0.0299091, "- N/A -   "
26.47, 849.4176, 0.0441504, NaN, NaN, NaN, 0.0323506, "- N/A -   "
26.49, 850.009, 0.04417812, NaN, NaN, NaN, 0.0335714, "- N/A -   "
26.51, 850.8369, 0.0442087, NaN, NaN, NaN, 0.03601294, "- N/A -   "
26.53, 851.4284, 0.0442337, NaN, NaN, NaN, 0.0384545, "- N/A -   "
26.55, 852.138, 0.0442586, NaN, NaN, NaN, 0.04211683, "- N/A -   "
26.57, 852.8477, 0.0442864, NaN, NaN, NaN, 0.0445584, "- N/A -   "
26.59, 853.5574, 0.04431696, NaN, NaN, NaN, 0.04699994, "- N/A -   "
26.61, 854.385, 0.0443475, NaN, NaN, NaN, 0.04699994, "- N/A -   "
26.63, 855.3316, 0.0443808, NaN, NaN, NaN, 0.04699994, "- N/A -   "
26.65, 856.278, 0.0444141, NaN, NaN, NaN, 0.04699994, "- N/A -   "
26.67, 857.2241, 0.0444502, NaN, NaN, NaN, 0.04577916, "- N/A -   "
26.69, 858.17, 0.0444863, NaN, NaN, NaN, 0.0445584, "- N/A -   "
26.71, 859.2349, 0.04452244, NaN, NaN, NaN, 0.0433376, "- N/A -   "
26.73, 860.299, 0.04456131, NaN, NaN, NaN, 0.04211683, "- N/A -   "
26.75, 861.364, 0.04459741, NaN, NaN, NaN, 0.04089605, "- N/A -   "
26.77, 862.4285, 0.0446335, NaN, NaN, NaN, 0.0384545, "- N/A -   "
26.79, 863.3747, 0.0446696, NaN, NaN, NaN, 0.0372337, "- N/A -   "
26.81, 864.2027, 0.0447057, NaN, NaN, NaN, 0.0372337, "- N/A -   "
26.83, 865.3855, 0.044739, NaN, NaN, NaN, 0.03601294, "- N/A -   "
26.85, 866.213, 0.0447779, NaN, NaN, NaN, 0.0347922, "- N/A -   "
26.87, 867.1597, 0.044814, NaN, NaN, NaN, 0.0335714, "- N/A -   "
26.89, 868.224, 0.0448501, NaN, NaN, NaN, 0.03112983, "- N/A -   "
26.91, 869.289, 0.04488619, NaN, NaN, NaN, 0.0299091, "- N/A -   "
26.93, 870.235, 0.04492229, NaN, NaN, NaN, 0.0286883, "- N/A -   "
26.95, 871.1813, 0.0449584, NaN, NaN, NaN, 0.0274675, "- N/A -   "
26.97, 872.128, 0.0449945, NaN, NaN, NaN, 0.0262467, "- N/A -   "
26.99, 872.9555, 0.04502503, NaN, NaN, NaN, 0.0274675, "- N/A -   "
27.01, 873.902, 0.04505835, NaN, NaN, NaN, 0.0274675, "- N/A -   "
27.03, 874.6114, 0.0450917, NaN, NaN, NaN, 0.0286883, "- N/A -   "
27.05, 875.5577, 0.0451222, NaN, NaN, NaN, 0.0286883, "- N/A -   "
27.07, 876.3856, 0.0451555, NaN, NaN, NaN, 0.0286883, "- N/A -   "
27.09, 877.0953, 0.0451833, NaN, NaN, NaN, 0.03112983, "- N/A -   "
27.11, 877.9233, 0.0452139, NaN, NaN, NaN, 0.0323506, "- N/A -   "
27.13, 878.7512, 0.0452444, NaN, NaN, NaN, 0.0335714, "- N/A -   "
27.15, 879.579, 0.04527216, NaN, NaN, NaN, 0.03601294, "- N/A -   "
27.17, 880.289, 0.0453055, NaN, NaN, NaN, 0.03601294, "- N/A -   "
27.19, 880.9986, 0.04533325, NaN, NaN, NaN, 0.0384545, "- N/A -   "
27.21, 881.708, 0.045361, NaN, NaN, NaN, 0.04089605, "- N/A -   "
27.23, 882.536, 0.0453916, NaN, NaN, NaN, 0.0433376, "- N/A -   "
27.25, 883.3642, 0.0454193, NaN, NaN, NaN, 0.0445584, "- N/A -   "
27.27, 884.192, 0.04544987, NaN, NaN, NaN, 0.04577916, "- N/A -   "
27.29, 885.0201, 0.04548042, NaN, NaN, NaN, 0.04699994, "- N/A -   "
27.31, 885.9664, 0.0455137, NaN, NaN, NaN, 0.04699994, "- N/A -   "
27.33, 886.9126, 0.0455498, NaN, NaN, NaN, 0.04577916, "- N/A -   "
27.35, 887.8589, 0.0455859, NaN, NaN, NaN, 0.04577916, "- N/A -   "
27.37, 888.6868, 0.0456193, NaN, NaN, NaN, 0.04577916, "- N/A -   "
27.39, 889.751, 0.0456526, NaN, NaN, NaN, 0.0445584, "- N/A -   "
27.41, 890.579, 0.0456859, NaN, NaN, NaN, 0.0445584, "- N/A -   "
27.43, 891.5256, 0.045722, NaN, NaN, NaN, 0.0433376, "- N/A -   "
27.45, 892.4718, 0.0457553, NaN, NaN, NaN, 0.0433376, "- N/A -   "
27.47, 893.5364, 0.04579419, NaN, NaN, NaN, 0.04089605, "- N/A -   "
27.49, 894.7191, 0.0458331, NaN, NaN, NaN, 0.0384545, "- N/A -   "
27.51, 895.902, 0.0458747, NaN, NaN, NaN, 0.0347922, "- N/A -   "
27.53, 896.9665, 0.0459164, NaN, NaN, NaN, 0.0323506, "- N/A -   "
27.55, 898.031, 0.0459525, NaN, NaN, NaN, 0.0299091, "- N/A -   "
27.57, 898.859, 0.0459858, NaN, NaN, NaN, 0.0299091, "- N/A -   "
27.59, 899.805, 0.0460191, NaN, NaN, NaN, 0.0299091, "- N/A -   "
27.61, 900.6332, 0.0460524, NaN, NaN, NaN, 0.0299091, "- N/A -   "
27.63, 901.579, 0.046083, NaN, NaN, NaN, 0.03112983, "- N/A -   "
27.65, 902.2891, 0.0461163, NaN, NaN, NaN, 0.03112983, "- N/A -   "
27.67, 903.235, 0.0461496, NaN, NaN, NaN, 0.0323506, "- N/A -   "
27.69, 904.063, 0.04618016, NaN, NaN, NaN, 0.0323506, "- N/A -   "
27.71, 905.128, 0.0462135, NaN, NaN, NaN, 0.0335714, "- N/A -   "
27.73, 905.9558, 0.046244, NaN, NaN, NaN, 0.0335714, "- N/A -   "
27.732, 906.074, 0.0462468, NaN, NaN, NaN, 0.0347922, "- N/A -   "