File: 2_Tensile_Data/Hamel_ForceTest_Bolt7_Test10.csv
Time, Load (lb), Position (in), AxialStrain (in), TransverseStrain (in), Auxiliary (), Control Out (V), Stress (psi)
0.0, 11.323, 0.0, NaN, NaN, NaN, -0.006714277, "- N/A -   "
0.01, 11.4409, 2.776752E-6, NaN, NaN, NaN, -6.103888E-4, "- N/A -   "
0.02, 11.4409, 2.776752E-6, NaN, NaN, NaN, 0.006714277, "- N/A -   "
0.03, 11.323, 2.776752E-6, NaN, NaN, NaN, 0.0250259, "- N/A -   "
0.04, 11.4409, 8.330256E-6, NaN, NaN, NaN, 0.04211683, "- N/A -   "
0.05, 11.6768, 1.94373e-05, NaN, NaN, NaN, 0.05676616, "- N/A -   "
0.06, 12.14859, 3.3321e-05, NaN, NaN, NaN, 0.0701947, "- N/A -   "
0.07, 12.5024, 5.5535e-05, NaN, NaN, NaN, 0.0799609, "- N/A -   "
0.08, 13.2101, 8.05258E-5, NaN, NaN, NaN, 0.08850638, "- N/A -   "
0.09, 13.9178, 0.00011107, NaN, NaN, NaN, 0.09461027, "- N/A -   "
0.1, 14.5075, 0.000141614, NaN, NaN, NaN, 0.09461027, "- N/A -   "
0.11, 15.2152, 0.000174935, NaN, NaN, NaN, 0.08850638, "- N/A -   "
0.12, 15.805, 0.000202703, NaN, NaN, NaN, 0.08362327, "- N/A -   "
0.13, 16.3947, 0.000227694, NaN, NaN, NaN, 0.0799609, "- N/A -   "
0.14, 16.9844, 2.526844E-4, NaN, NaN, NaN, 0.0762986, "- N/A -   "
0.15, 17.4562, 0.000274898, NaN, NaN, NaN, 0.07385705, "- N/A -   "
0.16, 17.8101, 0.000294336, NaN, NaN, NaN, 0.07141549, "- N/A -   "
0.17, 18.2819, 3.165497E-4, NaN, NaN, NaN, 0.0689739, "- N/A -   "
0.18, 18.6357, 0.000335987, NaN, NaN, NaN, 0.06775316, "- N/A -   "
0.19, 18.9895, 0.000352647, NaN, NaN, NaN, 0.06775316, "- N/A -   "
0.2, 19.4613, 3.748615E-4, NaN, NaN, NaN, 0.06653238, "- N/A -   "
0.21, 19.8152, 0.000394299, NaN, NaN, NaN, 0.0653116, "- N/A -   "
0.22, 20.169, 4.13736E-4, NaN, NaN, NaN, 0.06287005, "- N/A -   "
0.23, 20.52286, 4.331733E-4, NaN, NaN, NaN, 0.06164927, "- N/A -   "
0.24, 20.8767, 0.000449834, NaN, NaN, NaN, 0.06164927, "- N/A -   "
0.25, 21.2305, 4.720478E-4, NaN, NaN, NaN, 0.0604285, "- N/A -   "
0.26, 21.5844, 0.000491485, NaN, NaN, NaN, 0.0592077, "- N/A -   "
0.27, 21.93823, 0.000510922, NaN, NaN, NaN, 0.0579869, "- N/A -   "
0.28, 22.29207, 0.000527583, NaN, NaN, NaN, 0.05676616, "- N/A -   "
0.29, 22.6459, 5.470201E-4, NaN, NaN, NaN, 0.0555454, "- N/A -   "
0.3, 22.9998, 5.664574E-4, NaN, NaN, NaN, 0.0543246, "- N/A -   "
0.31, 23.4715, 0.000588671, NaN, NaN, NaN, 0.0531038, "- N/A -   "
0.32, 23.82539, 0.000608109, NaN, NaN, NaN, 0.05066227, "- N/A -   "
0.33, 24.1792, 0.000627546, NaN, NaN, NaN, 0.0494415, "- N/A -   "
0.34, 24.5331, 0.000646983, NaN, NaN, NaN, 0.0482207, "- N/A -   "
0.35, 25.0049, 0.00066642, NaN, NaN, NaN, 0.04699994, "- N/A -   "
0.36, 25.3587, 6.858577E-4, NaN, NaN, NaN, 0.04577916, "- N/A -   "
0.37, 25.5946, 0.000705295, NaN, NaN, NaN, 0.0445584, "- N/A -   "
0.38, 26.0664, 0.000724732, NaN, NaN, NaN, 0.0433376, "- N/A -   "
0.39, 26.4202, 0.000744169, NaN, NaN, NaN, 0.04211683, "- N/A -   "
0.4, 26.892, 7.6083E-4, NaN, NaN, NaN, 0.04211683, "- N/A -   "
0.41, 27.1279, 0.000780267, NaN, NaN, NaN, 0.04089605, "- N/A -   "
0.42, 27.4818, 7.997045E-4, NaN, NaN, NaN, 0.0396753, "- N/A -   "
0.43, 27.95355, 8.191418E-4, NaN, NaN, NaN, 0.0396753, "- N/A -   "
0.44, 28.1894, 8.358023E-4, NaN, NaN, NaN, 0.0396753, "- N/A -   "
0.45, 28.54329, 8.524628E-4, NaN, NaN, NaN, 0.0384545, "- N/A -   "
0.46, 29.0151, 0.0008719, NaN, NaN, NaN, 0.0384545, "- N/A -   "
0.47, 29.251, 8.885606E-4, NaN, NaN, NaN, 0.0372337, "- N/A -   "
0.48, 29.6048, 9.052211E-4, NaN, NaN, NaN, 0.0372337, "- N/A -   "
0.49, 29.9587, 9.218816E-4, NaN, NaN, NaN, 0.0372337, "- N/A -   "
0.5, 30.1946, 9.385421E-4, NaN, NaN, NaN, 0.0384545, "- N/A -   "
0.51, 30.6663, 9.552026E-4, NaN, NaN, NaN, 0.0372337, "- N/A -   "
0.52, 30.78429, 9.746399E-4, NaN, NaN, NaN, 0.03601294, "- N/A -   "
0.53, 31.374, 9.940772E-4, NaN, NaN, NaN, 0.03601294, "- N/A -   "
0.54, 31.6099, 0.00101074, NaN, NaN, NaN, 0.0347922, "- N/A -   "
0.55, 32.08171, 0.00103017, NaN, NaN, NaN, 0.0335714, "- N/A -   "
0.56, 32.4356, 0.00104684, NaN, NaN, NaN, 0.0335714, "- N/A -   "
0.57, 32.67145, 0.001063496, NaN, NaN, NaN, 0.0335714, "- N/A -   "
0.58, 33.02529, 0.00108293, NaN, NaN, NaN, 0.0323506, "- N/A -   "
0.59, 33.49708, 0.00109959, NaN, NaN, NaN, 0.0323506, "- N/A -   "
0.6, 33.8509, 0.001119031, NaN, NaN, NaN, 0.03112983, "- N/A -   "
0.61, 34.2048, 0.00113569, NaN, NaN, NaN, 0.03112983, "- N/A -   "
0.62, 34.55861, 0.00115513, NaN, NaN, NaN, 0.0299091, "- N/A -   "
0.63, 34.9125, 0.00117179, NaN, NaN, NaN, 0.03112983, "- N/A -   "
0.64, 35.3842, 0.00118845, NaN, NaN, NaN, 0.0299091, "- N/A -   "
0.65, 35.6201, 0.00120511, NaN, NaN, NaN, 0.0299091, "- N/A -   "
0.66, 35.97398, 0.00122177, NaN, NaN, NaN, 0.03112983, "- N/A -   "
0.67, 36.2099, 0.00123565, NaN, NaN, NaN, 0.03112983, "- N/A -   "
0.68, 36.6817, 0.00125232, NaN, NaN, NaN, 0.03112983, "- N/A -   "
0.69, 36.79961, 0.0012662, NaN, NaN, NaN, 0.0323506, "- N/A -   "
0.7, 37.15345, 0.00128286, NaN, NaN, NaN, 0.0335714, "- N/A -   "
0.71, 37.5073, 0.001296743, NaN, NaN, NaN, 0.0347922, "- N/A -   "
0.72, 37.74319, 0.00131063, NaN, NaN, NaN, 0.0347922, "- N/A -   "
0.73, 37.9791, 0.00132451, NaN, NaN, NaN, 0.03601294, "- N/A -   "
0.74, 38.3329, 0.00134117, NaN, NaN, NaN, 0.0372337, "- N/A -   "
0.75, 38.5688, 0.00135228, NaN, NaN, NaN, 0.0384545, "- N/A -   "
0.76, 38.9227, 0.00136894, NaN, NaN, NaN, 0.0384545, "- N/A -   "
0.77, 39.2765, 0.00138282, NaN, NaN, NaN, 0.0396753, "- N/A -   "
0.78, 39.6304, 0.001399483, NaN, NaN, NaN, 0.0396753, "- N/A -   "
0.79, 39.7483, 0.00141337, NaN, NaN, NaN, 0.04089605, "- N/A -   "
0.8, 40.10214, 0.00142725, NaN, NaN, NaN, 0.04211683, "- N/A -   "
0.81, 40.456, 0.001443911, NaN, NaN, NaN, 0.04211683, "- N/A -   "
0.82, 40.8098, 0.00146057, NaN, NaN, NaN, 0.04211683, "- N/A -   "
0.83, 41.04572, 0.001477232, NaN, NaN, NaN, 0.04211683, "- N/A -   "
0.84, 41.51751, 0.00149389, NaN, NaN, NaN, 0.04211683, "- N/A -   "
0.85, 41.7534, 0.00150778, NaN, NaN, NaN, 0.0433376, "- N/A -   "
0.86, 42.2252, 0.00152444, NaN, NaN, NaN, 0.0433376, "- N/A -   "
0.87, 42.579, 0.0015411, NaN, NaN, NaN, 0.0433376, "- N/A -   "
0.88, 42.8149, 0.00155776, NaN, NaN, NaN, 0.0433376, "- N/A -   "
0.89, 43.40467, 0.00157442, NaN, NaN, NaN, 0.0433376, "- N/A -   "
0.9, 43.6406, 0.00159108, NaN, NaN, NaN, 0.0433376, "- N/A -   "
0.91, 43.9944, 0.00160774, NaN, NaN, NaN, 0.0433376, "- N/A -   "
0.92, 44.2303, 0.0016244, NaN, NaN, NaN, 0.0433376, "- N/A -   "
0.93, 44.70209, 0.00164106, NaN, NaN, NaN, 0.0433376, "- N/A -   "
0.94, 44.93799, 0.00165772, NaN, NaN, NaN, 0.0445584, "- N/A -   "
0.95, 45.40978, 0.0016716, NaN, NaN, NaN, 0.0445584, "- N/A -   "
0.96, 45.76362, 0.00169104, NaN, NaN, NaN, 0.0445584, "- N/A -   "
0.97, 45.9995, 0.00170493, NaN, NaN, NaN, 0.0445584, "- N/A -   "
0.98, 46.4713, 0.00172436, NaN, NaN, NaN, 0.0445584, "- N/A -   "
0.99, 46.9431, 0.0017438, NaN, NaN, NaN, 0.0433376, "- N/A -   "
1, 47.2969, 0.00176046, NaN, NaN, NaN, 0.04211683, "- N/A -   "
1.01, 47.7687, 0.001779898, NaN, NaN, NaN, 0.04089605, "- N/A -   "
1.02, 48.2405, 0.00179934, NaN, NaN, NaN, 0.0396753, "- N/A -   "
1.03, 48.59436, 0.001816, NaN, NaN, NaN, 0.0396753, "- N/A -   "
1.04, 49.0661, 0.001835433, NaN, NaN, NaN, 0.0384545, "- N/A -   "
1.05, 49.30204, 0.00185487, NaN, NaN, NaN, 0.0372337, "- N/A -   "
1.06, 49.7738, 0.00187153, NaN, NaN, NaN, 0.0372337, "- N/A -   "
1.07, 50.2456, 0.00189374, NaN, NaN, NaN, 0.03601294, "- N/A -   "
1.08, 50.7174, 0.00191041, NaN, NaN, NaN, 0.0347922, "- N/A -   "
1.09, 51.1892, 0.00193262, NaN, NaN, NaN, 0.0323506, "- N/A -   "
1.1, 51.66099, 0.00195206, NaN, NaN, NaN, 0.0323506, "- N/A -   "
1.11, 52.01483, 0.00197149, NaN, NaN, NaN, 0.03112983, "- N/A -   "
1.12, 52.48662, 0.001990931, NaN, NaN, NaN, 0.0286883, "- N/A -   "
1.13, 52.9584, 0.00200759, NaN, NaN, NaN, 0.0286883, "- N/A -   "
1.14, 53.3123, 0.002024252, NaN, NaN, NaN, 0.0286883, "- N/A -   "
1.15, 53.6661, 0.00204369, NaN, NaN, NaN, 0.0286883, "- N/A -   "
1.16, 54.0199, 0.00206035, NaN, NaN, NaN, 0.0274675, "- N/A -   "
1.17, 54.4917, 0.00207979, NaN, NaN, NaN, 0.0274675, "- N/A -   "
1.18, 54.9635, 0.002093671, NaN, NaN, NaN, 0.0274675, "- N/A -   "
1.19, 55.3174, 0.00211033, NaN, NaN, NaN, 0.0274675, "- N/A -   "
1.2, 55.55326, 0.00212977, NaN, NaN, NaN, 0.0274675, "- N/A -   "
1.21, 55.9071, 0.00214365, NaN, NaN, NaN, 0.0274675, "- N/A -   "
1.22, 56.37889, 0.002157536, NaN, NaN, NaN, 0.0286883, "- N/A -   "
1.23, 56.6148, 0.0021742, NaN, NaN, NaN, 0.0286883, "- N/A -   "
1.24, 56.9686, 0.00218808, NaN, NaN, NaN, 0.0299091, "- N/A -   "
1.25, 57.20452, 0.00220196, NaN, NaN, NaN, 0.03112983, "- N/A -   "
1.26, 57.44042, 0.00221585, NaN, NaN, NaN, 0.0323506, "- N/A -   "
1.27, 57.79426, 0.00222973, NaN, NaN, NaN, 0.0335714, "- N/A -   "
1.28, 58.1481, 0.00224639, NaN, NaN, NaN, 0.0347922, "- N/A -   "
1.29, 58.6199, 0.002260276, NaN, NaN, NaN, 0.0347922, "- N/A -   "
1.3, 58.9737, 0.00227694, NaN, NaN, NaN, 0.0347922, "- N/A -   "
1.31, 59.3276, 0.002293597, NaN, NaN, NaN, 0.0347922, "- N/A -   "
1.32, 59.68142, 0.00231026, NaN, NaN, NaN, 0.0347922, "- N/A -   "
1.33, 60.15321, 0.002326918, NaN, NaN, NaN, 0.03601294, "- N/A -   "
1.34, 60.5071, 0.00234358, NaN, NaN, NaN, 0.03601294, "- N/A -   "
1.35, 60.8609, 0.00235746, NaN, NaN, NaN, 0.03601294, "- N/A -   "
1.36, 61.2147, 0.00237412, NaN, NaN, NaN, 0.03601294, "- N/A -   "
1.37, 61.56858, 0.00239356, NaN, NaN, NaN, 0.03601294, "- N/A -   "
1.38, 61.9224, 0.00241022, NaN, NaN, NaN, 0.03601294, "- N/A -   "
1.39, 62.3942, 0.002426881, NaN, NaN, NaN, 0.0347922, "- N/A -   "
1.4, 62.866, 0.00244354, NaN, NaN, NaN, 0.0347922, "- N/A -   "
1.41, 63.2198, 0.0024602, NaN, NaN, NaN, 0.0347922, "- N/A -   "
1.42, 63.5737, 0.00247964, NaN, NaN, NaN, 0.0335714, "- N/A -   "
1.43, 64.04548, 0.0024963, NaN, NaN, NaN, 0.0347922, "- N/A -   "
1.44, 64.3993, 0.00251018, NaN, NaN, NaN, 0.0347922, "- N/A -   "
1.45, 64.75317, 0.00252684, NaN, NaN, NaN, 0.0347922, "- N/A -   "
1.46, 64.98906, 0.002540728, NaN, NaN, NaN, 0.03601294, "- N/A -   "
1.47, 65.4608, 0.00255461, NaN, NaN, NaN, 0.0372337, "- N/A -   "
1.48, 65.69674, 0.0025685, NaN, NaN, NaN, 0.0384545, "- N/A -   "
1.49, 66.05058, 0.00258238, NaN, NaN, NaN, 0.0396753, "- N/A -   "
1.5, 66.2865, 0.002596263, NaN, NaN, NaN, 0.04089605, "- N/A -   "
1.51, 66.64032, 0.00261015, NaN, NaN, NaN, 0.04211683, "- N/A -   "
1.52, 67.1121, 0.00262403, NaN, NaN, NaN, 0.0433376, "- N/A -   "
1.53, 67.34801, 0.00264069, NaN, NaN, NaN, 0.0433376, "- N/A -   "
1.54, 67.70185, 0.00265735, NaN, NaN, NaN, 0.0433376, "- N/A -   "
1.55, 68.17364, 0.00267401, NaN, NaN, NaN, 0.0433376, "- N/A -   "
1.56, 68.52748, 0.00269067, NaN, NaN, NaN, 0.0445584, "- N/A -   "
1.57, 68.8813, 0.002707333, NaN, NaN, NaN, 0.0445584, "- N/A -   "
1.58, 69.23517, 0.00272399, NaN, NaN, NaN, 0.0433376, "- N/A -   "
1.59, 69.8249, 0.00274065, NaN, NaN, NaN, 0.0445584, "- N/A -   "
1.6, 70.17874, 0.00275454, NaN, NaN, NaN, 0.0445584, "- N/A -   "
1.61, 70.41464, 0.00276842, NaN, NaN, NaN, 0.04577916, "- N/A -   "
1.62, 70.7685, 0.00278786, NaN, NaN, NaN, 0.04577916, "- N/A -   "
1.63, 71.24027, 0.00280452, NaN, NaN, NaN, 0.0445584, "- N/A -   "
1.64, 71.71206, 0.00282396, NaN, NaN, NaN, 0.0445584, "- N/A -   "
1.65, 72.1838, 0.002843394, NaN, NaN, NaN, 0.04211683, "- N/A -   "
1.66, 72.77359, 0.00286561, NaN, NaN, NaN, 0.04089605, "- N/A -   "
1.67, 73.2454, 0.00288505, NaN, NaN, NaN, 0.0384545, "- N/A -   "
1.68, 73.71717, 0.00290448, NaN, NaN, NaN, 0.0372337, "- N/A -   "
1.69, 74.189, 0.00292392, NaN, NaN, NaN, 0.0372337, "- N/A -   "
1.7, 74.5428, 0.00294058, NaN, NaN, NaN, 0.03601294, "- N/A -   "
1.71, 74.8966, 0.002957241, NaN, NaN, NaN, 0.03601294, "- N/A -   "
1.72, 75.36844, 0.00297668, NaN, NaN, NaN, 0.0347922, "- N/A -   "
1.73, 75.7223, 0.00299334, NaN, NaN, NaN, 0.0347922, "- N/A -   "
1.74, 76.31202, 0.003009999, NaN, NaN, NaN, 0.0347922, "- N/A -   "
1.75, 76.6659, 0.00302944, NaN, NaN, NaN, 0.0335714, "- N/A -   "
1.76, 77.13765, 0.00304887, NaN, NaN, NaN, 0.0335714, "- N/A -   "
1.77, 77.49149, 0.003065534, NaN, NaN, NaN, 0.0323506, "- N/A -   "
1.78, 78.08122, 0.00308219, NaN, NaN, NaN, 0.0323506, "- N/A -   "
1.79, 78.31712, 0.003098855, NaN, NaN, NaN, 0.0335714, "- N/A -   "
1.8, 78.78891, 0.00311552, NaN, NaN, NaN, 0.0323506, "- N/A -   "
1.81, 79.0248, 0.00313218, NaN, NaN, NaN, 0.0323506, "- N/A -   "
1.82, 79.4966, 0.00314884, NaN, NaN, NaN, 0.0323506, "- N/A -   "
1.83, 79.85043, 0.003165497, NaN, NaN, NaN, 0.0335714, "- N/A -   "
1.84, 80.32223, 0.00318216, NaN, NaN, NaN, 0.0335714, "- N/A -   "
1.85, 80.55813, 0.00319604, NaN, NaN, NaN, 0.0347922, "- N/A -   "
1.86, 81.0299, 0.003209925, NaN, NaN, NaN, 0.0347922, "- N/A -   "
1.87, 81.38376, 0.00322659, NaN, NaN, NaN, 0.0347922, "- N/A -   "
1.88, 81.8555, 0.003243246, NaN, NaN, NaN, 0.0347922, "- N/A -   "
1.89, 82.09144, 0.00325991, NaN, NaN, NaN, 0.03601294, "- N/A -   "
1.9, 82.56323, 0.00327379, NaN, NaN, NaN, 0.03601294, "- N/A -   "
1.91, 82.79912, 0.00329045, NaN, NaN, NaN, 0.0372337, "- N/A -   "
1.92, 83.15297, 0.00330433, NaN, NaN, NaN, 0.0372337, "- N/A -   "
1.93, 83.50681, 0.00331822, NaN, NaN, NaN, 0.0384545, "- N/A -   "
1.94, 83.9786, 0.00333488, NaN, NaN, NaN, 0.0384545, "- N/A -   "
1.95, 84.33244, 0.00335154, NaN, NaN, NaN, 0.0384545, "- N/A -   "
1.96, 84.68629, 0.00337098, NaN, NaN, NaN, 0.0384545, "- N/A -   "
1.97, 85.15807, 0.00338764, NaN, NaN, NaN, 0.0372337, "- N/A -   "
1.98, 85.62987, 0.0034043, NaN, NaN, NaN, 0.0372337, "- N/A -   "
1.99, 86.1017, 0.003423735, NaN, NaN, NaN, 0.03601294, "- N/A -   "
2, 86.57345, 0.00344317, NaN, NaN, NaN, 0.0347922, "- N/A -   "
2.01, 87.16318, 0.00346261, NaN, NaN, NaN, 0.0335714, "- N/A -   "
2.02, 87.63497, 0.00348205, NaN, NaN, NaN, 0.0323506, "- N/A -   "
2.03, 87.9888, 0.00350148, NaN, NaN, NaN, 0.0323506, "- N/A -   "
2.04, 88.4606, 0.00351814, NaN, NaN, NaN, 0.03112983, "- N/A -   "
2.05, 88.8144, 0.00353481, NaN, NaN, NaN, 0.0323506, "- N/A -   "
2.06, 89.28623, 0.00354869, NaN, NaN, NaN, 0.0323506, "- N/A -   "
2.07, 89.52213, 0.00356257, NaN, NaN, NaN, 0.0335714, "- N/A -   "
2.08, 89.758, 0.00357923, NaN, NaN, NaN, 0.0335714, "- N/A -   "
2.09, 90.22981, 0.00359589, NaN, NaN, NaN, 0.0347922, "- N/A -   "
2.1, 90.70161, 0.00360978, NaN, NaN, NaN, 0.0347922, "- N/A -   "
2.11, 91.05545, 0.00362366, NaN, NaN, NaN, 0.03601294, "- N/A -   "
2.12, 91.40929, 0.00364032, NaN, NaN, NaN, 0.03601294, "- N/A -   "
2.13, 91.76313, 0.00365421, NaN, NaN, NaN, 0.0372337, "- N/A -   "
2.14, 91.99903, 0.00366809, NaN, NaN, NaN, 0.0384545, "- N/A -   "
2.15, 92.47082, 0.00368475, NaN, NaN, NaN, 0.0396753, "- N/A -   "
2.16, 92.82466, 0.00369863, NaN, NaN, NaN, 0.04089605, "- N/A -   "
2.17, 93.1785, 0.00371252, NaN, NaN, NaN, 0.04089605, "- N/A -   "
2.18, 93.53234, 0.00372918, NaN, NaN, NaN, 0.04089605, "- N/A -   "
2.19, 93.8862, 0.00374584, NaN, NaN, NaN, 0.04211683, "- N/A -   "
2.2, 94.35797, 0.003759722, NaN, NaN, NaN, 0.04211683, "- N/A -   "
2.21, 94.7118, 0.00377916, NaN, NaN, NaN, 0.04089605, "- N/A -   "
2.22, 95.18361, 0.00379582, NaN, NaN, NaN, 0.04089605, "- N/A -   "
2.23, 95.6554, 0.003815257, NaN, NaN, NaN, 0.04089605, "- N/A -   "
2.24, 96.12719, 0.00383192, NaN, NaN, NaN, 0.0396753, "- N/A -   "
2.25, 96.71693, 0.00385135, NaN, NaN, NaN, 0.0384545, "- N/A -   "
2.26, 97.18872, 0.00386802, NaN, NaN, NaN, 0.0384545, "- N/A -   "
2.27, 97.54256, 0.00388745, NaN, NaN, NaN, 0.0384545, "- N/A -   "
2.28, 98.01435, 0.003904113, NaN, NaN, NaN, 0.0384545, "- N/A -   "
2.29, 98.3682, 0.003917997, NaN, NaN, NaN, 0.0384545, "- N/A -   "
2.3, 98.72203, 0.00393466, NaN, NaN, NaN, 0.0384545, "- N/A -   "
2.31, 99.1938, 0.003948541, NaN, NaN, NaN, 0.0396753, "- N/A -   "
2.32, 99.42972, 0.003965202, NaN, NaN, NaN, 0.0396753, "- N/A -   "
2.33, 99.9015, 0.003981862, NaN, NaN, NaN, 0.0396753, "- N/A -   "
2.34, 100.491, 0.0040013, NaN, NaN, NaN, 0.0384545, "- N/A -   "
2.35, 100.845, 0.00402074, NaN, NaN, NaN, 0.0372337, "- N/A -   "
2.36, 101.317, 0.004040174, NaN, NaN, NaN, 0.0372337, "- N/A -   "
2.37, 101.671, 0.00405683, NaN, NaN, NaN, 0.0372337, "- N/A -   "
2.38, 102.143, 0.004073495, NaN, NaN, NaN, 0.03601294, "- N/A -   "
2.39, 102.6143, 0.00409016, NaN, NaN, NaN, 0.03601294, "- N/A -   "
2.4, 103.086, 0.004106816, NaN, NaN, NaN, 0.03601294, "- N/A -   "
2.41, 103.558, 0.004126253, NaN, NaN, NaN, 0.0347922, "- N/A -   "
2.42, 103.912, 0.00414291, NaN, NaN, NaN, 0.0347922, "- N/A -   "
2.43, 104.266, 0.00415957, NaN, NaN, NaN, 0.0347922, "- N/A -   "
2.44, 104.737, 0.004176235, NaN, NaN, NaN, 0.03601294, "- N/A -   "
2.45, 105.091, 0.00419012, NaN, NaN, NaN, 0.03601294, "- N/A -   "
2.46, 105.563, 0.004206779, NaN, NaN, NaN, 0.03601294, "- N/A -   "
2.47, 105.917, 0.00422344, NaN, NaN, NaN, 0.0372337, "- N/A -   "
2.48, 106.271, 0.0042401, NaN, NaN, NaN, 0.0372337, "- N/A -   "
2.49, 106.625, 0.004253984, NaN, NaN, NaN, 0.0372337, "- N/A -   "
2.5, 106.978, 0.00426787, NaN, NaN, NaN, 0.0384545, "- N/A -   "
2.51, 107.3322, 0.004284528, NaN, NaN, NaN, 0.0384545, "- N/A -   "
2.52, 107.804, 0.00430397, NaN, NaN, NaN, 0.0384545, "- N/A -   "
2.53, 108.276, 0.00432063, NaN, NaN, NaN, 0.0384545, "- N/A -   "
2.54, 108.63, 0.004337286, NaN, NaN, NaN, 0.0372337, "- N/A -   "
2.55, 109.101, 0.00435672, NaN, NaN, NaN, 0.03601294, "- N/A -   "
2.56, 109.691, 0.004376161, NaN, NaN, NaN, 0.0347922, "- N/A -   "
2.57, 110.163, 0.004395598, NaN, NaN, NaN, 0.0335714, "- N/A -   "
2.58, 110.517, 0.00441504, NaN, NaN, NaN, 0.0335714, "- N/A -   "
2.59, 111.107, 0.00442892, NaN, NaN, NaN, 0.0335714, "- N/A -   "
2.6, 111.578, 0.00444836, NaN, NaN, NaN, 0.0335714, "- N/A -   "
2.61, 112.0501, 0.004465017, NaN, NaN, NaN, 0.0323506, "- N/A -   "
2.62, 112.286, 0.00448168, NaN, NaN, NaN, 0.0335714, "- N/A -   "
2.63, 112.758, 0.004495561, NaN, NaN, NaN, 0.0335714, "- N/A -   "
2.64, 113.23, 0.004512222, NaN, NaN, NaN, 0.0335714, "- N/A -   "
2.65, 113.465, 0.00452888, NaN, NaN, NaN, 0.0335714, "- N/A -   "
2.66, 113.937, 0.004545543, NaN, NaN, NaN, 0.0347922, "- N/A -   "
2.67, 114.409, 0.00455943, NaN, NaN, NaN, 0.0347922, "- N/A -   "
2.68, 114.763, 0.004576087, NaN, NaN, NaN, 0.0347922, "- N/A -   "
2.69, 115.235, 0.004595524, NaN, NaN, NaN, 0.0347922, "- N/A -   "
2.7, 115.824, 0.004612185, NaN, NaN, NaN, 0.0335714, "- N/A -   "
2.71, 116.178, 0.004631622, NaN, NaN, NaN, 0.0323506, "- N/A -   "
2.72, 116.5321, 0.004645506, NaN, NaN, NaN, 0.0335714, "- N/A -   "
2.73, 117.004, 0.00466217, NaN, NaN, NaN, 0.0335714, "- N/A -   "
2.74, 117.358, 0.004678827, NaN, NaN, NaN, 0.0335714, "- N/A -   "
2.75, 117.83, 0.004698264, NaN, NaN, NaN, 0.0323506, "- N/A -   "
2.76, 118.301, 0.00471492, NaN, NaN, NaN, 0.0323506, "- N/A -   "
2.77, 118.7731, 0.00473159, NaN, NaN, NaN, 0.0323506, "- N/A -   "
2.78, 119.127, 0.00475102, NaN, NaN, NaN, 0.03112983, "- N/A -   "
2.79, 119.599, 0.004764906, NaN, NaN, NaN, 0.0323506, "- N/A -   "
2.8, 119.953, 0.00478157, NaN, NaN, NaN, 0.0323506, "- N/A -   "
2.81, 120.306, 0.004798227, NaN, NaN, NaN, 0.0335714, "- N/A -   "
2.82, 120.66, 0.004812111, NaN, NaN, NaN, 0.0335714, "- N/A -   "
2.83, 121.132, 0.004828771, NaN, NaN, NaN, 0.0335714, "- N/A -   "
2.84, 121.486, 0.00484266, NaN, NaN, NaN, 0.0347922, "- N/A -   "
2.85, 121.958, 0.004859315, NaN, NaN, NaN, 0.0347922, "- N/A -   "
2.86, 122.312, 0.0048732, NaN, NaN, NaN, 0.03601294, "- N/A -   "
2.87, 122.665, 0.00488986, NaN, NaN, NaN, 0.0372337, "- N/A -   "
2.88, 123.019, 0.004903744, NaN, NaN, NaN, 0.0372337, "- N/A -   "
2.89, 123.491, 0.004917627, NaN, NaN, NaN, 0.0384545, "- N/A -   "
2.9, 123.845, 0.004934288, NaN, NaN, NaN, 0.0384545, "- N/A -   "
2.91, 124.199, 0.00495095, NaN, NaN, NaN, 0.0384545, "- N/A -   "
2.92, 124.67, 0.004967609, NaN, NaN, NaN, 0.0396753, "- N/A -   "
2.93, 125.142, 0.004981493, NaN, NaN, NaN, 0.0396753, "- N/A -   "
2.94, 125.496, 0.004998153, NaN, NaN, NaN, 0.0396753, "- N/A -   "
2.95, 125.85, 0.005012037, NaN, NaN, NaN, 0.04089605, "- N/A -   "
2.96, 126.322, 0.005028697, NaN, NaN, NaN, 0.04211683, "- N/A -   "
2.97, 126.676, 0.00504258, NaN, NaN, NaN, 0.04211683, "- N/A -   "
2.98, 127.029, 0.00505924, NaN, NaN, NaN, 0.04211683, "- N/A -   "
2.99, 127.383, 0.00507313, NaN, NaN, NaN, 0.0433376, "- N/A -   "
3, 127.737, 0.00508979, NaN, NaN, NaN, 0.0445584, "- N/A -   "
3.01, 128.327, 0.00510645, NaN, NaN, NaN, 0.0445584, "- N/A -   "
3.02, 128.799, 0.005123107, NaN, NaN, NaN, 0.0433376, "- N/A -   "
3.03, 129.152, 0.00513977, NaN, NaN, NaN, 0.0433376, "- N/A -   "
3.04, 129.506, 0.00515365, NaN, NaN, NaN, 0.0445584, "- N/A -   "
3.05, 129.978, 0.00517031, NaN, NaN, NaN, 0.0445584, "- N/A -   "
3.06, 130.4499, 0.00518975, NaN, NaN, NaN, 0.0445584, "- N/A -   "
3.07, 130.922, 0.00520641, NaN, NaN, NaN, 0.0433376, "- N/A -   "
3.08, 131.393, 0.005225847, NaN, NaN, NaN, 0.04211683, "- N/A -   "
3.09, 131.865, 0.00524251, NaN, NaN, NaN, 0.04211683, "- N/A -   "
3.1, 132.337, 0.00526194, NaN, NaN, NaN, 0.04089605, "- N/A -   "
3.11, 132.9268, 0.00528138, NaN, NaN, NaN, 0.04089605, "- N/A -   "
3.12, 133.281, 0.00530082, NaN, NaN, NaN, 0.0396753, "- N/A -   "
3.13, 133.87, 0.00531748, NaN, NaN, NaN, 0.0384545, "- N/A -   "
3.14, 134.342, 0.00533692, NaN, NaN, NaN, 0.0372337, "- N/A -   "
3.15, 134.814, 0.005356354, NaN, NaN, NaN, 0.03601294, "- N/A -   "
3.16, 135.286, 0.00537579, NaN, NaN, NaN, 0.03601294, "- N/A -   "
3.17, 135.64, 0.00539245, NaN, NaN, NaN, 0.0347922, "- N/A -   "
3.18, 136.347, 0.00541189, NaN, NaN, NaN, 0.0347922, "- N/A -   "
3.19, 136.701, 0.00542855, NaN, NaN, NaN, 0.0335714, "- N/A -   "
3.2, 137.173, 0.00544799, NaN, NaN, NaN, 0.0335714, "- N/A -   "
3.21, 137.6447, 0.00546187, NaN, NaN, NaN, 0.0335714, "- N/A -   "
3.22, 137.999, 0.00547853, NaN, NaN, NaN, 0.0335714, "- N/A -   "
3.23, 138.352, 0.00549242, NaN, NaN, NaN, 0.0347922, "- N/A -   "
3.24, 138.706, 0.0055063, NaN, NaN, NaN, 0.03601294, "- N/A -   "
3.25, 139.06, 0.00552296, NaN, NaN, NaN, 0.03601294, "- N/A -   "
3.26, 139.414, 0.00553684, NaN, NaN, NaN, 0.0372337, "- N/A -   "
3.27, 139.8857, 0.00555628, NaN, NaN, NaN, 0.0372337, "- N/A -   "
3.28, 140.357, 0.00557294, NaN, NaN, NaN, 0.03601294, "- N/A -   "
3.29, 140.829, 0.00559238, NaN, NaN, NaN, 0.03601294, "- N/A -   "
3.3, 141.419, 0.00560904, NaN, NaN, NaN, 0.0347922, "- N/A -   "
3.31, 141.891, 0.005628476, NaN, NaN, NaN, 0.0347922, "- N/A -   "
3.32, 142.245, 0.00564236, NaN, NaN, NaN, 0.0347922, "- N/A -   "
3.33, 142.716, 0.00565902, NaN, NaN, NaN, 0.0347922, "- N/A -   "
3.34, 143.188, 0.00567846, NaN, NaN, NaN, 0.0335714, "- N/A -   "
3.35, 143.66, 0.00569512, NaN, NaN, NaN, 0.0335714, "- N/A -   "
3.36, 144.132, 0.00571456, NaN, NaN, NaN, 0.0323506, "- N/A -   "
3.37, 144.604, 0.00573399, NaN, NaN, NaN, 0.03112983, "- N/A -   "
3.38, 145.193, 0.00575343, NaN, NaN, NaN, 0.03112983, "- N/A -   "
3.39, 145.547, 0.00577009, NaN, NaN, NaN, 0.0299091, "- N/A -   "
3.4, 146.137, 0.00578953, NaN, NaN, NaN, 0.0286883, "- N/A -   "
3.41, 146.6087, 0.005806188, NaN, NaN, NaN, 0.0286883, "- N/A -   "
3.42, 146.963, 0.00582285, NaN, NaN, NaN, 0.0286883, "- N/A -   "
3.43, 147.316, 0.005839509, NaN, NaN, NaN, 0.0299091, "- N/A -   "
3.44, 147.788, 0.00585339, NaN, NaN, NaN, 0.0299091, "- N/A -   "
3.45, 148.142, 0.005867277, NaN, NaN, NaN, 0.03112983, "- N/A -   "
3.46, 148.496, 0.005883937, NaN, NaN, NaN, 0.03112983, "- N/A -   "
3.47, 148.8497, 0.005897821, NaN, NaN, NaN, 0.0323506, "- N/A -   "
3.48, 149.204, 0.005914482, NaN, NaN, NaN, 0.0335714, "- N/A -   "
3.49, 149.675, 0.005925589, NaN, NaN, NaN, 0.0347922, "- N/A -   "
3.5, 150.029, 0.00594225, NaN, NaN, NaN, 0.03601294, "- N/A -   "
3.51, 150.383, 0.005956133, NaN, NaN, NaN, 0.0372337, "- N/A -   "
3.52, 150.737, 0.00597002, NaN, NaN, NaN, 0.0372337, "- N/A -   "
3.53, 151.091, 0.0059839, NaN, NaN, NaN, 0.0384545, "- N/A -   "
3.54, 151.445, 0.00600056, NaN, NaN, NaN, 0.0396753, "- N/A -   "
3.55, 151.916, 0.00601167, NaN, NaN, NaN, 0.04089605, "- N/A -   "
3.56, 152.152, 0.006025552, NaN, NaN, NaN, 0.04211683, "- N/A -   "
3.57, 152.506, 0.006042212, NaN, NaN, NaN, 0.0433376, "- N/A -   "
3.58, 152.978, 0.006056096, NaN, NaN, NaN, 0.0433376, "- N/A -   "
3.59, 153.332, 0.00606998, NaN, NaN, NaN, 0.0445584, "- N/A -   "
3.6, 153.8035, 0.00608664, NaN, NaN, NaN, 0.0445584, "- N/A -   "
3.61, 154.2753, 0.006103301, NaN, NaN, NaN, 0.0445584, "- N/A -   "
3.62, 154.511, 0.006117184, NaN, NaN, NaN, 0.04699994, "- N/A -   "
3.63, 154.983, 0.006133845, NaN, NaN, NaN, 0.04699994, "- N/A -   "
3.64, 155.455, 0.006150505, NaN, NaN, NaN, 0.04699994, "- N/A -   "
3.65, 155.809, 0.006167166, NaN, NaN, NaN, 0.04699994, "- N/A -   "
3.66, 156.398, 0.00618383, NaN, NaN, NaN, 0.04699994, "- N/A -   "
3.67, 156.87, 0.006200487, NaN, NaN, NaN, 0.04699994, "- N/A -   "
3.68, 157.342, 0.006219924, NaN, NaN, NaN, 0.04577916, "- N/A -   "
3.69, 157.696, 0.006236585, NaN, NaN, NaN, 0.04577916, "- N/A -   "
3.7, 158.2855, 0.006256022, NaN, NaN, NaN, 0.0445584, "- N/A -   "
3.71, 158.875, 0.006278236, NaN, NaN, NaN, 0.0433376, "- N/A -   "
3.72, 159.347, 0.006297673, NaN, NaN, NaN, 0.04211683, "- N/A -   "
3.73, 159.819, 0.00631711, NaN, NaN, NaN, 0.04089605, "- N/A -   "
3.74, 160.409, 0.006333771, NaN, NaN, NaN, 0.0396753, "- N/A -   "
3.75, 160.7624, 0.006350431, NaN, NaN, NaN, 0.0396753, "- N/A -   "
3.76, 161.234, 0.006367092, NaN, NaN, NaN, 0.0396753, "- N/A -   "
3.77, 161.706, 0.006386529, NaN, NaN, NaN, 0.0384545, "- N/A -   "
3.78, 162.178, 0.00640597, NaN, NaN, NaN, 0.0372337, "- N/A -   "
3.79, 162.768, 0.006425404, NaN, NaN, NaN, 0.0372337, "- N/A -   "
3.8, 163.121, 0.00644206, NaN, NaN, NaN, 0.0372337, "- N/A -   "
3.81, 163.593, 0.006458725, NaN, NaN, NaN, 0.03601294, "- N/A -   "
3.82, 164.183, 0.00647539, NaN, NaN, NaN, 0.03601294, "- N/A -   "
3.83, 164.537, 0.00649482, NaN, NaN, NaN, 0.03601294, "- N/A -   "
3.84, 165.009, 0.00651148, NaN, NaN, NaN, 0.0347922, "- N/A -   "
3.85, 165.362, 0.00652814, NaN, NaN, NaN, 0.0347922, "- N/A -   "
3.86, 165.834, 0.006544804, NaN, NaN, NaN, 0.0347922, "- N/A -   "
3.87, 166.188, 0.006561464, NaN, NaN, NaN, 0.03601294, "- N/A -   "
3.88, 166.66, 0.006578125, NaN, NaN, NaN, 0.0347922, "- N/A -   "
3.89, 167.25, 0.00659479, NaN, NaN, NaN, 0.0347922, "- N/A -   "
3.9, 167.603, 0.00661145, NaN, NaN, NaN, 0.0347922, "- N/A -   "
3.91, 168.193, 0.00663366, NaN, NaN, NaN, 0.0335714, "- N/A -   "
3.92, 168.665, 0.00665032, NaN, NaN, NaN, 0.0323506, "- N/A -   "
3.93, 169.137, 0.00666976, NaN, NaN, NaN, 0.03112983, "- N/A -   "
3.94, 169.608, 0.006689195, NaN, NaN, NaN, 0.03112983, "- N/A -   "
3.95, 170.1982, 0.006705856, NaN, NaN, NaN, 0.0299091, "- N/A -   "
3.96, 170.552, 0.00672252, NaN, NaN, NaN, 0.0299091, "- N/A -   "
3.97, 171.024, 0.00674195, NaN, NaN, NaN, 0.0299091, "- N/A -   "
3.98, 171.496, 0.006758614, NaN, NaN, NaN, 0.0299091, "- N/A -   "
3.99, 171.9674, 0.006772498, NaN, NaN, NaN, 0.0299091, "- N/A -   "
4, 172.4392, 0.006789158, NaN, NaN, NaN, 0.0299091, "- N/A -   "
4.01, 172.793, 0.006805819, NaN, NaN, NaN, 0.0299091, "- N/A -   "
4.02, 173.1469, 0.00682248, NaN, NaN, NaN, 0.03112983, "- N/A -   "
4.03, 173.619, 0.006836363, NaN, NaN, NaN, 0.03112983, "- N/A -   "
4.04, 173.973, 0.00685302, NaN, NaN, NaN, 0.03112983, "- N/A -   "
4.05, 174.4443, 0.00686968, NaN, NaN, NaN, 0.03112983, "- N/A -   "
4.06, 174.9161, 0.00688634, NaN, NaN, NaN, 0.03112983, "- N/A -   "
4.07, 175.27, 0.00690023, NaN, NaN, NaN, 0.0323506, "- N/A -   "
4.08, 175.742, 0.006916889, NaN, NaN, NaN, 0.0323506, "- N/A -   "
4.09, 176.331, 0.00693355, NaN, NaN, NaN, 0.0323506, "- N/A -   "
4.1, 176.567, 0.00695021, NaN, NaN, NaN, 0.0323506, "- N/A -   "
4.11, 177.039, 0.00696409, NaN, NaN, NaN, 0.0335714, "- N/A -   "
4.12, 177.393, 0.00698075, NaN, NaN, NaN, 0.0335714, "- N/A -   "
4.13, 177.747, 0.006994638, NaN, NaN, NaN, 0.0347922, "- N/A -   "
4.14, 178.1007, 0.00700852, NaN, NaN, NaN, 0.03601294, "- N/A -   "
4.15, 178.455, 0.00702518, NaN, NaN, NaN, 0.0372337, "- N/A -   "
4.16, 178.926, 0.00703907, NaN, NaN, NaN, 0.0384545, "- N/A -   "
4.17, 179.28, 0.00705295, NaN, NaN, NaN, 0.0384545, "- N/A -   "
4.18, 179.634, 0.00706683, NaN, NaN, NaN, 0.04089605, "- N/A -   "
4.19, 180.106, 0.00708072, NaN, NaN, NaN, 0.04089605, "- N/A -   "
4.2, 180.342, 0.007094601, NaN, NaN, NaN, 0.04211683, "- N/A -   "
4.21, 180.813, 0.007108485, NaN, NaN, NaN, 0.0433376, "- N/A -   "
4.22, 181.167, 0.00712515, NaN, NaN, NaN, 0.0433376, "- N/A -   "
4.23, 181.521, 0.00713903, NaN, NaN, NaN, 0.0445584, "- N/A -   "
4.24, 181.993, 0.00715569, NaN, NaN, NaN, 0.04577916, "- N/A -   "
4.25, 182.3468, 0.00716957, NaN, NaN, NaN, 0.04577916, "- N/A -   "
4.26, 182.819, 0.00718623, NaN, NaN, NaN, 0.04577916, "- N/A -   "
4.27, 183.172, 0.00720289, NaN, NaN, NaN, 0.04699994, "- N/A -   "
4.28, 183.762, 0.007219555, NaN, NaN, NaN, 0.04699994, "- N/A -   "
4.29, 184.116, 0.00723344, NaN, NaN, NaN, 0.04699994, "- N/A -   "
4.3, 184.47, 0.0072501, NaN, NaN, NaN, 0.04699994, "- N/A -   "
4.31, 184.942, 0.00726676, NaN, NaN, NaN, 0.04699994, "- N/A -   "
4.32, 185.531, 0.0072862, NaN, NaN, NaN, 0.04577916, "- N/A -   "
4.33, 185.885, 0.00730286, NaN, NaN, NaN, 0.04577916, "- N/A -   "
4.34, 186.475, 0.007319518, NaN, NaN, NaN, 0.04577916, "- N/A -   "
4.35, 186.829, 0.007336179, NaN, NaN, NaN, 0.04577916, "- N/A -   "
4.36, 187.419, 0.00735284, NaN, NaN, NaN, 0.04577916, "- N/A -   "
4.37, 187.89, 0.0073695, NaN, NaN, NaN, 0.04577916, "- N/A -   "
4.38, 188.3621, 0.00738616, NaN, NaN, NaN, 0.04577916, "- N/A -   "
4.39, 188.716, 0.0074056, NaN, NaN, NaN, 0.0445584, "- N/A -   "
4.4, 189.188, 0.00742503, NaN, NaN, NaN, 0.0445584, "- N/A -   "
4.41, 189.66, 0.007441695, NaN, NaN, NaN, 0.0433376, "- N/A -   "
4.42, 190.249, 0.00746113, NaN, NaN, NaN, 0.04211683, "- N/A -   "
4.43, 190.721, 0.007477793, NaN, NaN, NaN, 0.04211683, "- N/A -   "
4.44, 191.193, 0.00749723, NaN, NaN, NaN, 0.04211683, "- N/A -   "
4.45, 191.547, 0.00751389, NaN, NaN, NaN, 0.04089605, "- N/A -   "
4.46, 192.018, 0.00753333, NaN, NaN, NaN, 0.04089605, "- N/A -   "
4.47, 192.608, 0.007552765, NaN, NaN, NaN, 0.0396753, "- N/A -   "
4.48, 193.198, 0.0075722, NaN, NaN, NaN, 0.0372337, "- N/A -   "
4.49, 193.7877, 0.00759164, NaN, NaN, NaN, 0.03601294, "- N/A -   "
4.5, 194.259, 0.00761385, NaN, NaN, NaN, 0.0335714, "- N/A -   "
4.51, 194.967, 0.00763329, NaN, NaN, NaN, 0.0323506, "- N/A -   "
4.52, 195.321, 0.007652728, NaN, NaN, NaN, 0.03112983, "- N/A -   "
4.53, 195.7928, 0.00767217, NaN, NaN, NaN, 0.0299091, "- N/A -   "
4.54, 196.265, 0.0076916, NaN, NaN, NaN, 0.0299091, "- N/A -   "
4.55, 196.736, 0.007708263, NaN, NaN, NaN, 0.0299091, "- N/A -   "
4.56, 197.326, 0.007724924, NaN, NaN, NaN, 0.0286883, "- N/A -   "
4.57, 197.68, 0.007741584, NaN, NaN, NaN, 0.0286883, "- N/A -   "
4.58, 198.152, 0.007758245, NaN, NaN, NaN, 0.0286883, "- N/A -   "
4.59, 198.624, 0.00777491, NaN, NaN, NaN, 0.0286883, "- N/A -   "
4.6, 198.977, 0.00779157, NaN, NaN, NaN, 0.0299091, "- N/A -   "
4.61, 199.331, 0.00780545, NaN, NaN, NaN, 0.0299091, "- N/A -   "
4.62, 199.803, 0.00782211, NaN, NaN, NaN, 0.0299091, "- N/A -   "
4.63, 200.157, 0.007835994, NaN, NaN, NaN, 0.03112983, "- N/A -   "
4.64, 200.5107, 0.007852654, NaN, NaN, NaN, 0.03112983, "- N/A -   "
4.65, 200.9825, 0.007869315, NaN, NaN, NaN, 0.03112983, "- N/A -   "
4.66, 201.336, 0.007883199, NaN, NaN, NaN, 0.0323506, "- N/A -   "
4.67, 201.808, 0.007899859, NaN, NaN, NaN, 0.0323506, "- N/A -   "
4.68, 202.162, 0.007913743, NaN, NaN, NaN, 0.0335714, "- N/A -   "
4.69, 202.634, 0.007930404, NaN, NaN, NaN, 0.0347922, "- N/A -   "
4.7, 202.9876, 0.007944287, NaN, NaN, NaN, 0.0347922, "- N/A -   "
4.71, 203.341, 0.007958171, NaN, NaN, NaN, 0.03601294, "- N/A -   "
4.72, 203.813, 0.007974831, NaN, NaN, NaN, 0.03601294, "- N/A -   "
4.73, 204.167, 0.007991492, NaN, NaN, NaN, 0.03601294, "- N/A -   "
4.74, 204.7568, 0.008008152, NaN, NaN, NaN, 0.0372337, "- N/A -   "
4.75, 204.9927, 0.008024813, NaN, NaN, NaN, 0.0372337, "- N/A -   "
4.76, 205.465, 0.008038697, NaN, NaN, NaN, 0.0372337, "- N/A -   "
4.77, 205.936, 0.008055357, NaN, NaN, NaN, 0.0384545, "- N/A -   "
4.78, 206.408, 0.008069241, NaN, NaN, NaN, 0.0384545, "- N/A -   "
4.79, 206.88, 0.008085901, NaN, NaN, NaN, 0.0384545, "- N/A -   "
4.8, 207.2337, 0.008105339, NaN, NaN, NaN, 0.0384545, "- N/A -   "
4.81, 207.823, 0.008119223, NaN, NaN, NaN, 0.0384545, "- N/A -   "
4.82, 208.177, 0.00813866, NaN, NaN, NaN, 0.0372337, "- N/A -   "
4.83, 208.767, 0.00815532, NaN, NaN, NaN, 0.0372337, "- N/A -   "
4.84, 209.121, 0.00817476, NaN, NaN, NaN, 0.0372337, "- N/A -   "
4.85, 209.711, 0.008191418, NaN, NaN, NaN, 0.0372337, "- N/A -   "
4.86, 210.064, 0.008208078, NaN, NaN, NaN, 0.03601294, "- N/A -   "
4.87, 210.418, 0.008224739, NaN, NaN, NaN, 0.0372337, "- N/A -   "
4.88, 210.89, 0.008235846, NaN, NaN, NaN, 0.0384545, "- N/A -   "
4.89, 211.126, 0.008252506, NaN, NaN, NaN, 0.0384545, "- N/A -   "
4.9, 211.48, 0.008263613, NaN, NaN, NaN, 0.04089605, "- N/A -   "
4.91, 211.9516, 0.008280274, NaN, NaN, NaN, 0.04089605, "- N/A -   "
4.92, 212.305, 0.008294158, NaN, NaN, NaN, 0.04211683, "- N/A -   "
4.93, 212.6593, 0.008310818, NaN, NaN, NaN, 0.0433376, "- N/A -   "
4.94, 213.131, 0.008324702, NaN, NaN, NaN, 0.0433376, "- N/A -   "
4.95, 213.485, 0.008341363, NaN, NaN, NaN, 0.0433376, "- N/A -   "
4.96, 213.957, 0.008358023, NaN, NaN, NaN, 0.0445584, "- N/A -   "
4.97, 214.4285, 0.008374684, NaN, NaN, NaN, 0.0433376, "- N/A -   "
4.98, 214.782, 0.008391344, NaN, NaN, NaN, 0.0433376, "- N/A -   "
4.99, 215.254, 0.008408004, NaN, NaN, NaN, 0.0445584, "- N/A -   "
5, 215.726, 0.008421889, NaN, NaN, NaN, 0.0445584, "- N/A -   "
5.01, 216.08, 0.008438549, NaN, NaN, NaN, 0.04577916, "- N/A -   "
5.02, 216.552, 0.008455209, NaN, NaN, NaN, 0.04577916, "- N/A -   "
5.03, 217.023, 0.00847187, NaN, NaN, NaN, 0.04577916, "- N/A -   "
5.04, 217.495, 0.00848853, NaN, NaN, NaN, 0.04577916, "- N/A -   "
5.05, 217.849, 0.008505192, NaN, NaN, NaN, 0.04577916, "- N/A -   "
5.06, 218.4387, 0.008521851, NaN, NaN, NaN, 0.0445584, "- N/A -   "
5.07, 219.028, 0.008541289, NaN, NaN, NaN, 0.0433376, "- N/A -   "
5.08, 219.6182, 0.008563503, NaN, NaN, NaN, 0.04089605, "- N/A -   "
5.09, 220.09, 0.00858294, NaN, NaN, NaN, 0.0396753, "- N/A -   "
5.1, 220.562, 0.008605154, NaN, NaN, NaN, 0.0384545, "- N/A -   "
5.11, 221.152, 0.008621815, NaN, NaN, NaN, 0.0372337, "- N/A -   "
5.12, 221.623, 0.008641251, NaN, NaN, NaN, 0.03601294, "- N/A -   "
5.13, 222.095, 0.008660689, NaN, NaN, NaN, 0.0347922, "- N/A -   "
5.14, 222.567, 0.008680127, NaN, NaN, NaN, 0.0347922, "- N/A -   "
5.15, 223.039, 0.008696787, NaN, NaN, NaN, 0.0335714, "- N/A -   "
5.16, 223.6284, 0.008716225, NaN, NaN, NaN, 0.0323506, "- N/A -   "
5.17, 224.1002, 0.008735661, NaN, NaN, NaN, 0.0323506, "- N/A -   "
5.18, 224.69, 0.008755099, NaN, NaN, NaN, 0.03112983, "- N/A -   "
5.19, 225.044, 0.008771759, NaN, NaN, NaN, 0.0299091, "- N/A -   "
5.2, 225.516, 0.00878842, NaN, NaN, NaN, 0.0299091, "- N/A -   "
5.21, 226.1053, 0.008807857, NaN, NaN, NaN, 0.0286883, "- N/A -   "
5.22, 226.459, 0.008824518, NaN, NaN, NaN, 0.0286883, "- N/A -   "
5.23, 226.931, 0.008841177, NaN, NaN, NaN, 0.0286883, "- N/A -   "
5.24, 227.167, 0.008855062, NaN, NaN, NaN, 0.0299091, "- N/A -   "
5.25, 227.521, 0.008871722, NaN, NaN, NaN, 0.0299091, "- N/A -   "
5.26, 227.992, 0.008885606, NaN, NaN, NaN, 0.03112983, "- N/A -   "
5.27, 228.464, 0.008902267, NaN, NaN, NaN, 0.0323506, "- N/A -   "
5.28, 228.936, 0.008916151, NaN, NaN, NaN, 0.0323506, "- N/A -   "
5.29, 229.172, 0.00893281, NaN, NaN, NaN, 0.0335714, "- N/A -   "
5.3, 229.644, 0.008949472, NaN, NaN, NaN, 0.0335714, "- N/A -   "
5.31, 230.116, 0.008966132, NaN, NaN, NaN, 0.0335714, "- N/A -   "
5.32, 230.705, 0.00898279, NaN, NaN, NaN, 0.0335714, "- N/A -   "
5.33, 231.0591, 0.008996676, NaN, NaN, NaN, 0.0335714, "- N/A -   "
5.34, 231.413, 0.009013337, NaN, NaN, NaN, 0.0335714, "- N/A -   "
5.35, 231.885, 0.009029997, NaN, NaN, NaN, 0.0335714, "- N/A -   "
5.36, 232.357, 0.009049434, NaN, NaN, NaN, 0.0335714, "- N/A -   "
5.37, 232.828, 0.009066095, NaN, NaN, NaN, 0.0335714, "- N/A -   "
5.38, 233.3001, 0.009082756, NaN, NaN, NaN, 0.0323506, "- N/A -   "
5.39, 233.654, 0.009102193, NaN, NaN, NaN, 0.0323506, "- N/A -   "
5.4, 234.244, 0.009118853, NaN, NaN, NaN, 0.03112983, "- N/A -   "
5.41, 234.715, 0.009135514, NaN, NaN, NaN, 0.03112983, "- N/A -   "
5.42, 235.0693, 0.009152174, NaN, NaN, NaN, 0.03112983, "- N/A -   "
5.43, 235.5411, 0.009166058, NaN, NaN, NaN, 0.0323506, "- N/A -   "
5.44, 235.777, 0.009179941, NaN, NaN, NaN, 0.0335714, "- N/A -   "
5.45, 236.249, 0.009193826, NaN, NaN, NaN, 0.0347922, "- N/A -   "
5.46, 236.721, 0.009210486, NaN, NaN, NaN, 0.0347922, "- N/A -   "
5.47, 236.956, 0.00922437, NaN, NaN, NaN, 0.03601294, "- N/A -   "
5.48, 237.428, 0.00924103, NaN, NaN, NaN, 0.03601294, "- N/A -   "
5.49, 237.9, 0.009257691, NaN, NaN, NaN, 0.03601294, "- N/A -   "
5.5, 238.372, 0.009274351, NaN, NaN, NaN, 0.03601294, "- N/A -   "
5.51, 238.726, 0.009291012, NaN, NaN, NaN, 0.03601294, "- N/A -   "
5.52, 239.197, 0.009307672, NaN, NaN, NaN, 0.03601294, "- N/A -   "
5.53, 239.669, 0.009324333, NaN, NaN, NaN, 0.03601294, "- N/A -   "
5.54, 240.141, 0.009340993, NaN, NaN, NaN, 0.03601294, "- N/A -   "
5.55, 240.495, 0.009354877, NaN, NaN, NaN, 0.0372337, "- N/A -   "
5.56, 240.849, 0.009371538, NaN, NaN, NaN, 0.0372337, "- N/A -   "
5.57, 241.203, 0.009385421, NaN, NaN, NaN, 0.0384545, "- N/A -   "
5.58, 241.556, 0.009402082, NaN, NaN, NaN, 0.0396753, "- N/A -   "
5.59, 241.91, 0.009413189, NaN, NaN, NaN, 0.04089605, "- N/A -   "
5.6, 242.382, 0.009429849, NaN, NaN, NaN, 0.04089605, "- N/A -   "
5.61, 242.736, 0.00944651, NaN, NaN, NaN, 0.04089605, "- N/A -   "
5.62, 243.207, 0.009463171, NaN, NaN, NaN, 0.04211683, "- N/A -   "
5.63, 243.678, 0.009479831, NaN, NaN, NaN, 0.04211683, "- N/A -   "
5.64, 244.032, 0.009493715, NaN, NaN, NaN, 0.04211683, "- N/A -   "
5.65, 244.503, 0.009510376, NaN, NaN, NaN, 0.04211683, "- N/A -   "
5.66, 244.974, 0.009524259, NaN, NaN, NaN, 0.0433376, "- N/A -   "
5.67, 245.328, 0.009543696, NaN, NaN, NaN, 0.0433376, "- N/A -   "
5.68, 245.799, 0.009560357, NaN, NaN, NaN, 0.0433376, "- N/A -   "
5.69, 246.27, 0.009577017, NaN, NaN, NaN, 0.04211683, "- N/A -   "
5.7, 246.742, 0.009593678, NaN, NaN, NaN, 0.04211683, "- N/A -   "
5.71, 247.331, 0.009613114, NaN, NaN, NaN, 0.04211683, "- N/A -   "
5.72, 247.567, 0.009629775, NaN, NaN, NaN, 0.04211683, "- N/A -   "
5.73, 248.038, 0.009646436, NaN, NaN, NaN, 0.04089605, "- N/A -   "
5.74, 248.509, 0.009663097, NaN, NaN, NaN, 0.04089605, "- N/A -   "
5.75, 248.98, 0.009679758, NaN, NaN, NaN, 0.04089605, "- N/A -   "
5.76, 249.452, 0.009699196, NaN, NaN, NaN, 0.04089605, "- N/A -   "
5.77, 249.923, 0.009715856, NaN, NaN, NaN, 0.0396753, "- N/A -   "
5.78, 250.512, 0.009735291, NaN, NaN, NaN, 0.0384545, "- N/A -   "
5.79, 250.983, 0.00975473, NaN, NaN, NaN, 0.0372337, "- N/A -   "
5.8, 251.5726, 0.009774166, NaN, NaN, NaN, 0.0372337, "- N/A -   "
5.81, 252.044, 0.009790827, NaN, NaN, NaN, 0.03601294, "- N/A -   "
5.82, 252.28, 0.009807487, NaN, NaN, NaN, 0.03601294, "- N/A -   "
5.83, 252.751, 0.009826925, NaN, NaN, NaN, 0.03601294, "- N/A -   "
5.84, 253.104, 0.009843585, NaN, NaN, NaN, 0.03601294, "- N/A -   "
5.85, 253.576, 0.00985747, NaN, NaN, NaN, 0.03601294, "- N/A -   "
5.86, 254.047, 0.00987413, NaN, NaN, NaN, 0.03601294, "- N/A -   "
5.87, 254.518, 0.009893567, NaN, NaN, NaN, 0.03601294, "- N/A -   "
5.88, 254.99, 0.00990745, NaN, NaN, NaN, 0.03601294, "- N/A -   "
5.89, 255.461, 0.009924111, NaN, NaN, NaN, 0.03601294, "- N/A -   "
5.9, 255.814, 0.00994077, NaN, NaN, NaN, 0.0372337, "- N/A -   "
5.91, 256.286, 0.009957431, NaN, NaN, NaN, 0.03601294, "- N/A -   "
5.92, 256.639, 0.009974094, NaN, NaN, NaN, 0.03601294, "- N/A -   "
5.93, 257.11, 0.009990754, NaN, NaN, NaN, 0.03601294, "- N/A -   "
5.94, 257.4639, 0.0100074, NaN, NaN, NaN, 0.03601294, "- N/A -   "
5.95, 258.053, 0.0100269, NaN, NaN, NaN, 0.0347922, "- N/A -   "
[...]
34.84, 1549.28, 0.0581785, NaN, NaN, NaN, 0.0335714, "- N/A -   "
34.87, 1550.47, 0.05822016, NaN, NaN, NaN, 0.0384545, "- N/A -   "
34.9, 1551.54, 0.0582646, NaN, NaN, NaN, 0.0396753, "- N/A -   "
34.93, 1552.73, 0.05830624, NaN, NaN, NaN, 0.0445584, "- N/A -   "
34.96, 1554.05, 0.0583534, NaN, NaN, NaN, 0.0445584, "- N/A -   "
34.99, 1555.48, 0.0584062, NaN, NaN, NaN, 0.0433376, "- N/A -   "
35.02, 1556.91, 0.058459, NaN, NaN, NaN, 0.04211683, "- N/A -   "
35.05, 1558.46, 0.0585117, NaN, NaN, NaN, 0.04089605, "- N/A -   "
35.08, 1559.89, 0.0585645, NaN, NaN, NaN, 0.0396753, "- N/A -   "
35.11, 1561.32, 0.0586172, NaN, NaN, NaN, 0.0396753, "- N/A -   "
35.14, 1562.63, 0.05866444, NaN, NaN, NaN, 0.0396753, "- N/A -   "
35.17, 1564.18, 0.0587172, NaN, NaN, NaN, 0.0384545, "- N/A -   "
35.2, 1565.852, 0.0587755, NaN, NaN, NaN, 0.0347922, "- N/A -   "
35.23, 1567.64, 0.0588394, NaN, NaN, NaN, 0.0286883, "- N/A -   "
35.26, 1569.19, 0.05889491, NaN, NaN, NaN, 0.0262467, "- N/A -   "
35.29, 1570.62, 0.0589477, NaN, NaN, NaN, 0.0250259, "- N/A -   "
35.32, 1571.934, 0.05899487, NaN, NaN, NaN, 0.0274675, "- N/A -   "
35.35, 1573.13, 0.0590421, NaN, NaN, NaN, 0.0299091, "- N/A -   "
35.38, 1574.56, 0.0590893, NaN, NaN, NaN, 0.0299091, "- N/A -   "
35.41, 1575.87, 0.05913371, NaN, NaN, NaN, 0.0323506, "- N/A -   "
35.44, 1577.181, 0.05918369, NaN, NaN, NaN, 0.0323506, "- N/A -   "
35.47, 1578.49, 0.05922812, NaN, NaN, NaN, 0.0347922, "- N/A -   "
35.5, 1579.69, 0.05927532, NaN, NaN, NaN, 0.03601294, "- N/A -   "
35.53, 1581, 0.0593225, NaN, NaN, NaN, 0.0372337, "- N/A -   "
35.56, 1582.31, 0.05937251, NaN, NaN, NaN, 0.0384545, "- N/A -   "
35.59, 1583.74, 0.0594197, NaN, NaN, NaN, 0.0384545, "- N/A -   "
35.62, 1584.93, 0.0594669, NaN, NaN, NaN, 0.04089605, "- N/A -   "
35.65, 1586.125, 0.05950857, NaN, NaN, NaN, 0.0433376, "- N/A -   "
35.68, 1587.556, 0.0595558, NaN, NaN, NaN, 0.0445584, "- N/A -   "
35.71, 1588.75, 0.059603, NaN, NaN, NaN, 0.04577916, "- N/A -   "
35.74, 1590.06, 0.0596502, NaN, NaN, NaN, 0.0482207, "- N/A -   "
35.77, 1591.49, 0.0597002, NaN, NaN, NaN, 0.0482207, "- N/A -   "
35.8, 1593.04, 0.0597557, NaN, NaN, NaN, 0.0445584, "- N/A -   "
35.83, 1595.07, 0.0598223, NaN, NaN, NaN, 0.0384545, "- N/A -   "
35.86, 1596.74, 0.0598807, NaN, NaN, NaN, 0.0347922, "- N/A -   "
35.89, 1598.29, 0.0599334, NaN, NaN, NaN, 0.0323506, "- N/A -   "
35.92, 1599.6, 0.0599834, NaN, NaN, NaN, 0.0323506, "- N/A -   "
35.95, 1600.91, 0.06003338, NaN, NaN, NaN, 0.0323506, "- N/A -   "
35.98, 1602.22, 0.06008336, NaN, NaN, NaN, 0.0323506, "- N/A -   "
36.01, 1603.54, 0.0601278, NaN, NaN, NaN, 0.0347922, "- N/A -   "
36.04, 1604.73, 0.0601722, NaN, NaN, NaN, 0.0372337, "- N/A -   "
36.07, 1606.04, 0.06021942, NaN, NaN, NaN, 0.0384545, "- N/A -   "
36.1, 1607.35, 0.0602722, NaN, NaN, NaN, 0.0384545, "- N/A -   "
36.13, 1609.14, 0.0603277, NaN, NaN, NaN, 0.0347922, "- N/A -   "
36.16, 1610.57, 0.06038047, NaN, NaN, NaN, 0.0335714, "- N/A -   "
36.19, 1612, 0.0604305, NaN, NaN, NaN, 0.0335714, "- N/A -   "
36.22, 1613.31, 0.06047766, NaN, NaN, NaN, 0.0347922, "- N/A -   "
36.25, 1614.507, 0.0605221, NaN, NaN, NaN, 0.0372337, "- N/A -   "
36.28, 1615.58, 0.06056374, NaN, NaN, NaN, 0.04089605, "- N/A -   "
36.31, 1616.77, 0.0606082, NaN, NaN, NaN, 0.0433376, "- N/A -   "
36.34, 1618.323, 0.06066092, NaN, NaN, NaN, 0.04211683, "- N/A -   "
36.37, 1619.754, 0.0607165, NaN, NaN, NaN, 0.04089605, "- N/A -   "
36.4, 1621.3, 0.0607692, NaN, NaN, NaN, 0.0396753, "- N/A -   "
36.43, 1622.616, 0.0608136, NaN, NaN, NaN, 0.04089605, "- N/A -   "
36.46, 1624.047, 0.0608664, NaN, NaN, NaN, 0.0396753, "- N/A -   "
36.49, 1625.6, 0.0609192, NaN, NaN, NaN, 0.0396753, "- N/A -   "
36.52, 1626.91, 0.0609691, NaN, NaN, NaN, 0.0384545, "- N/A -   "
36.55, 1628.34, 0.0610191, NaN, NaN, NaN, 0.0384545, "- N/A -   "
36.58, 1629.77, 0.06107188, NaN, NaN, NaN, 0.0372337, "- N/A -   "
36.61, 1631.2, 0.0611219, NaN, NaN, NaN, 0.0372337, "- N/A -   "
36.64, 1632.75, 0.06117462, NaN, NaN, NaN, 0.03601294, "- N/A -   "
36.67, 1634.3, 0.0612302, NaN, NaN, NaN, 0.0335714, "- N/A -   "
36.7, 1635.853, 0.0612857, NaN, NaN, NaN, 0.03112983, "- N/A -   "
36.73, 1637.16, 0.06133567, NaN, NaN, NaN, 0.03112983, "- N/A -   "
36.76, 1638.48, 0.0613857, NaN, NaN, NaN, 0.03112983, "- N/A -   "
36.79, 1639.91, 0.06143564, NaN, NaN, NaN, 0.0323506, "- N/A -   "
36.82, 1641.34, 0.06148562, NaN, NaN, NaN, 0.0323506, "- N/A -   "
36.85, 1642.65, 0.0615356, NaN, NaN, NaN, 0.0323506, "- N/A -   "
36.88, 1644.08, 0.0615828, NaN, NaN, NaN, 0.0323506, "- N/A -   "
36.91, 1645.39, 0.06163279, NaN, NaN, NaN, 0.0323506, "- N/A -   "
36.94, 1646.82, 0.06168277, NaN, NaN, NaN, 0.0335714, "- N/A -   "
36.97, 1648.02, 0.0617272, NaN, NaN, NaN, 0.03601294, "- N/A -   "
37, 1649.21, 0.06176885, NaN, NaN, NaN, 0.0384545, "- N/A -   "
37.03, 1650.4, 0.06181605, NaN, NaN, NaN, 0.0396753, "- N/A -   "
37.06, 1651.71, 0.06186048, NaN, NaN, NaN, 0.04211683, "- N/A -   "
37.09, 1652.906, 0.0619049, NaN, NaN, NaN, 0.0445584, "- N/A -   "
37.12, 1654.22, 0.0619521, NaN, NaN, NaN, 0.04577916, "- N/A -   "
37.15, 1655.65, 0.0620021, NaN, NaN, NaN, 0.04699994, "- N/A -   "
37.18, 1656.96, 0.0620521, NaN, NaN, NaN, 0.04699994, "- N/A -   "
37.21, 1658.511, 0.0621048, NaN, NaN, NaN, 0.04577916, "- N/A -   "
37.24, 1660.06, 0.06216037, NaN, NaN, NaN, 0.04211683, "- N/A -   "
37.27, 1661.85, 0.0622215, NaN, NaN, NaN, 0.0372337, "- N/A -   "
37.3, 1663.4, 0.062277, NaN, NaN, NaN, 0.0347922, "- N/A -   "
37.33, 1664.83, 0.06232975, NaN, NaN, NaN, 0.0335714, "- N/A -   "
37.36, 1666.26, 0.0623825, NaN, NaN, NaN, 0.0335714, "- N/A -   "
37.39, 1667.69, 0.0624325, NaN, NaN, NaN, 0.0323506, "- N/A -   "
37.42, 1669.12, 0.0624825, NaN, NaN, NaN, 0.0323506, "- N/A -   "
37.45, 1670.44, 0.0625297, NaN, NaN, NaN, 0.0335714, "- N/A -   "
37.48, 1671.87, 0.06258521, NaN, NaN, NaN, 0.0323506, "- N/A -   "
37.51, 1673.54, 0.06263797, NaN, NaN, NaN, 0.0299091, "- N/A -   "
37.54, 1674.85, 0.06268795, NaN, NaN, NaN, 0.0299091, "- N/A -   "
37.57, 1676.16, 0.0627379, NaN, NaN, NaN, 0.03112983, "- N/A -   "
37.6, 1677.35, 0.06278236, NaN, NaN, NaN, 0.0323506, "- N/A -   "
37.63, 1678.55, 0.06282679, NaN, NaN, NaN, 0.0347922, "- N/A -   "
37.66, 1679.62, 0.06286844, NaN, NaN, NaN, 0.0384545, "- N/A -   "
37.69, 1680.69, 0.0629101, NaN, NaN, NaN, 0.04211683, "- N/A -   "
37.72, 1682, 0.06295452, NaN, NaN, NaN, 0.0445584, "- N/A -   "
37.75, 1683.196, 0.06300173, NaN, NaN, NaN, 0.04699994, "- N/A -   "
37.78, 1684.51, 0.06304893, NaN, NaN, NaN, 0.04699994, "- N/A -   "
37.81, 1686.06, 0.06310169, NaN, NaN, NaN, 0.04577916, "- N/A -   "
37.84, 1687.61, 0.06316, NaN, NaN, NaN, 0.04211683, "- N/A -   "
37.87, 1689.28, 0.06321553, NaN, NaN, NaN, 0.0396753, "- N/A -   "
37.9, 1690.71, 0.06327107, NaN, NaN, NaN, 0.0384545, "- N/A -   "
37.93, 1692.26, 0.0633238, NaN, NaN, NaN, 0.03601294, "- N/A -   "
37.96, 1693.81, 0.06337936, NaN, NaN, NaN, 0.0347922, "- N/A -   "
37.99, 1695.24, 0.06342934, NaN, NaN, NaN, 0.0335714, "- N/A -   "
38.02, 1696.67, 0.06347933, NaN, NaN, NaN, 0.0335714, "- N/A -   "
38.05, 1698.1, 0.06353486, NaN, NaN, NaN, 0.0323506, "- N/A -   "
38.08, 1699.65, 0.06359039, NaN, NaN, NaN, 0.0299091, "- N/A -   "
38.11, 1701.203, 0.06364315, NaN, NaN, NaN, 0.0274675, "- N/A -   "
38.14, 1702.51, 0.06369036, NaN, NaN, NaN, 0.0286883, "- N/A -   "
38.17, 1703.83, 0.06374312, NaN, NaN, NaN, 0.0286883, "- N/A -   "
38.2, 1705.14, 0.06379032, NaN, NaN, NaN, 0.0286883, "- N/A -   "
38.23, 1706.45, 0.06383753, NaN, NaN, NaN, 0.03112983, "- N/A -   "
38.26, 1707.76, 0.063882, NaN, NaN, NaN, 0.0335714, "- N/A -   "
38.29, 1708.716, 0.06392083, NaN, NaN, NaN, 0.0384545, "- N/A -   "
38.32, 1709.79, 0.06396248, NaN, NaN, NaN, 0.04089605, "- N/A -   "
38.35, 1711.101, 0.06400969, NaN, NaN, NaN, 0.0433376, "- N/A -   "
38.38, 1712.41, 0.06405689, NaN, NaN, NaN, 0.0445584, "- N/A -   "
38.41, 1713.84, 0.0641096, NaN, NaN, NaN, 0.0433376, "- N/A -   "
38.44, 1715.16, 0.06415685, NaN, NaN, NaN, 0.0433376, "- N/A -   "
38.47, 1716.47, 0.06420684, NaN, NaN, NaN, 0.0433376, "- N/A -   "
38.5, 1717.78, 0.06425404, NaN, NaN, NaN, 0.04577916, "- N/A -   "
38.53, 1719.21, 0.064304, NaN, NaN, NaN, 0.0445584, "- N/A -   "
38.56, 1720.88, 0.06435955, NaN, NaN, NaN, 0.0433376, "- N/A -   "
38.59, 1722.31, 0.06441231, NaN, NaN, NaN, 0.04089605, "- N/A -   "
38.62, 1724.22, 0.0644762, NaN, NaN, NaN, 0.03601294, "- N/A -   "
38.65, 1725.89, 0.06453727, NaN, NaN, NaN, 0.0299091, "- N/A -   "
38.68, 1727.44, 0.0645928, NaN, NaN, NaN, 0.0274675, "- N/A -   "
38.71, 1728.75, 0.06464001, NaN, NaN, NaN, 0.0286883, "- N/A -   "
38.74, 1730.062, 0.06469, NaN, NaN, NaN, 0.0286883, "- N/A -   "
38.77, 1731.37, 0.06473719, NaN, NaN, NaN, 0.03112983, "- N/A -   "
38.8, 1732.57, 0.06478162, NaN, NaN, NaN, 0.0335714, "- N/A -   "
38.83, 1733.76, 0.06482605, NaN, NaN, NaN, 0.0347922, "- N/A -   "
38.86, 1735.07, 0.06487048, NaN, NaN, NaN, 0.0372337, "- N/A -   "
38.89, 1736.38, 0.06491768, NaN, NaN, NaN, 0.0384545, "- N/A -   "
38.92, 1737.93, 0.06497044, NaN, NaN, NaN, 0.0372337, "- N/A -   "
38.95, 1739.36, 0.06502598, NaN, NaN, NaN, 0.0347922, "- N/A -   "
38.98, 1740.79, 0.0650787, NaN, NaN, NaN, 0.0347922, "- N/A -   "
39.01, 1741.99, 0.06512316, NaN, NaN, NaN, 0.03601294, "- N/A -   "
39.04, 1743.06, 0.06516481, NaN, NaN, NaN, 0.0396753, "- N/A -   "
39.07, 1744.253, 0.06520924, NaN, NaN, NaN, 0.04211683, "- N/A -   "
39.1, 1745.45, 0.0652537, NaN, NaN, NaN, 0.04577916, "- N/A -   "
39.13, 1746.76, 0.0653009, NaN, NaN, NaN, 0.04577916, "- N/A -   "
39.16, 1748.19, 0.06535363, NaN, NaN, NaN, 0.0445584, "- N/A -   "
39.19, 1749.977, 0.06541195, NaN, NaN, NaN, 0.04089605, "- N/A -   "
39.22, 1751.65, 0.065473, NaN, NaN, NaN, 0.03601294, "- N/A -   "
39.25, 1753.32, 0.06553412, NaN, NaN, NaN, 0.03112983, "- N/A -   "
39.28, 1754.99, 0.06559244, NaN, NaN, NaN, 0.0286883, "- N/A -   "
39.31, 1756.3, 0.06564242, NaN, NaN, NaN, 0.0286883, "- N/A -   "
39.34, 1757.61, 0.0656896, NaN, NaN, NaN, 0.0286883, "- N/A -   "
39.37, 1758.8, 0.06573683, NaN, NaN, NaN, 0.03112983, "- N/A -   "
39.4, 1759.99, 0.06578125, NaN, NaN, NaN, 0.0335714, "- N/A -   "
39.43, 1761.07, 0.06582291, NaN, NaN, NaN, 0.0372337, "- N/A -   "
39.46, 1762.62, 0.0658701, NaN, NaN, NaN, 0.0372337, "- N/A -   "
39.49, 1764.049, 0.0659229, NaN, NaN, NaN, 0.03601294, "- N/A -   "
39.52, 1765.72, 0.06598118, NaN, NaN, NaN, 0.0323506, "- N/A -   "
39.55, 1767.27, 0.06603394, NaN, NaN, NaN, 0.03112983, "- N/A -   "
39.58, 1768.7, 0.0660867, NaN, NaN, NaN, 0.03112983, "- N/A -   "
39.61, 1770.01, 0.06613668, NaN, NaN, NaN, 0.0299091, "- N/A -   "
39.64, 1771.32, 0.06618388, NaN, NaN, NaN, 0.03112983, "- N/A -   "
39.67, 1772.28, 0.0662255, NaN, NaN, NaN, 0.0347922, "- N/A -   "
39.7, 1773.35, 0.0662672, NaN, NaN, NaN, 0.0396753, "- N/A -   "
39.73, 1774.3, 0.06630606, NaN, NaN, NaN, 0.0433376, "- N/A -   "
39.76, 1775.62, 0.06635604, NaN, NaN, NaN, 0.0433376, "- N/A -   "
39.79, 1777.29, 0.0664088, NaN, NaN, NaN, 0.04211683, "- N/A -   "
39.82, 1778.72, 0.0664616, NaN, NaN, NaN, 0.0433376, "- N/A -   "
39.85, 1780.03, 0.06650876, NaN, NaN, NaN, 0.0445584, "- N/A -   "
39.88, 1781.34, 0.06655597, NaN, NaN, NaN, 0.0445584, "- N/A -   "
39.91, 1782.77, 0.06660873, NaN, NaN, NaN, 0.0433376, "- N/A -   "
39.94, 1784.32, 0.0666615, NaN, NaN, NaN, 0.04211683, "- N/A -   "
39.97, 1785.75, 0.06671424, NaN, NaN, NaN, 0.04089605, "- N/A -   "
40, 1787.18, 0.06676978, NaN, NaN, NaN, 0.0384545, "- N/A -   "
40.03, 1788.734, 0.06682531, NaN, NaN, NaN, 0.0372337, "- N/A -   "
40.06, 1790.165, 0.0668781, NaN, NaN, NaN, 0.0347922, "- N/A -   "
40.09, 1791.72, 0.06693083, NaN, NaN, NaN, 0.0347922, "- N/A -   "
40.12, 1793.15, 0.06698081, NaN, NaN, NaN, 0.0335714, "- N/A -   "
40.15, 1794.46, 0.0670308, NaN, NaN, NaN, 0.0335714, "- N/A -   "
40.18, 1795.65, 0.06708077, NaN, NaN, NaN, 0.0335714, "- N/A -   "
40.21, 1797.2, 0.06713075, NaN, NaN, NaN, 0.0335714, "- N/A -   "
40.24, 1798.39, 0.06717796, NaN, NaN, NaN, 0.03601294, "- N/A -   "
40.27, 1799.59, 0.0672252, NaN, NaN, NaN, 0.03601294, "- N/A -   "
40.3, 1801.14, 0.06727792, NaN, NaN, NaN, 0.0347922, "- N/A -   "
40.33, 1802.57, 0.06733346, NaN, NaN, NaN, 0.0323506, "- N/A -   "
40.36, 1804, 0.06738344, NaN, NaN, NaN, 0.0335714, "- N/A -   "
40.39, 1805.19, 0.0674279, NaN, NaN, NaN, 0.0347922, "- N/A -   "
40.42, 1806.38, 0.0674695, NaN, NaN, NaN, 0.0384545, "- N/A -   "
40.45, 1807.46, 0.06751395, NaN, NaN, NaN, 0.04089605, "- N/A -   "
40.48, 1808.649, 0.06755837, NaN, NaN, NaN, 0.0433376, "- N/A -   "
40.51, 1809.96, 0.06760836, NaN, NaN, NaN, 0.0433376, "- N/A -   "
40.54, 1811.27, 0.06765834, NaN, NaN, NaN, 0.0433376, "- N/A -   "
40.57, 1812.94, 0.0677111, NaN, NaN, NaN, 0.04211683, "- N/A -   "
40.6, 1814.49, 0.06776663, NaN, NaN, NaN, 0.0396753, "- N/A -   "
40.63, 1816.28, 0.06782772, NaN, NaN, NaN, 0.0347922, "- N/A -   "
40.66, 1817.83, 0.06788603, NaN, NaN, NaN, 0.03112983, "- N/A -   "
40.69, 1819.14, 0.06793601, NaN, NaN, NaN, 0.03112983, "- N/A -   "
40.72, 1820.34, 0.06798322, NaN, NaN, NaN, 0.0323506, "- N/A -   "
40.75, 1821.77, 0.0680332, NaN, NaN, NaN, 0.0335714, "- N/A -   "
40.78, 1823.2, 0.06808318, NaN, NaN, NaN, 0.0323506, "- N/A -   "
40.81, 1824.27, 0.06812761, NaN, NaN, NaN, 0.0347922, "- N/A -   "
40.84, 1825.58, 0.06817481, NaN, NaN, NaN, 0.03601294, "- N/A -   "
40.87, 1827.01, 0.06822757, NaN, NaN, NaN, 0.0347922, "- N/A -   "
40.9, 1828.68, 0.06828588, NaN, NaN, NaN, 0.0323506, "- N/A -   "
40.93, 1830, 0.06833586, NaN, NaN, NaN, 0.0323506, "- N/A -   "
40.96, 1831.307, 0.06838585, NaN, NaN, NaN, 0.0323506, "- N/A -   "
40.99, 1832.62, 0.06843583, NaN, NaN, NaN, 0.03112983, "- N/A -   "
41.02, 1834.05, 0.06848303, NaN, NaN, NaN, 0.0335714, "- N/A -   "
41.05, 1835.12, 0.06852469, NaN, NaN, NaN, 0.03601294, "- N/A -   "
41.08, 1836.2, 0.06856911, NaN, NaN, NaN, 0.0384545, "- N/A -   "
41.11, 1837.27, 0.068608, NaN, NaN, NaN, 0.0433376, "- N/A -   "
41.14, 1838.462, 0.0686524, NaN, NaN, NaN, 0.04577916, "- N/A -   "
41.17, 1839.65, 0.06869962, NaN, NaN, NaN, 0.04699994, "- N/A -   "
41.2, 1840.97, 0.06874682, NaN, NaN, NaN, 0.0482207, "- N/A -   "
41.23, 1842.636, 0.06880236, NaN, NaN, NaN, 0.04577916, "- N/A -   "
41.26, 1844.067, 0.06885789, NaN, NaN, NaN, 0.0433376, "- N/A -   "
41.29, 1845.62, 0.06891621, NaN, NaN, NaN, 0.04089605, "- N/A -   "
41.32, 1847.29, 0.0689717, NaN, NaN, NaN, 0.0372337, "- N/A -   "
41.35, 1848.72, 0.0690273, NaN, NaN, NaN, 0.03601294, "- N/A -   "
41.38, 1850.15, 0.06907726, NaN, NaN, NaN, 0.0347922, "- N/A -   "
41.41, 1851.46, 0.06913002, NaN, NaN, NaN, 0.0347922, "- N/A -   "
41.44, 1852.89, 0.06918, NaN, NaN, NaN, 0.0335714, "- N/A -   "
41.47, 1854.2, 0.0692328, NaN, NaN, NaN, 0.0323506, "- N/A -   "
41.5, 1855.75, 0.06928551, NaN, NaN, NaN, 0.03112983, "- N/A -   "
41.53, 1857.18, 0.06934105, NaN, NaN, NaN, 0.0299091, "- N/A -   "
41.56, 1858.62, 0.0693938, NaN, NaN, NaN, 0.0274675, "- N/A -   "
41.59, 1859.93, 0.06944101, NaN, NaN, NaN, 0.0286883, "- N/A -   "
41.62, 1861.12, 0.06948822, NaN, NaN, NaN, 0.03112983, "- N/A -   "
41.65, 1862.19, 0.06952987, NaN, NaN, NaN, 0.0335714, "- N/A -   "
41.68, 1863.39, 0.0695743, NaN, NaN, NaN, 0.03601294, "- N/A -   "
41.71, 1864.58, 0.0696187, NaN, NaN, NaN, 0.0384545, "- N/A -   "
41.74, 1865.53, 0.0696576, NaN, NaN, NaN, 0.0433376, "- N/A -   "
41.77, 1866.72, 0.0697048, NaN, NaN, NaN, 0.0445584, "- N/A -   "
41.8, 1868.275, 0.06975756, NaN, NaN, NaN, 0.0433376, "- N/A -   "
41.83, 1869.71, 0.0698103, NaN, NaN, NaN, 0.04211683, "- N/A -   "
41.86, 1870.9, 0.0698603, NaN, NaN, NaN, 0.04211683, "- N/A -   "
41.89, 1872.21, 0.06990751, NaN, NaN, NaN, 0.0433376, "- N/A -   "
41.92, 1873.64, 0.06996027, NaN, NaN, NaN, 0.04211683, "- N/A -   "
41.95, 1875.19, 0.0700158, NaN, NaN, NaN, 0.04089605, "- N/A -   "
41.98, 1876.742, 0.07007411, NaN, NaN, NaN, 0.0372337, "- N/A -   "
42.01, 1878.173, 0.07012965, NaN, NaN, NaN, 0.0335714, "- N/A -   "
42.04, 1879.96, 0.0701907, NaN, NaN, NaN, 0.0286883, "- N/A -   "
42.07, 1881.51, 0.07024627, NaN, NaN, NaN, 0.0262467, "- N/A -   "
42.1, 1882.7, 0.0702907, NaN, NaN, NaN, 0.0286883, "- N/A -   "
42.13, 1883.9, 0.07033791, NaN, NaN, NaN, 0.0299091, "- N/A -   "
42.16, 1885.21, 0.0703851, NaN, NaN, NaN, 0.03112983, "- N/A -   "
42.19, 1886.4, 0.07042954, NaN, NaN, NaN, 0.0335714, "- N/A -   "
42.22, 1887.47, 0.07047396, NaN, NaN, NaN, 0.03601294, "- N/A -   "
42.25, 1888.79, 0.07052395, NaN, NaN, NaN, 0.03601294, "- N/A -   "
42.28, 1890.22, 0.0705739, NaN, NaN, NaN, 0.0372337, "- N/A -   "
42.31, 1891.41, 0.07062113, NaN, NaN, NaN, 0.0372337, "- N/A -   "
42.34, 1892.72, 0.07066834, NaN, NaN, NaN, 0.0384545, "- N/A -   "
42.37, 1894.15, 0.0707211, NaN, NaN, NaN, 0.0372337, "- N/A -   "
42.4, 1895.46, 0.0707739, NaN, NaN, NaN, 0.03601294, "- N/A -   "
42.43, 1896.78, 0.07081828, NaN, NaN, NaN, 0.0384545, "- N/A -   "
42.46, 1897.85, 0.07086549, NaN, NaN, NaN, 0.04089605, "- N/A -   "
42.49, 1899.16, 0.07090992, NaN, NaN, NaN, 0.0433376, "- N/A -   "
42.52, 1900.23, 0.0709543, NaN, NaN, NaN, 0.0445584, "- N/A -   "
42.55, 1901.55, 0.0710015, NaN, NaN, NaN, 0.04577916, "- N/A -   "
42.58, 1902.98, 0.0710543, NaN, NaN, NaN, 0.0445584, "- N/A -   "
42.61, 1904.53, 0.07111262, NaN, NaN, NaN, 0.04089605, "- N/A -   "
42.64, 1906.32, 0.0711737, NaN, NaN, NaN, 0.0372337, "- N/A -   "
42.67, 1907.75, 0.07122646, NaN, NaN, NaN, 0.0347922, "- N/A -   "
42.7, 1909.18, 0.071282, NaN, NaN, NaN, 0.0335714, "- N/A -   "
42.73, 1910.49, 0.07133198, NaN, NaN, NaN, 0.0323506, "- N/A -   "
42.76, 1911.8, 0.071382, NaN, NaN, NaN, 0.0335714, "- N/A -   "
42.79, 1912.99, 0.07142916, NaN, NaN, NaN, 0.0347922, "- N/A -   "
42.82, 1914.31, 0.07147915, NaN, NaN, NaN, 0.0347922, "- N/A -   "
42.85, 1915.74, 0.07152358, NaN, NaN, NaN, 0.03601294, "- N/A -   "
42.88, 1916.81, 0.0715736, NaN, NaN, NaN, 0.03601294, "- N/A -   "
42.91, 1918.361, 0.07162631, NaN, NaN, NaN, 0.0347922, "- N/A -   "
42.94, 1919.91, 0.07168463, NaN, NaN, NaN, 0.0323506, "- N/A -   "
42.97, 1921.46, 0.0717402, NaN, NaN, NaN, 0.0286883, "- N/A -   "
43, 1922.53, 0.07178459, NaN, NaN, NaN, 0.03112983, "- N/A -   "
43.03, 1923.61, 0.07182902, NaN, NaN, NaN, 0.0335714, "- N/A -   "
43.06, 1924.92, 0.07187345, NaN, NaN, NaN, 0.03601294, "- N/A -   "
43.09, 1925.993, 0.07191788, NaN, NaN, NaN, 0.0384545, "- N/A -   "
43.12, 1927.19, 0.0719623, NaN, NaN, NaN, 0.04089605, "- N/A -   "
43.15, 1928.5, 0.07200951, NaN, NaN, NaN, 0.04211683, "- N/A -   "
43.18, 1929.93, 0.07206505, NaN, NaN, NaN, 0.0396753, "- N/A -   "
43.21, 1931.36, 0.0721178, NaN, NaN, NaN, 0.0384545, "- N/A -   "
43.24, 1932.67, 0.072165, NaN, NaN, NaN, 0.0396753, "- N/A -   "
43.27, 1933.98, 0.07221498, NaN, NaN, NaN, 0.04089605, "- N/A -   "
43.3, 1935.414, 0.07226497, NaN, NaN, NaN, 0.0396753, "- N/A -   "
43.33, 1936.96, 0.07232328, NaN, NaN, NaN, 0.0372337, "- N/A -   "
43.36, 1938.276, 0.07237326, NaN, NaN, NaN, 0.0372337, "- N/A -   "
43.39, 1939.707, 0.07242602, NaN, NaN, NaN, 0.0347922, "- N/A -   "
43.42, 1940.9, 0.072476, NaN, NaN, NaN, 0.0347922, "- N/A -   "
43.45, 1942.45, 0.07252876, NaN, NaN, NaN, 0.0335714, "- N/A -   "
43.48, 1943.76, 0.07257874, NaN, NaN, NaN, 0.0335714, "- N/A -   "
43.51, 1945.07, 0.0726315, NaN, NaN, NaN, 0.0335714, "- N/A -   "
43.54, 1946.5, 0.07268426, NaN, NaN, NaN, 0.0323506, "- N/A -   "
43.57, 1947.7, 0.0727287, NaN, NaN, NaN, 0.0335714, "- N/A -   "
43.6, 1949.13, 0.0727787, NaN, NaN, NaN, 0.0335714, "- N/A -   "
43.63, 1950.44, 0.0728342, NaN, NaN, NaN, 0.0323506, "- N/A -   "
43.66, 1951.99, 0.07288418, NaN, NaN, NaN, 0.03112983, "- N/A -   "
43.69, 1953.06, 0.0729314, NaN, NaN, NaN, 0.0323506, "- N/A -   "
43.72, 1954.375, 0.07298137, NaN, NaN, NaN, 0.0323506, "- N/A -   "
43.75, 1955.69, 0.07303135, NaN, NaN, NaN, 0.0335714, "- N/A -   "
43.78, 1956.88, 0.07307578, NaN, NaN, NaN, 0.03601294, "- N/A -   "