File: 2_Tensile_Data/Hamel_ForceTest_Bolt3_Test2.csv
Time, Load (lb), Position (in), AxialStrain (in), TransverseStrain (in), Auxiliary (), Control Out (V), Stress (psi)
0.0, 1.06153, 0.0, NaN, NaN, NaN, 0.08362327, "- N/A -   "
0.01, 1.17947, 2.77675e-05, NaN, NaN, NaN, 0.0799609, "- N/A -   "
0.02, 1.29742, 4.99815e-05, NaN, NaN, NaN, 0.0762986, "- N/A -   "
0.03, 1.41537, 7.49723E-5, NaN, NaN, NaN, 0.07385705, "- N/A -   "
0.04, 1.53332, 9.99631e-05, NaN, NaN, NaN, 0.0701947, "- N/A -   "
0.05, 1.76921, 0.000122177, NaN, NaN, NaN, 0.06775316, "- N/A -   "
0.06, 1.88716, 0.000141614, NaN, NaN, NaN, 0.0653116, "- N/A -   "
0.07, 2.005107, 1.610516E-4, NaN, NaN, NaN, 0.0640908, "- N/A -   "
0.08, 2.005107, 0.000180489, NaN, NaN, NaN, 0.06287005, "- N/A -   "
0.09, 2.005107, 0.000197149, NaN, NaN, NaN, 0.06287005, "- N/A -   "
0.1, 2.241, 0.000216587, NaN, NaN, NaN, 0.06164927, "- N/A -   "
0.11, 2.241, 2.360239E-4, NaN, NaN, NaN, 0.06164927, "- N/A -   "
0.12, 2.35895, 0.000255461, NaN, NaN, NaN, 0.0592077, "- N/A -   "
0.16, 2.83074, 0.000330433, NaN, NaN, NaN, 0.0555454, "- N/A -   "
0.2, 3.30253, 0.000399852, NaN, NaN, NaN, 0.0543246, "- N/A -   "
0.24, 3.65637, 0.000480378, NaN, NaN, NaN, 0.0494415, "- N/A -   "
0.28, 4.010214, 5.553504E-4, NaN, NaN, NaN, 0.04577916, "- N/A -   "
0.32, 4.482, 0.000635876, NaN, NaN, NaN, 0.0384545, "- N/A -   "
0.36, 4.953794, 7.136252E-4, NaN, NaN, NaN, 0.0335714, "- N/A -   "
0.4, 5.307636, 0.000791374, NaN, NaN, NaN, 0.0299091, "- N/A -   "
0.44, 5.779426, 8.552396E-4, NaN, NaN, NaN, 0.0299091, "- N/A -   "
0.48, 6.251216, 0.000919105, NaN, NaN, NaN, 0.03112983, "- N/A -   "
0.52, 6.723006, 9.829701E-4, NaN, NaN, NaN, 0.0335714, "- N/A -   "
0.56, 7.1948, 0.00104406, NaN, NaN, NaN, 0.03601294, "- N/A -   "
0.6, 7.666586, 0.00110792, NaN, NaN, NaN, 0.0372337, "- N/A -   "
0.64, 8.256323, 0.001174566, NaN, NaN, NaN, 0.0372337, "- N/A -   "
0.68, 8.846061, 0.001241208, NaN, NaN, NaN, 0.03601294, "- N/A -   "
0.72, 9.31785, 0.0013023, NaN, NaN, NaN, 0.0384545, "- N/A -   "
0.76, 9.671693, 0.00136061, NaN, NaN, NaN, 0.04211683, "- N/A -   "
0.8, 10.26143, 0.00142725, NaN, NaN, NaN, 0.0433376, "- N/A -   "
0.84, 10.8512, 0.00148834, NaN, NaN, NaN, 0.0445584, "- N/A -   "
0.88, 11.4409, 0.001554981, NaN, NaN, NaN, 0.0445584, "- N/A -   "
0.92, 12.14859, 0.00163273, NaN, NaN, NaN, 0.0396753, "- N/A -   "
0.96, 12.8563, 0.00171326, NaN, NaN, NaN, 0.0347922, "- N/A -   "
1, 13.564, 0.00178267, NaN, NaN, NaN, 0.0323506, "- N/A -   "
1.04, 14.1537, 0.00185487, NaN, NaN, NaN, 0.0299091, "- N/A -   "
1.08, 14.7434, 0.00191874, NaN, NaN, NaN, 0.03112983, "- N/A -   "
1.12, 15.3332, 0.00197982, NaN, NaN, NaN, 0.0335714, "- N/A -   "
1.16, 16.0409, 0.00204369, NaN, NaN, NaN, 0.0347922, "- N/A -   "
1.2, 16.74854, 0.00211866, NaN, NaN, NaN, 0.0323506, "- N/A -   "
1.24, 17.4562, 0.002182527, NaN, NaN, NaN, 0.0323506, "- N/A -   "
1.28, 18.16391, 0.00224639, NaN, NaN, NaN, 0.0335714, "- N/A -   "
1.32, 18.7536, 0.002307481, NaN, NaN, NaN, 0.03601294, "- N/A -   "
1.36, 19.57928, 0.00237412, NaN, NaN, NaN, 0.03601294, "- N/A -   "
1.4, 20.169, 0.00243521, NaN, NaN, NaN, 0.0384545, "- N/A -   "
1.44, 20.8767, 0.0024963, NaN, NaN, NaN, 0.04211683, "- N/A -   "
1.48, 21.5844, 0.002562942, NaN, NaN, NaN, 0.04211683, "- N/A -   "
1.52, 22.29207, 0.00262681, NaN, NaN, NaN, 0.04211683, "- N/A -   "
1.56, 23.1177, 0.002699, NaN, NaN, NaN, 0.04089605, "- N/A -   "
1.6, 23.9433, 0.00276842, NaN, NaN, NaN, 0.0384545, "- N/A -   "
1.64, 24.769, 0.00283784, NaN, NaN, NaN, 0.0372337, "- N/A -   "
1.68, 25.5946, 0.002910036, NaN, NaN, NaN, 0.0347922, "- N/A -   "
1.72, 26.3023, 0.0029739, NaN, NaN, NaN, 0.03601294, "- N/A -   "
1.76, 27.1279, 0.00304332, NaN, NaN, NaN, 0.03601294, "- N/A -   "
1.8, 27.95355, 0.003109962, NaN, NaN, NaN, 0.0347922, "- N/A -   "
1.84, 28.7792, 0.003179381, NaN, NaN, NaN, 0.0335714, "- N/A -   "
1.88, 29.6048, 0.00325158, NaN, NaN, NaN, 0.0323506, "- N/A -   "
1.92, 30.3125, 0.003312665, NaN, NaN, NaN, 0.0335714, "- N/A -   "
1.96, 31.1381, 0.00337653, NaN, NaN, NaN, 0.0347922, "- N/A -   "
2, 31.8458, 0.00344317, NaN, NaN, NaN, 0.0347922, "- N/A -   "
2.04, 32.67145, 0.00351537, NaN, NaN, NaN, 0.0335714, "- N/A -   "
2.08, 33.49708, 0.00357923, NaN, NaN, NaN, 0.0335714, "- N/A -   "
2.12, 34.08682, 0.00363477, NaN, NaN, NaN, 0.0384545, "- N/A -   "
2.16, 34.7945, 0.00369863, NaN, NaN, NaN, 0.04089605, "- N/A -   "
2.2, 35.6201, 0.0037625, NaN, NaN, NaN, 0.04089605, "- N/A -   "
2.24, 36.44577, 0.003826364, NaN, NaN, NaN, 0.0433376, "- N/A -   "
2.28, 37.2714, 0.00389023, NaN, NaN, NaN, 0.0445584, "- N/A -   "
2.32, 38.215, 0.003962425, NaN, NaN, NaN, 0.04211683, "- N/A -   "
2.36, 39.15856, 0.00403462, NaN, NaN, NaN, 0.0384545, "- N/A -   "
2.4, 39.98419, 0.00410959, NaN, NaN, NaN, 0.0347922, "- N/A -   "
2.44, 40.9278, 0.004184565, NaN, NaN, NaN, 0.03112983, "- N/A -   "
2.48, 41.7534, 0.004251207, NaN, NaN, NaN, 0.03112983, "- N/A -   "
2.52, 42.4611, 0.004315072, NaN, NaN, NaN, 0.0323506, "- N/A -   "
2.56, 43.2867, 0.00438171, NaN, NaN, NaN, 0.0323506, "- N/A -   "
2.6, 44.2303, 0.00445391, NaN, NaN, NaN, 0.0299091, "- N/A -   "
2.64, 45.17388, 0.004523329, NaN, NaN, NaN, 0.0286883, "- N/A -   "
2.68, 45.76362, 0.004584417, NaN, NaN, NaN, 0.03112983, "- N/A -   "
2.72, 46.7072, 0.004645506, NaN, NaN, NaN, 0.0335714, "- N/A -   "
2.76, 47.4149, 0.004709371, NaN, NaN, NaN, 0.03601294, "- N/A -   "
2.8, 48.12257, 0.004767683, NaN, NaN, NaN, 0.0384545, "- N/A -   "
2.84, 48.83025, 0.004825995, NaN, NaN, NaN, 0.04211683, "- N/A -   "
2.88, 49.6559, 0.004887083, NaN, NaN, NaN, 0.04577916, "- N/A -   "
2.92, 50.4815, 0.00495095, NaN, NaN, NaN, 0.04699994, "- N/A -   "
2.96, 51.543, 0.005023144, NaN, NaN, NaN, 0.0445584, "- N/A -   "
3, 52.6046, 0.00510089, NaN, NaN, NaN, 0.0384545, "- N/A -   "
3.04, 53.6661, 0.00517309, NaN, NaN, NaN, 0.03601294, "- N/A -   "
3.08, 54.7276, 0.005245284, NaN, NaN, NaN, 0.0335714, "- N/A -   "
3.12, 55.6712, 0.005314703, NaN, NaN, NaN, 0.0335714, "- N/A -   "
3.16, 56.6148, 0.00537857, NaN, NaN, NaN, 0.0335714, "- N/A -   "
3.2, 57.5584, 0.00545632, NaN, NaN, NaN, 0.0299091, "- N/A -   "
3.24, 58.6199, 0.00552296, NaN, NaN, NaN, 0.0299091, "- N/A -   "
3.28, 59.5635, 0.0055896, NaN, NaN, NaN, 0.0299091, "- N/A -   "
3.32, 60.5071, 0.00565347, NaN, NaN, NaN, 0.0299091, "- N/A -   "
3.36, 61.3327, 0.00571178, NaN, NaN, NaN, 0.0335714, "- N/A -   "
3.4, 62.0404, 0.005772867, NaN, NaN, NaN, 0.0372337, "- N/A -   "
3.44, 62.98395, 0.00583396, NaN, NaN, NaN, 0.0384545, "- N/A -   "
3.48, 63.92753, 0.00589227, NaN, NaN, NaN, 0.04211683, "- N/A -   "
3.52, 64.87111, 0.005956133, NaN, NaN, NaN, 0.04577916, "- N/A -   "
3.56, 65.93263, 0.00602277, NaN, NaN, NaN, 0.0445584, "- N/A -   "
3.6, 66.87622, 0.006089417, NaN, NaN, NaN, 0.0445584, "- N/A -   "
3.64, 67.81979, 0.00615884, NaN, NaN, NaN, 0.0433376, "- N/A -   "
3.68, 68.9993, 0.006228254, NaN, NaN, NaN, 0.04211683, "- N/A -   "
3.72, 69.94285, 0.006303227, NaN, NaN, NaN, 0.0396753, "- N/A -   "
3.76, 71.12233, 0.006383753, NaN, NaN, NaN, 0.0335714, "- N/A -   "
3.8, 72.1838, 0.006455948, NaN, NaN, NaN, 0.0299091, "- N/A -   "
3.84, 73.12743, 0.006525367, NaN, NaN, NaN, 0.0286883, "- N/A -   "
3.88, 74.189, 0.006592009, NaN, NaN, NaN, 0.0286883, "- N/A -   "
3.92, 75.13254, 0.006655874, NaN, NaN, NaN, 0.0299091, "- N/A -   "
3.96, 75.95817, 0.006719739, NaN, NaN, NaN, 0.03112983, "- N/A -   "
4, 76.7838, 0.00678083, NaN, NaN, NaN, 0.0335714, "- N/A -   "
4.04, 77.72738, 0.00684192, NaN, NaN, NaN, 0.03601294, "- N/A -   "
4.08, 78.67096, 0.00690856, NaN, NaN, NaN, 0.03601294, "- N/A -   "
4.12, 79.61454, 0.006972424, NaN, NaN, NaN, 0.0372337, "- N/A -   "
4.16, 80.32223, 0.00703351, NaN, NaN, NaN, 0.0396753, "- N/A -   "
4.2, 81.38376, 0.007094601, NaN, NaN, NaN, 0.04211683, "- N/A -   "
4.24, 82.32734, 0.00715569, NaN, NaN, NaN, 0.0445584, "- N/A -   "
4.28, 83.15297, 0.007219555, NaN, NaN, NaN, 0.04577916, "- N/A -   "
4.32, 84.45039, 0.00729175, NaN, NaN, NaN, 0.0433376, "- N/A -   "
4.36, 85.62987, 0.00737228, NaN, NaN, NaN, 0.0372337, "- N/A -   "
4.4, 86.80934, 0.007447249, NaN, NaN, NaN, 0.0347922, "- N/A -   "
4.44, 87.9888, 0.00752222, NaN, NaN, NaN, 0.03112983, "- N/A -   "
4.48, 88.8144, 0.007586086, NaN, NaN, NaN, 0.03112983, "- N/A -   "
4.52, 89.52213, 0.0076444, NaN, NaN, NaN, 0.0347922, "- N/A -   "
4.56, 90.4657, 0.007705487, NaN, NaN, NaN, 0.0372337, "- N/A -   "
4.6, 91.52724, 0.00777213, NaN, NaN, NaN, 0.0372337, "- N/A -   "
4.64, 92.47082, 0.007841547, NaN, NaN, NaN, 0.03601294, "- N/A -   "
4.68, 93.65029, 0.007916519, NaN, NaN, NaN, 0.0323506, "- N/A -   "
4.72, 94.59387, 0.007983162, NaN, NaN, NaN, 0.0335714, "- N/A -   "
4.76, 95.41951, 0.00804425, NaN, NaN, NaN, 0.0347922, "- N/A -   "
4.8, 96.36309, 0.008102562, NaN, NaN, NaN, 0.0384545, "- N/A -   "
4.84, 97.18872, 0.008166427, NaN, NaN, NaN, 0.04089605, "- N/A -   "
4.88, 98.2502, 0.008230292, NaN, NaN, NaN, 0.04089605, "- N/A -   "
4.92, 99.3118, 0.008299711, NaN, NaN, NaN, 0.04089605, "- N/A -   "
4.96, 100.255, 0.008366354, NaN, NaN, NaN, 0.0396753, "- N/A -   "
5, 101.317, 0.008435773, NaN, NaN, NaN, 0.0396753, "- N/A -   "
5.04, 102.3784, 0.008505192, NaN, NaN, NaN, 0.0372337, "- N/A -   "
5.08, 103.322, 0.00857461, NaN, NaN, NaN, 0.0372337, "- N/A -   "
5.12, 104.384, 0.008638475, NaN, NaN, NaN, 0.0372337, "- N/A -   "
5.16, 105.209, 0.008702341, NaN, NaN, NaN, 0.0384545, "- N/A -   "
5.2, 106.271, 0.008771759, NaN, NaN, NaN, 0.0372337, "- N/A -   "
5.24, 107.45, 0.008849508, NaN, NaN, NaN, 0.0323506, "- N/A -   "
5.28, 108.512, 0.008916151, NaN, NaN, NaN, 0.0323506, "- N/A -   "
5.32, 109.691, 0.008988346, NaN, NaN, NaN, 0.0299091, "- N/A -   "
5.36, 110.753, 0.009057765, NaN, NaN, NaN, 0.0286883, "- N/A -   "
5.4, 111.342, 0.009116077, NaN, NaN, NaN, 0.0323506, "- N/A -   "
5.44, 112.286, 0.009177165, NaN, NaN, NaN, 0.0347922, "- N/A -   "
5.48, 113.23, 0.009243807, NaN, NaN, NaN, 0.03601294, "- N/A -   "
5.52, 114.173, 0.009304896, NaN, NaN, NaN, 0.0372337, "- N/A -   "
5.56, 115.117, 0.009371538, NaN, NaN, NaN, 0.0372337, "- N/A -   "
5.6, 116.06, 0.009432627, NaN, NaN, NaN, 0.0396753, "- N/A -   "
5.64, 116.886, 0.009493715, NaN, NaN, NaN, 0.04211683, "- N/A -   "
5.68, 117.947, 0.009560357, NaN, NaN, NaN, 0.0433376, "- N/A -   "
5.72, 118.7731, 0.009627, NaN, NaN, NaN, 0.0433376, "- N/A -   "
5.76, 119.953, 0.009699196, NaN, NaN, NaN, 0.0396753, "- N/A -   "
5.8, 121.014, 0.009776944, NaN, NaN, NaN, 0.0347922, "- N/A -   "
5.84, 122.194, 0.00984914, NaN, NaN, NaN, 0.0323506, "- N/A -   "
5.88, 123.019, 0.009913003, NaN, NaN, NaN, 0.0335714, "- N/A -   "
5.92, 123.845, 0.00997687, NaN, NaN, NaN, 0.0347922, "- N/A -   "
5.96, 124.788, 0.0100407, NaN, NaN, NaN, 0.03601294, "- N/A -   "
6, 125.85, 0.01011293, NaN, NaN, NaN, 0.0335714, "- N/A -   "
6.04, 126.911, 0.0101879, NaN, NaN, NaN, 0.0299091, "- N/A -   "
6.08, 128.091, 0.0102573, NaN, NaN, NaN, 0.0286883, "- N/A -   "
6.12, 128.799, 0.0103184, NaN, NaN, NaN, 0.03112983, "- N/A -   "
6.16, 129.742, 0.0103795, NaN, NaN, NaN, 0.0335714, "- N/A -   "
6.2, 130.4499, 0.010435, NaN, NaN, NaN, 0.0384545, "- N/A -   "
6.24, 131.276, 0.0104933, NaN, NaN, NaN, 0.04211683, "- N/A -   "
6.28, 132.101, 0.0105544, NaN, NaN, NaN, 0.0445584, "- N/A -   "
6.32, 133.163, 0.0106183, NaN, NaN, NaN, 0.04577916, "- N/A -   "
6.36, 134.342, 0.0106905, NaN, NaN, NaN, 0.0433376, "- N/A -   "
6.4, 135.4037, 0.0107682, NaN, NaN, NaN, 0.0396753, "- N/A -   "
6.44, 136.465, 0.0108404, NaN, NaN, NaN, 0.03601294, "- N/A -   "
6.48, 137.6447, 0.0109126, NaN, NaN, NaN, 0.0335714, "- N/A -   "
6.52, 138.588, 0.0109793, NaN, NaN, NaN, 0.0335714, "- N/A -   "
6.56, 139.414, 0.0110487, NaN, NaN, NaN, 0.0323506, "- N/A -   "
6.6, 140.711, 0.0111237, NaN, NaN, NaN, 0.0286883, "- N/A -   "
6.64, 141.773, 0.0111931, NaN, NaN, NaN, 0.0274675, "- N/A -   "
6.68, 142.8344, 0.0112597, NaN, NaN, NaN, 0.0286883, "- N/A -   "
6.72, 143.778, 0.01132637, NaN, NaN, NaN, 0.0274675, "- N/A -   "
6.76, 144.604, 0.0113819, NaN, NaN, NaN, 0.0335714, "- N/A -   "
6.8, 145.311, 0.0114374, NaN, NaN, NaN, 0.0372337, "- N/A -   "
6.84, 146.137, 0.0114958, NaN, NaN, NaN, 0.04089605, "- N/A -   "
6.88, 146.963, 0.01154851, NaN, NaN, NaN, 0.04699994, "- N/A -   "
6.92, 148.142, 0.0116179, NaN, NaN, NaN, 0.04577916, "- N/A -   "
6.96, 149.3215, 0.0116901, NaN, NaN, NaN, 0.0433376, "- N/A -   "
7, 150.265, 0.0117595, NaN, NaN, NaN, 0.04211683, "- N/A -   "
7.04, 151.445, 0.011829, NaN, NaN, NaN, 0.04089605, "- N/A -   "
7.08, 152.388, 0.0118984, NaN, NaN, NaN, 0.0396753, "- N/A -   "
7.12, 153.686, 0.0119706, NaN, NaN, NaN, 0.0372337, "- N/A -   "
7.16, 154.983, 0.0120539, NaN, NaN, NaN, 0.0299091, "- N/A -   "
7.2, 156.0445, 0.0121261, NaN, NaN, NaN, 0.0274675, "- N/A -   "
7.24, 157.106, 0.0121927, NaN, NaN, NaN, 0.0274675, "- N/A -   "
7.28, 158.168, 0.0122621, NaN, NaN, NaN, 0.0274675, "- N/A -   "
7.32, 158.9932, 0.0123204, NaN, NaN, NaN, 0.0299091, "- N/A -   "
7.36, 160.173, 0.0123843, NaN, NaN, NaN, 0.0323506, "- N/A -   "
7.4, 160.88, 0.0124454, NaN, NaN, NaN, 0.0347922, "- N/A -   "
7.44, 162.06, 0.0125065, NaN, NaN, NaN, 0.0372337, "- N/A -   "
7.48, 163.0034, 0.0125704, NaN, NaN, NaN, 0.0372337, "- N/A -   "
7.52, 163.829, 0.0126342, NaN, NaN, NaN, 0.0396753, "- N/A -   "
7.56, 164.891, 0.0126925, NaN, NaN, NaN, 0.04211683, "- N/A -   "
7.6, 165.834, 0.0127536, NaN, NaN, NaN, 0.0445584, "- N/A -   "
7.64, 166.896, 0.0128203, NaN, NaN, NaN, 0.0445584, "- N/A -   "
7.68, 167.839, 0.0128841, NaN, NaN, NaN, 0.04577916, "- N/A -   "
7.72, 169.137, 0.0129591, NaN, NaN, NaN, 0.04211683, "- N/A -   "
7.76, 170.4341, 0.0130424, NaN, NaN, NaN, 0.0347922, "- N/A -   "
7.8, 171.849, 0.0131202, NaN, NaN, NaN, 0.0299091, "- N/A -   "
7.84, 173.029, 0.0131923, NaN, NaN, NaN, 0.0274675, "- N/A -   "
7.88, 173.973, 0.0132534, NaN, NaN, NaN, 0.0299091, "- N/A -   "
7.92, 174.9161, 0.0133145, NaN, NaN, NaN, 0.0323506, "- N/A -   "
7.96, 175.742, 0.0133784, NaN, NaN, NaN, 0.0335714, "- N/A -   "
8, 176.9212, 0.013445, NaN, NaN, NaN, 0.0347922, "- N/A -   "
8.04, 178.1007, 0.0135145, NaN, NaN, NaN, 0.0347922, "- N/A -   "
8.08, 179.28, 0.01358387, NaN, NaN, NaN, 0.0323506, "- N/A -   "
8.12, 180.224, 0.0136505, NaN, NaN, NaN, 0.0335714, "- N/A -   "
8.16, 181.285, 0.0137116, NaN, NaN, NaN, 0.0347922, "- N/A -   "
8.2, 182.229, 0.0137699, NaN, NaN, NaN, 0.0384545, "- N/A -   "
8.24, 183.054, 0.0138254, NaN, NaN, NaN, 0.0433376, "- N/A -   "
8.28, 184.234, 0.0138949, NaN, NaN, NaN, 0.0433376, "- N/A -   "
8.32, 185.413, 0.0139671, NaN, NaN, NaN, 0.04089605, "- N/A -   "
8.36, 186.711, 0.0140365, NaN, NaN, NaN, 0.0384545, "- N/A -   "
8.4, 187.536, 0.0141003, NaN, NaN, NaN, 0.0396753, "- N/A -   "
8.44, 188.952, 0.0141698, NaN, NaN, NaN, 0.0384545, "- N/A -   "
8.48, 190.131, 0.01424196, NaN, NaN, NaN, 0.03601294, "- N/A -   "
8.52, 191.193, 0.0143086, NaN, NaN, NaN, 0.0372337, "- N/A -   "
8.56, 192.254, 0.0143752, NaN, NaN, NaN, 0.0372337, "- N/A -   "
8.6, 193.434, 0.0144419, NaN, NaN, NaN, 0.03601294, "- N/A -   "
8.64, 194.731, 0.0145196, NaN, NaN, NaN, 0.03112983, "- N/A -   "
8.68, 195.7928, 0.0145863, NaN, NaN, NaN, 0.0323506, "- N/A -   "
8.72, 196.736, 0.0146474, NaN, NaN, NaN, 0.0335714, "- N/A -   "
8.76, 197.916, 0.014714, NaN, NaN, NaN, 0.0335714, "- N/A -   "
8.8, 199.095, 0.0147779, NaN, NaN, NaN, 0.0347922, "- N/A -   "
8.84, 200.039, 0.0148417, NaN, NaN, NaN, 0.03601294, "- N/A -   "
8.88, 201.336, 0.0149139, NaN, NaN, NaN, 0.0347922, "- N/A -   "
8.92, 202.28, 0.0149695, NaN, NaN, NaN, 0.0384545, "- N/A -   "
8.96, 203.2235, 0.0150278, NaN, NaN, NaN, 0.04211683, "- N/A -   "
9, 204.403, 0.0150972, NaN, NaN, NaN, 0.04089605, "- N/A -   "
9.04, 205.465, 0.0151611, NaN, NaN, NaN, 0.04211683, "- N/A -   "
9.08, 206.526, 0.0152222, NaN, NaN, NaN, 0.0445584, "- N/A -   "
9.12, 207.705, 0.0152888, NaN, NaN, NaN, 0.0445584, "- N/A -   "
9.16, 209.121, 0.015361, NaN, NaN, NaN, 0.04211683, "- N/A -   "
9.2, 210.418, 0.0154415, NaN, NaN, NaN, 0.03601294, "- N/A -   "
9.24, 211.716, 0.01551649, NaN, NaN, NaN, 0.0323506, "- N/A -   "
9.28, 212.895, 0.0155804, NaN, NaN, NaN, 0.0335714, "- N/A -   "
9.32, 213.957, 0.015647, NaN, NaN, NaN, 0.0335714, "- N/A -   "
9.36, 215.136, 0.01571364, NaN, NaN, NaN, 0.0335714, "- N/A -   "
9.4, 216.316, 0.0157831, NaN, NaN, NaN, 0.0323506, "- N/A -   "
9.44, 217.849, 0.0158636, NaN, NaN, NaN, 0.0274675, "- N/A -   "
9.48, 218.9105, 0.0159302, NaN, NaN, NaN, 0.0274675, "- N/A -   "
9.52, 219.972, 0.0159913, NaN, NaN, NaN, 0.0286883, "- N/A -   "
9.56, 220.916, 0.0160496, NaN, NaN, NaN, 0.0323506, "- N/A -   "
9.6, 221.859, 0.0161024, NaN, NaN, NaN, 0.0384545, "- N/A -   "
9.64, 222.803, 0.0161607, NaN, NaN, NaN, 0.0433376, "- N/A -   "
9.68, 224.1002, 0.0162246, NaN, NaN, NaN, 0.0433376, "- N/A -   "
9.72, 225.162, 0.0162884, NaN, NaN, NaN, 0.0445584, "- N/A -   "
9.76, 226.459, 0.0163578, NaN, NaN, NaN, 0.0433376, "- N/A -   "
9.8, 227.757, 0.01643004, NaN, NaN, NaN, 0.04089605, "- N/A -   "
9.84, 229.054, 0.0165022, NaN, NaN, NaN, 0.0384545, "- N/A -   "
9.88, 230.233, 0.0165717, NaN, NaN, NaN, 0.0384545, "- N/A -   "
9.92, 231.767, 0.0166466, NaN, NaN, NaN, 0.0347922, "- N/A -   "
9.96, 232.828, 0.0167105, NaN, NaN, NaN, 0.0347922, "- N/A -   "
10, 234.244, 0.0167855, NaN, NaN, NaN, 0.03112983, "- N/A -   "
10.04, 235.659, 0.0168577, NaN, NaN, NaN, 0.0286883, "- N/A -   "
10.08, 236.721, 0.0169215, NaN, NaN, NaN, 0.0299091, "- N/A -   "
10.12, 237.9, 0.0169909, NaN, NaN, NaN, 0.0299091, "- N/A -   "
10.16, 239.08, 0.0170493, NaN, NaN, NaN, 0.0323506, "- N/A -   "
10.2, 240.141, 0.0171076, NaN, NaN, NaN, 0.0372337, "- N/A -   "
10.24, 241.203, 0.0171659, NaN, NaN, NaN, 0.0396753, "- N/A -   "
10.28, 242.146, 0.017227, NaN, NaN, NaN, 0.04211683, "- N/A -   "
10.32, 243.325, 0.0172881, NaN, NaN, NaN, 0.04577916, "- N/A -   "
10.36, 244.621, 0.0173547, NaN, NaN, NaN, 0.0445584, "- N/A -   "
10.4, 245.917, 0.0174241, NaN, NaN, NaN, 0.0433376, "- N/A -   "
10.44, 247.095, 0.0174908, NaN, NaN, NaN, 0.0445584, "- N/A -   "
10.48, 248.509, 0.0175602, NaN, NaN, NaN, 0.04211683, "- N/A -   "
10.52, 249.805, 0.0176324, NaN, NaN, NaN, 0.0396753, "- N/A -   "
10.56, 251.455, 0.0177129, NaN, NaN, NaN, 0.0335714, "- N/A -   "
10.6, 252.8687, 0.01779065, NaN, NaN, NaN, 0.0286883, "- N/A -   "
10.64, 254.283, 0.0178601, NaN, NaN, NaN, 0.0274675, "- N/A -   "
10.68, 255.461, 0.0179239, NaN, NaN, NaN, 0.0286883, "- N/A -   "
10.72, 256.639, 0.017985, NaN, NaN, NaN, 0.03112983, "- N/A -   "
10.76, 257.9352, 0.01805444, NaN, NaN, NaN, 0.03112983, "- N/A -   "
10.8, 259.113, 0.0181155, NaN, NaN, NaN, 0.0335714, "- N/A -   "
10.84, 260.292, 0.0181794, NaN, NaN, NaN, 0.0335714, "- N/A -   "
10.88, 261.588, 0.0182433, NaN, NaN, NaN, 0.0347922, "- N/A -   "
10.92, 262.8839, 0.0183127, NaN, NaN, NaN, 0.0347922, "- N/A -   "
10.96, 263.944, 0.0183738, NaN, NaN, NaN, 0.03601294, "- N/A -   "
11, 265.123, 0.0184321, NaN, NaN, NaN, 0.0396753, "- N/A -   "
11.04, 266.183, 0.01849039, NaN, NaN, NaN, 0.0433376, "- N/A -   "
11.08, 267.479, 0.0185543, NaN, NaN, NaN, 0.0445584, "- N/A -   "
11.12, 269.011, 0.0186265, NaN, NaN, NaN, 0.04211683, "- N/A -   "
11.16, 270.5426, 0.0187042, NaN, NaN, NaN, 0.0384545, "- N/A -   "
11.2, 271.9565, 0.0187764, NaN, NaN, NaN, 0.0347922, "- N/A -   "
11.24, 273.488, 0.0188458, NaN, NaN, NaN, 0.0335714, "- N/A -   "
11.28, 275.02, 0.0189208, NaN, NaN, NaN, 0.0299091, "- N/A -   "
11.32, 276.08, 0.0189847, NaN, NaN, NaN, 0.03112983, "- N/A -   "
11.36, 277.377, 0.0190457, NaN, NaN, NaN, 0.0347922, "- N/A -   "
11.4, 278.555, 0.0191096, NaN, NaN, NaN, 0.0347922, "- N/A -   "
11.44, 279.9687, 0.0191818, NaN, NaN, NaN, 0.0323506, "- N/A -   "
11.48, 281.3826, 0.0192484, NaN, NaN, NaN, 0.0323506, "- N/A -   "
11.52, 282.6787, 0.0193151, NaN, NaN, NaN, 0.0323506, "- N/A -   "
11.56, 283.9748, 0.01937895, NaN, NaN, NaN, 0.0335714, "- N/A -   "
11.6, 285.153, 0.01943726, NaN, NaN, NaN, 0.0372337, "- N/A -   "
11.64, 286.3313, 0.0194984, NaN, NaN, NaN, 0.04089605, "- N/A -   "
11.68, 287.51, 0.0195622, NaN, NaN, NaN, 0.04211683, "- N/A -   "
11.72, 289.041, 0.0196261, NaN, NaN, NaN, 0.04211683, "- N/A -   "
11.76, 290.3374, 0.0196955, NaN, NaN, NaN, 0.04089605, "- N/A -   "
11.8, 291.7513, 0.01976492, NaN, NaN, NaN, 0.04089605, "- N/A -   "
11.84, 293.165, 0.0198343, NaN, NaN, NaN, 0.0396753, "- N/A -   "
11.88, 294.8148, 0.0199065, NaN, NaN, NaN, 0.03601294, "- N/A -   "
11.92, 296.2287, 0.01997873, NaN, NaN, NaN, 0.0335714, "- N/A -   "
11.96, 297.878, 0.0200537, NaN, NaN, NaN, 0.03112983, "- N/A -   "
12, 299.292, 0.02012312, NaN, NaN, NaN, 0.0286883, "- N/A -   "
12.04, 300.7061, 0.0201925, NaN, NaN, NaN, 0.0274675, "- N/A -   "
12.08, 302.12, 0.020262, NaN, NaN, NaN, 0.0262467, "- N/A -   "
12.12, 303.18, 0.020323, NaN, NaN, NaN, 0.0299091, "- N/A -   "
12.16, 304.477, 0.0203814, NaN, NaN, NaN, 0.0323506, "- N/A -   "
12.2, 305.6548, 0.0204424, NaN, NaN, NaN, 0.03601294, "- N/A -   "
12.24, 306.9509, 0.0205035, NaN, NaN, NaN, 0.0372337, "- N/A -   "
12.28, 308.365, 0.0205702, NaN, NaN, NaN, 0.0372337, "- N/A -   "
12.32, 309.6609, 0.0206368, NaN, NaN, NaN, 0.0372337, "- N/A -   "
12.36, 310.7213, 0.0206896, NaN, NaN, NaN, 0.0433376, "- N/A -   "
12.4, 311.782, 0.0207479, NaN, NaN, NaN, 0.0482207, "- N/A -   "
12.44, 313.196, 0.020809, NaN, NaN, NaN, 0.0494415, "- N/A -   "
12.48, 314.61, 0.0208784, NaN, NaN, NaN, 0.0482207, "- N/A -   "
12.52, 316.377, 0.02095337, NaN, NaN, NaN, 0.0445584, "- N/A -   "
12.56, 318.144, 0.0210339, NaN, NaN, NaN, 0.0396753, "- N/A -   "
12.6, 319.7939, 0.0211144, NaN, NaN, NaN, 0.0347922, "- N/A -   "
12.64, 321.443, 0.0211866, NaN, NaN, NaN, 0.03112983, "- N/A -   "
12.68, 322.8574, 0.021256, NaN, NaN, NaN, 0.0299091, "- N/A -   "
12.72, 324.153, 0.0213227, NaN, NaN, NaN, 0.0299091, "- N/A -   "
12.76, 325.685, 0.0213865, NaN, NaN, NaN, 0.03112983, "- N/A -   "
12.8, 327.099, 0.02145596, NaN, NaN, NaN, 0.03112983, "- N/A -   "
12.84, 328.513, 0.0215282, NaN, NaN, NaN, 0.0286883, "- N/A -   "
12.88, 329.927, 0.021592, NaN, NaN, NaN, 0.0299091, "- N/A -   "
12.92, 331.223, 0.0216559, NaN, NaN, NaN, 0.0299091, "- N/A -   "
12.96, 332.519, 0.021717, NaN, NaN, NaN, 0.0323506, "- N/A -   "
13, 333.697, 0.0217725, NaN, NaN, NaN, 0.0372337, "- N/A -   "
13.04, 334.64, 0.021828, NaN, NaN, NaN, 0.04211683, "- N/A -   "
13.08, 335.818, 0.02188358, NaN, NaN, NaN, 0.04699994, "- N/A -   "
13.12, 337.35, 0.0219474, NaN, NaN, NaN, 0.0482207, "- N/A -   "
13.16, 338.882, 0.0220169, NaN, NaN, NaN, 0.04699994, "- N/A -   "
13.2, 340.413, 0.0220918, NaN, NaN, NaN, 0.0433376, "- N/A -   "
13.24, 342.181, 0.0221696, NaN, NaN, NaN, 0.0384545, "- N/A -   "
13.28, 343.713, 0.0222418, NaN, NaN, NaN, 0.0372337, "- N/A -   "
13.32, 345.244, 0.0223112, NaN, NaN, NaN, 0.0347922, "- N/A -   "
13.36, 346.7761, 0.0223778, NaN, NaN, NaN, 0.0347922, "- N/A -   "
13.4, 348.426, 0.0224528, NaN, NaN, NaN, 0.03112983, "- N/A -   "
13.44, 349.84, 0.0225222, NaN, NaN, NaN, 0.0299091, "- N/A -   "
13.48, 351.253, 0.0225889, NaN, NaN, NaN, 0.0299091, "- N/A -   "
13.52, 352.785, 0.0226583, NaN, NaN, NaN, 0.0286883, "- N/A -   "
13.56, 354.199, 0.0227249, NaN, NaN, NaN, 0.0286883, "- N/A -   "
13.6, 355.4952, 0.022786, NaN, NaN, NaN, 0.03112983, "- N/A -   "
13.64, 356.791, 0.0228443, NaN, NaN, NaN, 0.0347922, "- N/A -   "
13.68, 357.852, 0.0229026, NaN, NaN, NaN, 0.0396753, "- N/A -   "
13.72, 359.266, 0.02296096, NaN, NaN, NaN, 0.04211683, "- N/A -   "
13.76, 360.562, 0.0230248, NaN, NaN, NaN, 0.0433376, "- N/A -   "
13.8, 362.093, 0.0230887, NaN, NaN, NaN, 0.0445584, "- N/A -   "
13.84, 363.3896, 0.0231526, NaN, NaN, NaN, 0.04699994, "- N/A -   "
13.88, 365.039, 0.0232248, NaN, NaN, NaN, 0.0445584, "- N/A -   "
13.92, 366.571, 0.0232969, NaN, NaN, NaN, 0.04089605, "- N/A -   "
13.96, 368.4561, 0.0233747, NaN, NaN, NaN, 0.0372337, "- N/A -   "
14, 370.106, 0.0234497, NaN, NaN, NaN, 0.0323506, "- N/A -   "
14.04, 371.6374, 0.0235219, NaN, NaN, NaN, 0.03112983, "- N/A -   "
14.08, 373.0513, 0.0235885, NaN, NaN, NaN, 0.0299091, "- N/A -   "
14.12, 374.583, 0.0236524, NaN, NaN, NaN, 0.03112983, "- N/A -   "
14.16, 375.879, 0.0237162, NaN, NaN, NaN, 0.0323506, "- N/A -   "
14.2, 377.293, 0.0237773, NaN, NaN, NaN, 0.0347922, "- N/A -   "
14.24, 378.707, 0.0238384, NaN, NaN, NaN, 0.0372337, "- N/A -   "
14.28, 380.2387, 0.0239078, NaN, NaN, NaN, 0.03601294, "- N/A -   "
14.32, 381.6526, 0.0239745, NaN, NaN, NaN, 0.0372337, "- N/A -   "
14.36, 383.184, 0.02403834, NaN, NaN, NaN, 0.0372337, "- N/A -   "
14.4, 384.48, 0.0240967, NaN, NaN, NaN, 0.04089605, "- N/A -   "
14.44, 385.777, 0.0241605, NaN, NaN, NaN, 0.0433376, "- N/A -   "
14.48, 387.19, 0.02421883, NaN, NaN, NaN, 0.04577916, "- N/A -   "
14.52, 388.604, 0.0242882, NaN, NaN, NaN, 0.04577916, "- N/A -   "
14.56, 390.49, 0.02436322, NaN, NaN, NaN, 0.04089605, "- N/A -   "
14.6, 392.257, 0.0244437, NaN, NaN, NaN, 0.0347922, "- N/A -   "
14.64, 394.024, 0.0245215, NaN, NaN, NaN, 0.03112983, "- N/A -   "
14.68, 395.5561, 0.0245881, NaN, NaN, NaN, 0.0299091, "- N/A -   "
14.72, 396.97, 0.0246548, NaN, NaN, NaN, 0.0299091, "- N/A -   "
14.76, 398.3839, 0.0247186, NaN, NaN, NaN, 0.0323506, "- N/A -   "
14.8, 399.562, 0.024777, NaN, NaN, NaN, 0.03601294, "- N/A -   "
14.84, 401.0939, 0.02484082, NaN, NaN, NaN, 0.03601294, "- N/A -   "
14.88, 402.626, 0.024913, NaN, NaN, NaN, 0.0335714, "- N/A -   "
14.92, 404.393, 0.0249852, NaN, NaN, NaN, 0.0323506, "- N/A -   "
14.96, 405.925, 0.0250519, NaN, NaN, NaN, 0.0323506, "- N/A -   "
15, 407.2209, 0.0251129, NaN, NaN, NaN, 0.0347922, "- N/A -   "
15.04, 408.3991, 0.0251713, NaN, NaN, NaN, 0.0372337, "- N/A -   "
15.08, 409.813, 0.0252323, NaN, NaN, NaN, 0.0396753, "- N/A -   "
15.12, 411.3448, 0.025299, NaN, NaN, NaN, 0.0396753, "- N/A -   "
15.16, 412.877, 0.0253684, NaN, NaN, NaN, 0.0396753, "- N/A -   "
15.2, 414.29, 0.0254295, NaN, NaN, NaN, 0.04211683, "- N/A -   "
15.24, 415.94, 0.0255017, NaN, NaN, NaN, 0.0396753, "- N/A -   "
15.28, 417.7074, 0.0255739, NaN, NaN, NaN, 0.0372337, "- N/A -   "
15.32, 419.357, 0.0256433, NaN, NaN, NaN, 0.0347922, "- N/A -   "
15.36, 420.653, 0.0257072, NaN, NaN, NaN, 0.03601294, "- N/A -   "
15.4, 421.949, 0.0257683, NaN, NaN, NaN, 0.0396753, "- N/A -   "
15.44, 423.5987, 0.0258349, NaN, NaN, NaN, 0.0384545, "- N/A -   "
15.48, 425.3661, 0.02590987, NaN, NaN, NaN, 0.0347922, "- N/A -   "
15.52, 426.78, 0.0259765, NaN, NaN, NaN, 0.0347922, "- N/A -   "
15.56, 428.43, 0.0260459, NaN, NaN, NaN, 0.0335714, "- N/A -   "
15.6, 429.9613, 0.02611535, NaN, NaN, NaN, 0.0335714, "- N/A -   "
15.64, 431.493, 0.026182, NaN, NaN, NaN, 0.0335714, "- N/A -   "
15.68, 432.907, 0.0262459, NaN, NaN, NaN, 0.0335714, "- N/A -   "
15.72, 434.321, 0.0263125, NaN, NaN, NaN, 0.0347922, "- N/A -   "
15.76, 435.617, 0.0263708, NaN, NaN, NaN, 0.0384545, "- N/A -   "
15.8, 437.149, 0.0264319, NaN, NaN, NaN, 0.0396753, "- N/A -   "
15.84, 438.445, 0.0264958, NaN, NaN, NaN, 0.04089605, "- N/A -   "
15.88, 439.8587, 0.0265569, NaN, NaN, NaN, 0.0433376, "- N/A -   "
15.92, 441.508, 0.0266235, NaN, NaN, NaN, 0.0445584, "- N/A -   "
15.96, 443.1578, 0.0266929, NaN, NaN, NaN, 0.04211683, "- N/A -   "
16, 445.043, 0.0267707, NaN, NaN, NaN, 0.0372337, "- N/A -   "
16.04, 446.81, 0.0268484, NaN, NaN, NaN, 0.0323506, "- N/A -   "
16.08, 448.342, 0.0269206, NaN, NaN, NaN, 0.03112983, "- N/A -   "
16.12, 449.756, 0.0269817, NaN, NaN, NaN, 0.0323506, "- N/A -   "
16.16, 451.0522, 0.0270456, NaN, NaN, NaN, 0.0335714, "- N/A -   "
16.2, 452.584, 0.0271122, NaN, NaN, NaN, 0.0347922, "- N/A -   "
16.24, 454.469, 0.0271872, NaN, NaN, NaN, 0.03112983, "- N/A -   "
16.28, 456.119, 0.0272594, NaN, NaN, NaN, 0.0274675, "- N/A -   "
16.32, 457.5326, 0.0273232, NaN, NaN, NaN, 0.0286883, "- N/A -   "
16.36, 459.064, 0.0273871, NaN, NaN, NaN, 0.0299091, "- N/A -   "
16.4, 460.36, 0.0274482, NaN, NaN, NaN, 0.0323506, "- N/A -   "
16.44, 461.5387, 0.0275037, NaN, NaN, NaN, 0.0384545, "- N/A -   "
16.48, 462.9526, 0.027562, NaN, NaN, NaN, 0.04089605, "- N/A -   "
16.52, 464.367, 0.0276259, NaN, NaN, NaN, 0.04211683, "- N/A -   "
16.56, 465.78, 0.027687, NaN, NaN, NaN, 0.0445584, "- N/A -   "
16.6, 467.3122, 0.0277536, NaN, NaN, NaN, 0.0445584, "- N/A -   "
16.64, 469.1974, 0.0278314, NaN, NaN, NaN, 0.0396753, "- N/A -   "
16.68, 470.847, 0.0279008, NaN, NaN, NaN, 0.0396753, "- N/A -   "
16.72, 472.614, 0.0279758, NaN, NaN, NaN, 0.0347922, "- N/A -   "
16.76, 474.1461, 0.0280424, NaN, NaN, NaN, 0.03601294, "- N/A -   "
16.8, 475.678, 0.0281091, NaN, NaN, NaN, 0.0347922, "- N/A -   "
16.84, 477.445, 0.02818403, NaN, NaN, NaN, 0.0323506, "- N/A -   "
16.88, 479.2126, 0.02825345, NaN, NaN, NaN, 0.0299091, "- N/A -   "
16.92, 480.627, 0.02832287, NaN, NaN, NaN, 0.0286883, "- N/A -   "
16.96, 482.2761, 0.02838951, NaN, NaN, NaN, 0.0286883, "- N/A -   "
17, 483.572, 0.0284478, NaN, NaN, NaN, 0.0323506, "- N/A -   "
17.04, 484.868, 0.02850891, NaN, NaN, NaN, 0.03601294, "- N/A -   "
17.08, 486.2822, 0.0285672, NaN, NaN, NaN, 0.0396753, "- N/A -   "
17.12, 487.578, 0.0286255, NaN, NaN, NaN, 0.0433376, "- N/A -   "
17.16, 489.11, 0.0286922, NaN, NaN, NaN, 0.0433376, "- N/A -   "
17.2, 490.76, 0.0287588, NaN, NaN, NaN, 0.0433376, "- N/A -   "
17.24, 492.173, 0.02882546, NaN, NaN, NaN, 0.0445584, "- N/A -   "
17.28, 493.941, 0.0288949, NaN, NaN, NaN, 0.04211683, "- N/A -   "
17.32, 495.59, 0.0289699, NaN, NaN, NaN, 0.0396753, "- N/A -   "
17.36, 497.476, 0.0290448, NaN, NaN, NaN, 0.0347922, "- N/A -   "
17.4, 499.1252, 0.0291198, NaN, NaN, NaN, 0.0323506, "- N/A -   "
17.44, 500.8926, 0.0291892, NaN, NaN, NaN, 0.0299091, "- N/A -   "
17.48, 502.307, 0.0292559, NaN, NaN, NaN, 0.0299091, "- N/A -   "
17.52, 503.956, 0.0293225, NaN, NaN, NaN, 0.03112983, "- N/A -   "
17.56, 505.37, 0.0293864, NaN, NaN, NaN, 0.0323506, "- N/A -   "
17.6, 507.02, 0.0294475, NaN, NaN, NaN, 0.0335714, "- N/A -   "
17.64, 508.433, 0.0295085, NaN, NaN, NaN, 0.03601294, "- N/A -   "
17.68, 509.73, 0.0295724, NaN, NaN, NaN, 0.0384545, "- N/A -   "
17.72, 511.379, 0.0296418, NaN, NaN, NaN, 0.0372337, "- N/A -   "
17.76, 513.0287, 0.0297057, NaN, NaN, NaN, 0.0372337, "- N/A -   "
17.8, 514.328, 0.02976678, NaN, NaN, NaN, 0.0396753, "- N/A -   "
17.84, 515.7474, 0.02982509, NaN, NaN, NaN, 0.0433376, "- N/A -   "
17.88, 517.285, 0.02989451, NaN, NaN, NaN, 0.0433376, "- N/A -   "
17.92, 518.9409, 0.0299612, NaN, NaN, NaN, 0.0433376, "- N/A -   "
17.96, 520.597, 0.0300278, NaN, NaN, NaN, 0.04211683, "- N/A -   "
18, 522.3711, 0.0301028, NaN, NaN, NaN, 0.0396753, "- N/A -   "
18.04, 524.264, 0.0301805, NaN, NaN, NaN, 0.0335714, "- N/A -   "
18.08, 526.156, 0.0302555, NaN, NaN, NaN, 0.0299091, "- N/A -   "
18.12, 527.6937, 0.0303194, NaN, NaN, NaN, 0.03112983, "- N/A -   "
18.16, 528.9948, 0.03038044, NaN, NaN, NaN, 0.0335714, "- N/A -   "
18.2, 530.2959, 0.030436, NaN, NaN, NaN, 0.0384545, "- N/A -   "
18.24, 531.834, 0.0305026, NaN, NaN, NaN, 0.0384545, "- N/A -   "
18.28, 533.6077, 0.0305748, NaN, NaN, NaN, 0.03601294, "- N/A -   "
18.32, 535.382, 0.03064701, NaN, NaN, NaN, 0.0335714, "- N/A -   "
18.36, 537.0379, 0.0307164, NaN, NaN, NaN, 0.0323506, "- N/A -   "
18.4, 538.4573, 0.03077474, NaN, NaN, NaN, 0.03601294, "- N/A -   "
18.44, 539.758, 0.0308331, NaN, NaN, NaN, 0.0396753, "- N/A -   "
18.48, 541.178, 0.03089414, NaN, NaN, NaN, 0.0433376, "- N/A -   "
18.52, 542.715, 0.0309636, NaN, NaN, NaN, 0.04089605, "- N/A -   "
18.56, 544.49, 0.03103298, NaN, NaN, NaN, 0.0396753, "- N/A -   "
18.6, 546.1455, 0.0311024, NaN, NaN, NaN, 0.0384545, "- N/A -   "
18.64, 547.683, 0.031169, NaN, NaN, NaN, 0.0384545, "- N/A -   "
18.68, 549.3391, 0.0312385, NaN, NaN, NaN, 0.0384545, "- N/A -   "
18.72, 551.113, 0.0313079, NaN, NaN, NaN, 0.03601294, "- N/A -   "
18.76, 552.7692, 0.0313773, NaN, NaN, NaN, 0.0347922, "- N/A -   "
18.8, 554.1886, 0.03144394, NaN, NaN, NaN, 0.03601294, "- N/A -   "
18.84, 555.9628, 0.03151613, NaN, NaN, NaN, 0.0335714, "- N/A -   "
18.88, 557.5005, 0.0315828, NaN, NaN, NaN, 0.0323506, "- N/A -   "
18.92, 559.156, 0.0316522, NaN, NaN, NaN, 0.03112983, "- N/A -   "
18.96, 560.8123, 0.0317188, NaN, NaN, NaN, 0.03112983, "- N/A -   "
19, 562.468, 0.0317855, NaN, NaN, NaN, 0.0323506, "- N/A -   "
19.04, 564.0059, 0.0318466, NaN, NaN, NaN, 0.0335714, "- N/A -   "
19.08, 565.4253, 0.03191043, NaN, NaN, NaN, 0.0347922, "- N/A -   "
19.12, 567.081, 0.03197985, NaN, NaN, NaN, 0.0335714, "- N/A -   "
19.16, 568.5006, 0.03203816, NaN, NaN, NaN, 0.0372337, "- N/A -   "
19.2, 569.8017, 0.03209925, NaN, NaN, NaN, 0.0396753, "- N/A -   "
19.24, 571.576, 0.0321659, NaN, NaN, NaN, 0.0396753, "- N/A -   "
19.28, 572.9953, 0.03222698, NaN, NaN, NaN, 0.04211683, "- N/A -   "
19.32, 574.6512, 0.0322908, NaN, NaN, NaN, 0.0433376, "- N/A -   "
19.36, 576.071, 0.0323575, NaN, NaN, NaN, 0.0433376, "- N/A -   "
19.4, 577.7265, 0.03242691, NaN, NaN, NaN, 0.04211683, "- N/A -   "
19.44, 579.8555, 0.0325074, NaN, NaN, NaN, 0.03601294, "- N/A -   "
19.48, 581.5115, 0.0325796, NaN, NaN, NaN, 0.0335714, "- N/A -   "
19.52, 583.1674, 0.0326463, NaN, NaN, NaN, 0.0335714, "- N/A -   "
19.56, 584.8233, 0.0327129, NaN, NaN, NaN, 0.0347922, "- N/A -   "
19.6, 586.361, 0.032774, NaN, NaN, NaN, 0.03601294, "- N/A -   "
19.64, 588.135, 0.032849, NaN, NaN, NaN, 0.0335714, "- N/A -   "
19.68, 589.9094, 0.0329239, NaN, NaN, NaN, 0.0286883, "- N/A -   "
19.72, 591.565, 0.0329934, NaN, NaN, NaN, 0.0286883, "- N/A -   "
19.76, 593.103, 0.0330517, NaN, NaN, NaN, 0.03112983, "- N/A -   "
19.8, 594.4041, 0.0331128, NaN, NaN, NaN, 0.0347922, "- N/A -   "
19.84, 595.587, 0.0331655, NaN, NaN, NaN, 0.0396753, "- N/A -   "
19.88, 596.888, 0.03322106, NaN, NaN, NaN, 0.0445584, "- N/A -   "
19.92, 598.544, 0.0332877, NaN, NaN, NaN, 0.0445584, "- N/A -   "
19.96, 599.963, 0.03334879, NaN, NaN, NaN, 0.04699994, "- N/A -   "
20, 601.738, 0.03341821, NaN, NaN, NaN, 0.04577916, "- N/A -   "
20.04, 603.63, 0.033496, NaN, NaN, NaN, 0.04089605, "- N/A -   "
20.08, 605.4042, 0.03356815, NaN, NaN, NaN, 0.0396753, "- N/A -   "
20.12, 607.2967, 0.0336403, NaN, NaN, NaN, 0.03601294, "- N/A -   "
20.16, 609.0709, 0.0337125, NaN, NaN, NaN, 0.0335714, "- N/A -   "
20.2, 610.7268, 0.03378196, NaN, NaN, NaN, 0.0335714, "- N/A -   "
20.24, 612.5011, 0.0338569, NaN, NaN, NaN, 0.0286883, "- N/A -   "
20.28, 614.394, 0.0339291, NaN, NaN, NaN, 0.0274675, "- N/A -   "
20.32, 615.9312, 0.0339958, NaN, NaN, NaN, 0.0274675, "- N/A -   "
20.36, 617.4689, 0.03405686, NaN, NaN, NaN, 0.0286883, "- N/A -   "
20.4, 618.7699, 0.03411795, NaN, NaN, NaN, 0.03112983, "- N/A -   "
20.44, 620.3076, 0.03417904, NaN, NaN, NaN, 0.0335714, "- N/A -   "
20.48, 621.8453, 0.03423735, NaN, NaN, NaN, 0.0372337, "- N/A -   "
20.52, 623.0281, 0.03429566, NaN, NaN, NaN, 0.04211683, "- N/A -   "
20.56, 624.566, 0.034354, NaN, NaN, NaN, 0.0445584, "- N/A -   "
20.6, 626.3399, 0.0344234, NaN, NaN, NaN, 0.0433376, "- N/A -   "
20.64, 627.996, 0.03449, NaN, NaN, NaN, 0.0433376, "- N/A -   "
20.68, 629.6518, 0.0345567, NaN, NaN, NaN, 0.0433376, "- N/A -   "
20.72, 631.189, 0.03462332, NaN, NaN, NaN, 0.0433376, "- N/A -   "
20.76, 633.082, 0.03469274, NaN, NaN, NaN, 0.04211683, "- N/A -   "
20.8, 634.8562, 0.0347733, NaN, NaN, NaN, 0.0372337, "- N/A -   "
20.84, 637.222, 0.0348566, NaN, NaN, NaN, 0.0286883, "- N/A -   "
20.88, 638.7594, 0.034926, NaN, NaN, NaN, 0.0274675, "- N/A -   "
20.92, 640.2971, 0.03498985, NaN, NaN, NaN, 0.0286883, "- N/A -   "
20.96, 641.8347, 0.03504816, NaN, NaN, NaN, 0.0323506, "- N/A -   "
21, 643.3724, 0.035112, NaN, NaN, NaN, 0.0335714, "- N/A -   "
21.04, 645.028, 0.03517867, NaN, NaN, NaN, 0.0335714, "- N/A -   "
21.08, 646.4477, 0.0352425, NaN, NaN, NaN, 0.03601294, "- N/A -   "
21.12, 648.104, 0.0353036, NaN, NaN, NaN, 0.0372337, "- N/A -   "
21.16, 649.7595, 0.03537304, NaN, NaN, NaN, 0.0372337, "- N/A -   "
21.2, 651.2972, 0.0354369, NaN, NaN, NaN, 0.0372337, "- N/A -   "
21.24, 652.717, 0.0354924, NaN, NaN, NaN, 0.04211683, "- N/A -   "
21.28, 654.2542, 0.03555631, NaN, NaN, NaN, 0.0433376, "- N/A -   "
21.32, 655.91, 0.03562017, NaN, NaN, NaN, 0.0445584, "- N/A -   "
21.36, 657.566, 0.0356868, NaN, NaN, NaN, 0.0445584, "- N/A -   "
21.4, 659.577, 0.03576734, NaN, NaN, NaN, 0.0384545, "- N/A -   "
21.44, 661.588, 0.0358479, NaN, NaN, NaN, 0.0335714, "- N/A -   "
21.48, 663.2435, 0.03592006, NaN, NaN, NaN, 0.03112983, "- N/A -   "
21.52, 665.136, 0.0359923, NaN, NaN, NaN, 0.0286883, "- N/A -   "
21.56, 666.6737, 0.0360561, NaN, NaN, NaN, 0.0299091, "- N/A -   "
21.6, 668.093, 0.0361144, NaN, NaN, NaN, 0.0335714, "- N/A -   "
21.64, 669.512, 0.0361783, NaN, NaN, NaN, 0.03601294, "- N/A -   "
21.68, 671.405, 0.03624494, NaN, NaN, NaN, 0.0347922, "- N/A -   "
21.72, 673.179, 0.0363171, NaN, NaN, NaN, 0.0323506, "- N/A -   "
21.76, 674.8351, 0.036381, NaN, NaN, NaN, 0.0335714, "- N/A -   "
21.8, 676.3727, 0.03644487, NaN, NaN, NaN, 0.0347922, "- N/A -   "
21.84, 677.7921, 0.036506, NaN, NaN, NaN, 0.0372337, "- N/A -   "
21.88, 679.2115, 0.036567, NaN, NaN, NaN, 0.0396753, "- N/A -   "
21.92, 680.7491, 0.0366281, NaN, NaN, NaN, 0.04211683, "- N/A -   "
21.96, 682.5233, 0.0366948, NaN, NaN, NaN, 0.04211683, "- N/A -   "
22, 684.061, 0.0367642, NaN, NaN, NaN, 0.04211683, "- N/A -   "
22.04, 685.8352, 0.0368308, NaN, NaN, NaN, 0.04089605, "- N/A -   "
22.08, 687.7277, 0.0369003, NaN, NaN, NaN, 0.0396753, "- N/A -   "
22.12, 689.5019, 0.0369697, NaN, NaN, NaN, 0.0384545, "- N/A -   "
22.16, 691.04, 0.0370363, NaN, NaN, NaN, 0.0384545, "- N/A -   "
22.2, 692.5772, 0.0371057, NaN, NaN, NaN, 0.0384545, "- N/A -   "
22.24, 694.47, 0.0371752, NaN, NaN, NaN, 0.03601294, "- N/A -   "
22.28, 696.2439, 0.03724735, NaN, NaN, NaN, 0.0335714, "- N/A -   "
22.32, 698.0181, 0.03731399, NaN, NaN, NaN, 0.0335714, "- N/A -   "
22.36, 699.5557, 0.03737508, NaN, NaN, NaN, 0.03601294, "- N/A -   "
22.4, 700.975, 0.03744172, NaN, NaN, NaN, 0.03601294, "- N/A -   "
22.44, 702.6311, 0.0375084, NaN, NaN, NaN, 0.03601294, "- N/A -   "
22.48, 704.287, 0.03757778, NaN, NaN, NaN, 0.03601294, "- N/A -   "
22.52, 706.1795, 0.03765, NaN, NaN, NaN, 0.0323506, "- N/A -   "
22.56, 707.835, 0.0377111, NaN, NaN, NaN, 0.0347922, "- N/A -   "
22.6, 709.018, 0.0377722, NaN, NaN, NaN, 0.0384545, "- N/A -   "
22.64, 710.6742, 0.03783602, NaN, NaN, NaN, 0.0396753, "- N/A -   "
22.68, 712.3301, 0.03789711, NaN, NaN, NaN, 0.04089605, "- N/A -   "
22.72, 713.7495, 0.0379554, NaN, NaN, NaN, 0.0445584, "- N/A -   "
22.76, 715.4054, 0.03802484, NaN, NaN, NaN, 0.0433376, "- N/A -   "
22.8, 717.2979, 0.038097, NaN, NaN, NaN, 0.04211683, "- N/A -   "
22.84, 719.309, 0.0381748, NaN, NaN, NaN, 0.03601294, "- N/A -   "
22.88, 721.319, 0.0382525, NaN, NaN, NaN, 0.03112983, "- N/A -   "
22.92, 722.975, 0.0383192, NaN, NaN, NaN, 0.03112983, "- N/A -   "
22.96, 724.6313, 0.0383886, NaN, NaN, NaN, 0.0299091, "- N/A -   "
23, 726.051, 0.0384497, NaN, NaN, NaN, 0.0323506, "- N/A -   "
23.04, 727.7066, 0.03851355, NaN, NaN, NaN, 0.0335714, "- N/A -   "
23.08, 729.481, 0.0385857, NaN, NaN, NaN, 0.03112983, "- N/A -   "
23.12, 731.1367, 0.0386524, NaN, NaN, NaN, 0.03112983, "- N/A -   "
23.16, 732.6744, 0.03871625, NaN, NaN, NaN, 0.0323506, "- N/A -   "
23.2, 734.2121, 0.03877734, NaN, NaN, NaN, 0.0347922, "- N/A -   "
23.24, 735.7497, 0.03883843, NaN, NaN, NaN, 0.0372337, "- N/A -   "
23.28, 737.169, 0.0388995, NaN, NaN, NaN, 0.04089605, "- N/A -   "
23.32, 738.588, 0.03895505, NaN, NaN, NaN, 0.0445584, "- N/A -   "
23.36, 739.8895, 0.0390134, NaN, NaN, NaN, 0.0494415, "- N/A -   "
23.4, 741.6637, 0.0390828, NaN, NaN, NaN, 0.04699994, "- N/A -   "
23.44, 743.7928, 0.0391605, NaN, NaN, NaN, 0.04211683, "- N/A -   "
23.48, 745.8036, 0.03923828, NaN, NaN, NaN, 0.0372337, "- N/A -   "
23.52, 747.46, 0.0393077, NaN, NaN, NaN, 0.0372337, "- N/A -   "
23.56, 748.997, 0.0393716, NaN, NaN, NaN, 0.0372337, "- N/A -   "
23.6, 750.6531, 0.0394382, NaN, NaN, NaN, 0.0372337, "- N/A -   "
23.64, 752.5456, 0.0395132, NaN, NaN, NaN, 0.0347922, "- N/A -   "
23.68, 754.556, 0.03958815, NaN, NaN, NaN, 0.0299091, "- N/A -   "
23.72, 756.2123, 0.0396548, NaN, NaN, NaN, 0.0299091, "- N/A -   "
23.76, 757.75, 0.0397214, NaN, NaN, NaN, 0.0299091, "- N/A -   "
23.8, 759.2876, 0.0397853, NaN, NaN, NaN, 0.0323506, "- N/A -   "
23.84, 760.825, 0.03984639, NaN, NaN, NaN, 0.0335714, "- N/A -   "
23.88, 762.363, 0.0399075, NaN, NaN, NaN, 0.03601294, "- N/A -   "
23.92, 763.664, 0.03996579, NaN, NaN, NaN, 0.0396753, "- N/A -   "
23.96, 765.202, 0.0400269, NaN, NaN, NaN, 0.0433376, "- N/A -   "
24, 766.858, 0.04009352, NaN, NaN, NaN, 0.0433376, "- N/A -   "
24.04, 768.5135, 0.04016016, NaN, NaN, NaN, 0.0433376, "- N/A -   "
24.08, 770.1694, 0.040224, NaN, NaN, NaN, 0.0433376, "- N/A -   "
24.12, 771.8254, 0.0402934, NaN, NaN, NaN, 0.0433376, "- N/A -   "
24.16, 773.7179, 0.0403629, NaN, NaN, NaN, 0.04089605, "- N/A -   "
24.2, 775.492, 0.04043784, NaN, NaN, NaN, 0.0372337, "- N/A -   "
24.24, 777.7394, 0.0405184, NaN, NaN, NaN, 0.0323506, "- N/A -   "
24.28, 779.5136, 0.04059056, NaN, NaN, NaN, 0.0286883, "- N/A -   "
24.32, 781.17, 0.04066, NaN, NaN, NaN, 0.0286883, "- N/A -   "
24.36, 782.9437, 0.0407238, NaN, NaN, NaN, 0.0286883, "- N/A -   "
24.4, 784.2449, 0.0407877, NaN, NaN, NaN, 0.03112983, "- N/A -   "
24.44, 786.019, 0.04085157, NaN, NaN, NaN, 0.0323506, "- N/A -   "
24.48, 787.675, 0.04091544, NaN, NaN, NaN, 0.0323506, "- N/A -   "
24.52, 789.094, 0.0409793, NaN, NaN, NaN, 0.0347922, "- N/A -   "
24.56, 790.8685, 0.04104317, NaN, NaN, NaN, 0.0347922, "- N/A -   "
24.6, 792.1697, 0.0411043, NaN, NaN, NaN, 0.0372337, "- N/A -   "
24.64, 793.826, 0.04116535, NaN, NaN, NaN, 0.0396753, "- N/A -   "
24.68, 795.245, 0.0412237, NaN, NaN, NaN, 0.0433376, "- N/A -   "
24.72, 796.783, 0.0412875, NaN, NaN, NaN, 0.0445584, "- N/A -   "
24.76, 798.5568, 0.0413569, NaN, NaN, NaN, 0.0433376, "- N/A -   "
24.8, 800.5676, 0.0414319, NaN, NaN, NaN, 0.04089605, "- N/A -   "
24.84, 802.578, 0.04150966, NaN, NaN, NaN, 0.0347922, "- N/A -   "
24.88, 804.4709, 0.0415846, NaN, NaN, NaN, 0.03112983, "- N/A -   "
24.92, 806.1268, 0.0416485, NaN, NaN, NaN, 0.0323506, "- N/A -   "
24.96, 807.6645, 0.0417124, NaN, NaN, NaN, 0.0335714, "- N/A -   "
25, 809.0838, 0.0417707, NaN, NaN, NaN, 0.0372337, "- N/A -   "
25.04, 810.621, 0.04183732, NaN, NaN, NaN, 0.0372337, "- N/A -   "
25.08, 812.514, 0.04190674, NaN, NaN, NaN, 0.03601294, "- N/A -   "
25.12, 814.288, 0.0419817, NaN, NaN, NaN, 0.0335714, "- N/A -   "
25.16, 816.0624, 0.0420484, NaN, NaN, NaN, 0.0323506, "- N/A -   "
25.2, 817.7183, 0.0421122, NaN, NaN, NaN, 0.0335714, "- N/A -   "
25.24, 819.256, 0.0421761, NaN, NaN, NaN, 0.0347922, "- N/A -   "
25.28, 820.675, 0.04223717, NaN, NaN, NaN, 0.0372337, "- N/A -   "
25.32, 822.331, 0.04229826, NaN, NaN, NaN, 0.0396753, "- N/A -   "
25.36, 823.9872, 0.0423677, NaN, NaN, NaN, 0.0384545, "- N/A -   "
25.4, 825.7614, 0.04243432, NaN, NaN, NaN, 0.0384545, "- N/A -   "
25.44, 827.2991, 0.042501, NaN, NaN, NaN, 0.0384545, "- N/A -   "
25.48, 829.3098, 0.0425704, NaN, NaN, NaN, 0.0372337, "- N/A -   "
25.52, 830.9658, 0.0426398, NaN, NaN, NaN, 0.03601294, "- N/A -   "
25.56, 832.6217, 0.0427064, NaN, NaN, NaN, 0.03601294, "- N/A -   "
25.6, 834.5142, 0.0427814, NaN, NaN, NaN, 0.0335714, "- N/A -   "
25.64, 836.407, 0.0428536, NaN, NaN, NaN, 0.0299091, "- N/A -   "
25.68, 838.299, 0.04292303, NaN, NaN, NaN, 0.0286883, "- N/A -   "
25.72, 839.719, 0.0429841, NaN, NaN, NaN, 0.03112983, "- N/A -   "
25.76, 841.138, 0.04304243, NaN, NaN, NaN, 0.0347922, "- N/A -   "
25.8, 842.6756, 0.0431063, NaN, NaN, NaN, 0.03601294, "- N/A -   "
25.84, 844.568, 0.04317294, NaN, NaN, NaN, 0.03601294, "- N/A -   "
25.88, 846.224, 0.0432424, NaN, NaN, NaN, 0.0347922, "- N/A -   "
25.92, 847.9982, 0.0433118, NaN, NaN, NaN, 0.0335714, "- N/A -   "
25.96, 849.5359, 0.04337009, NaN, NaN, NaN, 0.0372337, "- N/A -   "
26, 850.9552, 0.0434312, NaN, NaN, NaN, 0.0396753, "- N/A -   "
26.04, 852.729, 0.0434978, NaN, NaN, NaN, 0.0396753, "- N/A -   "
26.08, 854.385, 0.04356446, NaN, NaN, NaN, 0.0396753, "- N/A -   "
26.12, 856.0413, 0.0436311, NaN, NaN, NaN, 0.04089605, "- N/A -   "
26.16, 857.816, 0.0436977, NaN, NaN, NaN, 0.04089605, "- N/A -   "
26.2, 859.4715, 0.0437644, NaN, NaN, NaN, 0.04089605, "- N/A -   "
26.24, 861.364, 0.0438394, NaN, NaN, NaN, 0.0372337, "- N/A -   "
26.28, 863.3747, 0.04391711, NaN, NaN, NaN, 0.0335714, "- N/A -   "
26.32, 865.0307, 0.04398097, NaN, NaN, NaN, 0.0347922, "- N/A -   "
26.36, 866.5683, 0.0440421, NaN, NaN, NaN, 0.03601294, "- N/A -   "
26.4, 868.3425, 0.04411148, NaN, NaN, NaN, 0.03601294, "- N/A -   "
26.44, 870.117, 0.0441809, NaN, NaN, NaN, 0.0347922, "- N/A -   "
26.48, 872.0092, 0.0442531, NaN, NaN, NaN, 0.03112983, "- N/A -   "
26.52, 873.783, 0.0443225, NaN, NaN, NaN, 0.0299091, "- N/A -   "
26.56, 875.3211, 0.0443864, NaN, NaN, NaN, 0.03112983, "- N/A -   "
26.6, 876.8587, 0.0444475, NaN, NaN, NaN, 0.0335714, "- N/A -   "
26.64, 878.3964, 0.0445086, NaN, NaN, NaN, 0.03601294, "- N/A -   "
26.68, 879.697, 0.0445641, NaN, NaN, NaN, 0.04089605, "- N/A -   "
26.72, 881.1169, 0.0446224, NaN, NaN, NaN, 0.0445584, "- N/A -   "
26.76, 882.655, 0.0446835, NaN, NaN, NaN, 0.04699994, "- N/A -   "
26.8, 884.4287, 0.04475013, NaN, NaN, NaN, 0.04699994, "- N/A -   "
26.84, 886.3212, 0.0448251, NaN, NaN, NaN, 0.0445584, "- N/A -   "
26.88, 888.332, 0.0449029, NaN, NaN, NaN, 0.0396753, "- N/A -   "
26.92, 890.3427, 0.04497505, NaN, NaN, NaN, 0.03601294, "- N/A -   "
26.96, 892.2352, 0.0450472, NaN, NaN, NaN, 0.0335714, "- N/A -   "
27, 893.8912, 0.0451139, NaN, NaN, NaN, 0.0335714, "- N/A -   "
27.04, 895.6654, 0.04518331, NaN, NaN, NaN, 0.0323506, "- N/A -   "
27.08, 897.558, 0.0452583, NaN, NaN, NaN, 0.0286883, "- N/A -   "
27.12, 899.3321, 0.0453277, NaN, NaN, NaN, 0.0286883, "- N/A -   "
27.16, 901.1063, 0.04539434, NaN, NaN, NaN, 0.0274675, "- N/A -   "
27.2, 902.5257, 0.0454554, NaN, NaN, NaN, 0.03112983, "- N/A -   "
27.24, 903.945, 0.0455165, NaN, NaN, NaN, 0.0323506, "- N/A -   "
27.28, 905.364, 0.0455693, NaN, NaN, NaN, 0.0384545, "- N/A -   "
27.32, 906.9021, 0.0456331, NaN, NaN, NaN, 0.04089605, "- N/A -   "
27.36, 908.2031, 0.0456887, NaN, NaN, NaN, 0.0445584, "- N/A -   "
27.4, 910.096, 0.0457553, NaN, NaN, NaN, 0.04577916, "- N/A -   "
27.44, 911.8699, 0.04582196, NaN, NaN, NaN, 0.0445584, "- N/A -   "
27.48, 913.526, 0.0458886, NaN, NaN, NaN, 0.0445584, "- N/A -   "
27.52, 915.4183, 0.0459608, NaN, NaN, NaN, 0.04211683, "- N/A -   "
27.56, 917.3108, 0.0460302, NaN, NaN, NaN, 0.04089605, "- N/A -   "
27.6, 919.085, 0.046108, NaN, NaN, NaN, 0.0372337, "- N/A -   "
27.64, 921.332, 0.0461857, NaN, NaN, NaN, 0.03112983, "- N/A -   "
27.68, 922.9883, 0.0462524, NaN, NaN, NaN, 0.03112983, "- N/A -   "
27.72, 924.408, 0.0463134, NaN, NaN, NaN, 0.0335714, "- N/A -   "
27.76, 926.064, 0.0463801, NaN, NaN, NaN, 0.0347922, "- N/A -   "
27.8, 927.8378, 0.04644673, NaN, NaN, NaN, 0.0335714, "- N/A -   "
27.84, 929.612, 0.04651337, NaN, NaN, NaN, 0.0335714, "- N/A -   "
27.88, 931.15, 0.04657446, NaN, NaN, NaN, 0.03601294, "- N/A -   "
27.92, 932.8056, 0.0466383, NaN, NaN, NaN, 0.0372337, "- N/A -   "
27.96, 934.5798, 0.0467077, NaN, NaN, NaN, 0.03601294, "- N/A -   "
28, 936.2357, 0.04677161, NaN, NaN, NaN, 0.0372337, "- N/A -   "
28.04, 937.7734, 0.0468327, NaN, NaN, NaN, 0.0396753, "- N/A -   "
28.08, 939.311, 0.0468938, NaN, NaN, NaN, 0.04211683, "- N/A -   "
28.12, 940.7304, 0.0469549, NaN, NaN, NaN, 0.0445584, "- N/A -   "
28.16, 942.6229, 0.04702429, NaN, NaN, NaN, 0.0433376, "- N/A -   "
28.2, 944.5154, 0.0470965, NaN, NaN, NaN, 0.04089605, "- N/A -   "
28.24, 946.6445, 0.04717979, NaN, NaN, NaN, 0.0347922, "- N/A -   "
28.28, 948.5369, 0.047252, NaN, NaN, NaN, 0.0323506, "- N/A -   "
28.32, 950.3111, 0.0473214, NaN, NaN, NaN, 0.0299091, "- N/A -   "
28.36, 952.0853, 0.04738805, NaN, NaN, NaN, 0.0299091, "- N/A -   "
28.4, 953.623, 0.0474491, NaN, NaN, NaN, 0.0323506, "- N/A -   "
28.44, 955.042, 0.0475102, NaN, NaN, NaN, 0.0347922, "- N/A -   "
28.48, 956.9349, 0.0475796, NaN, NaN, NaN, 0.0347922, "- N/A -   "
28.52, 958.8274, 0.0476491, NaN, NaN, NaN, 0.0323506, "- N/A -   "
28.56, 960.602, 0.04772126, NaN, NaN, NaN, 0.03112983, "- N/A -   "
28.6, 962.1392, 0.0477823, NaN, NaN, NaN, 0.0335714, "- N/A -   "
28.64, 963.677, 0.04784066, NaN, NaN, NaN, 0.03601294, "- N/A -   "
28.68, 965.215, 0.0479017, NaN, NaN, NaN, 0.0384545, "- N/A -   "
28.72, 966.5156, 0.0479601, NaN, NaN, NaN, 0.04211683, "- N/A -   "
28.76, 968.0533, 0.0480211, NaN, NaN, NaN, 0.0445584, "- N/A -   "
28.8, 969.9458, 0.0480906, NaN, NaN, NaN, 0.0433376, "- N/A -   "
28.84, 971.72, 0.0481628, NaN, NaN, NaN, 0.04089605, "- N/A -   "
28.88, 973.6124, 0.04823218, NaN, NaN, NaN, 0.0396753, "- N/A -   "
28.92, 975.387, 0.0483016, NaN, NaN, NaN, 0.0384545, "- N/A -   "
28.96, 977.2792, 0.0483738, NaN, NaN, NaN, 0.0372337, "- N/A -   "
29, 978.935, 0.0484404, NaN, NaN, NaN, 0.03601294, "- N/A -   "
29.04, 980.7093, 0.04850985, NaN, NaN, NaN, 0.0347922, "- N/A -   "
29.08, 982.3653, 0.0485765, NaN, NaN, NaN, 0.0347922, "- N/A -   "
29.12, 984.2578, 0.0486459, NaN, NaN, NaN, 0.0335714, "- N/A -   "
29.16, 985.9137, 0.04871256, NaN, NaN, NaN, 0.0335714, "- N/A -   "
29.192, 987.2148, 0.0487653, NaN, NaN, NaN, 0.0347922, "- N/A -   "