File: 2_Tensile_Data/Hamel_ForceTest_Bolt4_Test6.csv
Time, Load (lb), Position (in), AxialStrain (in), TransverseStrain (in), Auxiliary (), Control Out (V), Stress (psi)
0.0, 1.17947, 0.0, NaN, NaN, NaN, 0.09705182, "- N/A -   "
0.01, 1.76921, 2.49908e-05, NaN, NaN, NaN, 0.105597, "- N/A -   "
0.02, 2.35895, 5.27583e-05, NaN, NaN, NaN, 0.114143, "- N/A -   "
0.03, 3.18458, 8.607931E-5, NaN, NaN, NaN, 0.11048, "- N/A -   "
0.04, 3.89227, 0.0001194, NaN, NaN, NaN, 0.104376, "- N/A -   "
0.05, 4.482, 0.000147168, NaN, NaN, NaN, 0.0982726, "- N/A -   "
0.06, 4.953794, 0.000174935, NaN, NaN, NaN, 0.09338949, "- N/A -   "
0.07, 5.66148, 0.000202703, NaN, NaN, NaN, 0.08850638, "- N/A -   "
0.08, 6.13327, 0.000227694, NaN, NaN, NaN, 0.084844, "- N/A -   "
0.09, 6.60506, 0.000249908, NaN, NaN, NaN, 0.08240249, "- N/A -   "
0.1, 7.07685, 0.000274898, NaN, NaN, NaN, 0.07874016, "- N/A -   "
0.11, 7.548638, 2.998892E-4, NaN, NaN, NaN, 0.0762986, "- N/A -   "
0.12, 8.020428, 3.221032E-4, NaN, NaN, NaN, 0.07263627, "- N/A -   "
0.13, 8.492218, 0.000347094, NaN, NaN, NaN, 0.0689739, "- N/A -   "
0.14, 8.964007, 0.000372085, NaN, NaN, NaN, 0.06653238, "- N/A -   "
0.15, 9.435798, 0.000397076, NaN, NaN, NaN, 0.06287005, "- N/A -   "
0.16, 10.0255, 0.000422066, NaN, NaN, NaN, 0.0592077, "- N/A -   "
0.17, 10.3794, 4.442803E-4, NaN, NaN, NaN, 0.0555454, "- N/A -   "
0.18, 10.8512, 4.664943E-4, NaN, NaN, NaN, 0.0531038, "- N/A -   "
0.19, 11.323, 4.887083E-4, NaN, NaN, NaN, 0.05066227, "- N/A -   "
0.2, 11.6768, 0.000510922, NaN, NaN, NaN, 0.0482207, "- N/A -   "
0.21, 12.0306, 0.00053036, NaN, NaN, NaN, 0.04699994, "- N/A -   "
0.22, 12.2665, 0.000549797, NaN, NaN, NaN, 0.04577916, "- N/A -   "
0.23, 12.7383, 0.000569234, NaN, NaN, NaN, 0.04577916, "- N/A -   "
0.24, 12.9742, 5.858946E-4, NaN, NaN, NaN, 0.0445584, "- N/A -   "
0.25, 13.3281, 6.053319E-4, NaN, NaN, NaN, 0.0433376, "- N/A -   "
0.26, 13.7999, 0.000624769, NaN, NaN, NaN, 0.0433376, "- N/A -   "
0.27, 14.0357, 6.442064E-4, NaN, NaN, NaN, 0.04211683, "- N/A -   "
0.28, 14.5075, 6.608669E-4, NaN, NaN, NaN, 0.04089605, "- N/A -   "
0.29, 14.7434, 0.000677527, NaN, NaN, NaN, 0.04089605, "- N/A -   "
0.3, 15.0973, 0.000694188, NaN, NaN, NaN, 0.04089605, "- N/A -   "
0.31, 15.4511, 7.136252E-4, NaN, NaN, NaN, 0.0396753, "- N/A -   "
0.32, 15.805, 0.000733062, NaN, NaN, NaN, 0.0396753, "- N/A -   "
0.33, 16.1588, 7.49723E-4, NaN, NaN, NaN, 0.0384545, "- N/A -   "
0.34, 16.3947, 7.691603E-4, NaN, NaN, NaN, 0.0384545, "- N/A -   "
0.35, 16.74854, 7.885975E-4, NaN, NaN, NaN, 0.0372337, "- N/A -   "
0.36, 17.1024, 8.080348E-4, NaN, NaN, NaN, 0.03601294, "- N/A -   "
0.37, 17.5742, 8.27472E-4, NaN, NaN, NaN, 0.0335714, "- N/A -   "
0.38, 17.8101, 8.469093E-4, NaN, NaN, NaN, 0.0335714, "- N/A -   "
0.39, 18.2819, 8.663466E-4, NaN, NaN, NaN, 0.03112983, "- N/A -   "
0.4, 18.5178, 8.857838E-4, NaN, NaN, NaN, 0.0299091, "- N/A -   "
0.41, 18.8716, 0.000902444, NaN, NaN, NaN, 0.0299091, "- N/A -   "
0.42, 19.1075, 9.218816E-4, NaN, NaN, NaN, 0.0299091, "- N/A -   "
0.43, 19.4613, 9.385421E-4, NaN, NaN, NaN, 0.0286883, "- N/A -   "
0.44, 19.6972, 9.552026E-4, NaN, NaN, NaN, 0.0299091, "- N/A -   "
0.45, 20.05107, 0.000971863, NaN, NaN, NaN, 0.0299091, "- N/A -   "
0.46, 20.287, 9.857469E-4, NaN, NaN, NaN, 0.0299091, "- N/A -   "
0.47, 20.6408, 9.996307E-4, NaN, NaN, NaN, 0.03112983, "- N/A -   "
0.51, 21.3485, 0.00105517, NaN, NaN, NaN, 0.03601294, "- N/A -   "
0.55, 22.29207, 0.0011107, NaN, NaN, NaN, 0.04089605, "- N/A -   "
0.59, 23.3536, 0.00116901, NaN, NaN, NaN, 0.0445584, "- N/A -   "
0.63, 24.5331, 0.00123565, NaN, NaN, NaN, 0.04577916, "- N/A -   "
0.67, 25.5946, 0.00129952, NaN, NaN, NaN, 0.04577916, "- N/A -   "
0.71, 26.7741, 0.00136894, NaN, NaN, NaN, 0.0445584, "- N/A -   "
0.75, 27.95355, 0.001443911, NaN, NaN, NaN, 0.04089605, "- N/A -   "
0.79, 29.133, 0.00151333, NaN, NaN, NaN, 0.04089605, "- N/A -   "
0.83, 30.4304, 0.00158553, NaN, NaN, NaN, 0.0372337, "- N/A -   "
0.87, 31.374, 0.0016605, NaN, NaN, NaN, 0.0347922, "- N/A -   "
0.91, 32.67145, 0.00173269, NaN, NaN, NaN, 0.0323506, "- N/A -   "
0.95, 33.8509, 0.00180767, NaN, NaN, NaN, 0.0274675, "- N/A -   "
0.99, 35.0304, 0.00187708, NaN, NaN, NaN, 0.0262467, "- N/A -   "
1.03, 35.85603, 0.00194095, NaN, NaN, NaN, 0.0274675, "- N/A -   "
1.07, 36.79961, 0.00200481, NaN, NaN, NaN, 0.0286883, "- N/A -   "
1.11, 37.6252, 0.00206313, NaN, NaN, NaN, 0.0323506, "- N/A -   "
1.15, 38.5688, 0.00212144, NaN, NaN, NaN, 0.03601294, "- N/A -   "
1.19, 39.5124, 0.002182527, NaN, NaN, NaN, 0.0396753, "- N/A -   "
1.23, 40.57393, 0.00224084, NaN, NaN, NaN, 0.04211683, "- N/A -   "
1.27, 41.39956, 0.00230193, NaN, NaN, NaN, 0.04577916, "- N/A -   "
1.31, 42.4611, 0.00236857, NaN, NaN, NaN, 0.0445584, "- N/A -   "
1.35, 43.6406, 0.00243521, NaN, NaN, NaN, 0.0445584, "- N/A -   "
1.39, 44.70209, 0.00250185, NaN, NaN, NaN, 0.04577916, "- N/A -   "
1.43, 45.8816, 0.00257127, NaN, NaN, NaN, 0.0433376, "- N/A -   "
1.47, 47.061, 0.00264347, NaN, NaN, NaN, 0.04089605, "- N/A -   "
1.51, 48.3585, 0.00272399, NaN, NaN, NaN, 0.0347922, "- N/A -   "
1.55, 49.5379, 0.002798966, NaN, NaN, NaN, 0.03112983, "- N/A -   "
1.59, 50.5995, 0.00286561, NaN, NaN, NaN, 0.03112983, "- N/A -   "
1.63, 51.66099, 0.00293503, NaN, NaN, NaN, 0.0299091, "- N/A -   "
1.67, 52.72252, 0.002998892, NaN, NaN, NaN, 0.03112983, "- N/A -   "
1.71, 53.6661, 0.00306276, NaN, NaN, NaN, 0.0335714, "- N/A -   "
1.75, 54.8456, 0.00312662, NaN, NaN, NaN, 0.0335714, "- N/A -   "
1.79, 55.7892, 0.00319326, NaN, NaN, NaN, 0.0347922, "- N/A -   "
1.83, 56.9686, 0.003259907, NaN, NaN, NaN, 0.0335714, "- N/A -   "
1.87, 57.79426, 0.003321, NaN, NaN, NaN, 0.03601294, "- N/A -   "
1.91, 58.7378, 0.003382084, NaN, NaN, NaN, 0.0384545, "- N/A -   "
1.95, 59.68142, 0.0034404, NaN, NaN, NaN, 0.04211683, "- N/A -   "
1.99, 60.7429, 0.00350426, NaN, NaN, NaN, 0.0445584, "- N/A -   "
2.03, 61.6865, 0.00356535, NaN, NaN, NaN, 0.04577916, "- N/A -   "
2.07, 62.98395, 0.0036431, NaN, NaN, NaN, 0.04089605, "- N/A -   "
2.11, 64.28137, 0.00372362, NaN, NaN, NaN, 0.0347922, "- N/A -   "
2.15, 65.3429, 0.00379304, NaN, NaN, NaN, 0.0347922, "- N/A -   "
2.19, 66.52237, 0.00386524, NaN, NaN, NaN, 0.03112983, "- N/A -   "
2.23, 67.5839, 0.00393466, NaN, NaN, NaN, 0.0299091, "- N/A -   "
2.27, 68.40953, 0.003995746, NaN, NaN, NaN, 0.0335714, "- N/A -   "
2.31, 69.47106, 0.00405683, NaN, NaN, NaN, 0.0347922, "- N/A -   "
2.35, 70.29669, 0.004123477, NaN, NaN, NaN, 0.0347922, "- N/A -   "
2.39, 71.4762, 0.004195672, NaN, NaN, NaN, 0.0323506, "- N/A -   "
2.43, 72.65564, 0.004265091, NaN, NaN, NaN, 0.0323506, "- N/A -   "
2.47, 73.59922, 0.004328956, NaN, NaN, NaN, 0.0323506, "- N/A -   "
2.51, 74.3069, 0.00439004, NaN, NaN, NaN, 0.0347922, "- N/A -   "
2.55, 75.36844, 0.004451133, NaN, NaN, NaN, 0.0372337, "- N/A -   "
2.59, 76.19407, 0.004512222, NaN, NaN, NaN, 0.0396753, "- N/A -   "
2.63, 77.13765, 0.004576087, NaN, NaN, NaN, 0.04211683, "- N/A -   "
2.67, 78.31712, 0.00464828, NaN, NaN, NaN, 0.0396753, "- N/A -   "
2.71, 79.37865, 0.004714925, NaN, NaN, NaN, 0.0384545, "- N/A -   "
2.75, 80.44018, 0.004781567, NaN, NaN, NaN, 0.0384545, "- N/A -   "
2.79, 81.5017, 0.004850986, NaN, NaN, NaN, 0.0384545, "- N/A -   "
2.83, 82.44528, 0.00491763, NaN, NaN, NaN, 0.0372337, "- N/A -   "
2.87, 83.50681, 0.00498982, NaN, NaN, NaN, 0.03601294, "- N/A -   "
2.91, 84.56834, 0.00505369, NaN, NaN, NaN, 0.03601294, "- N/A -   "
2.95, 85.51192, 0.005117554, NaN, NaN, NaN, 0.0372337, "- N/A -   "
2.99, 86.57345, 0.005186972, NaN, NaN, NaN, 0.03601294, "- N/A -   "
3.03, 87.63497, 0.00525917, NaN, NaN, NaN, 0.0335714, "- N/A -   "
3.07, 88.6965, 0.00532859, NaN, NaN, NaN, 0.0335714, "- N/A -   "
3.11, 89.758, 0.005395229, NaN, NaN, NaN, 0.0323506, "- N/A -   "
3.15, 90.81956, 0.005461871, NaN, NaN, NaN, 0.0323506, "- N/A -   "
3.19, 91.76313, 0.00553129, NaN, NaN, NaN, 0.03112983, "- N/A -   "
3.23, 92.82466, 0.00560071, NaN, NaN, NaN, 0.03112983, "- N/A -   "
3.27, 93.76824, 0.005656244, NaN, NaN, NaN, 0.0347922, "- N/A -   "
3.31, 94.59387, 0.00571456, NaN, NaN, NaN, 0.0384545, "- N/A -   "
3.35, 95.5374, 0.00577842, NaN, NaN, NaN, 0.0396753, "- N/A -   "
3.39, 96.599, 0.00584229, NaN, NaN, NaN, 0.04211683, "- N/A -   "
3.43, 97.6605, 0.00590337, NaN, NaN, NaN, 0.0433376, "- N/A -   "
3.47, 98.72203, 0.00597557, NaN, NaN, NaN, 0.04211683, "- N/A -   "
3.51, 99.7836, 0.006042212, NaN, NaN, NaN, 0.04089605, "- N/A -   "
3.55, 101.081, 0.00611718, NaN, NaN, NaN, 0.0384545, "- N/A -   "
3.59, 102.3784, 0.006192157, NaN, NaN, NaN, 0.0347922, "- N/A -   "
3.63, 103.322, 0.006261576, NaN, NaN, NaN, 0.0335714, "- N/A -   "
3.67, 104.384, 0.00632822, NaN, NaN, NaN, 0.0335714, "- N/A -   "
3.71, 105.445, 0.00639486, NaN, NaN, NaN, 0.0335714, "- N/A -   "
3.75, 106.389, 0.006458725, NaN, NaN, NaN, 0.0347922, "- N/A -   "
3.79, 107.568, 0.0065337, NaN, NaN, NaN, 0.0323506, "- N/A -   "
3.83, 108.748, 0.006603116, NaN, NaN, NaN, 0.0299091, "- N/A -   "
3.87, 109.691, 0.006664205, NaN, NaN, NaN, 0.0323506, "- N/A -   "
3.91, 110.635, 0.00672252, NaN, NaN, NaN, 0.03601294, "- N/A -   "
3.95, 111.46, 0.006783605, NaN, NaN, NaN, 0.0384545, "- N/A -   "
3.99, 112.404, 0.006841917, NaN, NaN, NaN, 0.04211683, "- N/A -   "
4.03, 113.465, 0.00690301, NaN, NaN, NaN, 0.0445584, "- N/A -   "
4.07, 114.409, 0.006964094, NaN, NaN, NaN, 0.04699994, "- N/A -   "
4.11, 115.589, 0.00703351, NaN, NaN, NaN, 0.04577916, "- N/A -   "
4.15, 116.768, 0.00710849, NaN, NaN, NaN, 0.0433376, "- N/A -   "
4.19, 118.065, 0.00718346, NaN, NaN, NaN, 0.0396753, "- N/A -   "
4.23, 119.245, 0.00725565, NaN, NaN, NaN, 0.03601294, "- N/A -   "
4.27, 120.306, 0.00732507, NaN, NaN, NaN, 0.0347922, "- N/A -   "
4.31, 121.368, 0.00739449, NaN, NaN, NaN, 0.0347922, "- N/A -   "
4.35, 122.547, 0.00746113, NaN, NaN, NaN, 0.0335714, "- N/A -   "
4.39, 123.845, 0.007536105, NaN, NaN, NaN, 0.0299091, "- N/A -   "
4.43, 124.788, 0.00760275, NaN, NaN, NaN, 0.0299091, "- N/A -   "
4.47, 125.85, 0.007669389, NaN, NaN, NaN, 0.0299091, "- N/A -   "
4.51, 127.029, 0.007736031, NaN, NaN, NaN, 0.03112983, "- N/A -   "
4.55, 128.091, 0.00779712, NaN, NaN, NaN, 0.0323506, "- N/A -   "
4.59, 128.917, 0.007855431, NaN, NaN, NaN, 0.03601294, "- N/A -   "
4.63, 129.742, 0.007910966, NaN, NaN, NaN, 0.04089605, "- N/A -   "
4.67, 130.804, 0.007974831, NaN, NaN, NaN, 0.04211683, "- N/A -   "
4.71, 131.983, 0.008041474, NaN, NaN, NaN, 0.04211683, "- N/A -   "
4.75, 132.9268, 0.008108116, NaN, NaN, NaN, 0.0433376, "- N/A -   "
4.79, 134.106, 0.008169204, NaN, NaN, NaN, 0.0445584, "- N/A -   "
4.83, 135.286, 0.008238623, NaN, NaN, NaN, 0.0433376, "- N/A -   "
4.87, 136.465, 0.008313595, NaN, NaN, NaN, 0.0396753, "- N/A -   "
4.91, 137.8806, 0.008391344, NaN, NaN, NaN, 0.0347922, "- N/A -   "
4.95, 139.06, 0.008466316, NaN, NaN, NaN, 0.03112983, "- N/A -   "
4.99, 140.24, 0.008535735, NaN, NaN, NaN, 0.0299091, "- N/A -   "
5.03, 141.301, 0.008602377, NaN, NaN, NaN, 0.0299091, "- N/A -   "
5.07, 142.3626, 0.008671796, NaN, NaN, NaN, 0.0299091, "- N/A -   "
5.11, 143.424, 0.008732884, NaN, NaN, NaN, 0.03112983, "- N/A -   "
5.15, 144.368, 0.008793973, NaN, NaN, NaN, 0.0335714, "- N/A -   "
5.19, 145.547, 0.008857839, NaN, NaN, NaN, 0.0347922, "- N/A -   "
5.23, 146.6087, 0.00892448, NaN, NaN, NaN, 0.03601294, "- N/A -   "
5.27, 147.67, 0.008991122, NaN, NaN, NaN, 0.03601294, "- N/A -   "
5.31, 148.732, 0.009049434, NaN, NaN, NaN, 0.0384545, "- N/A -   "
5.35, 149.675, 0.009110522, NaN, NaN, NaN, 0.04089605, "- N/A -   "
5.39, 150.855, 0.009171612, NaN, NaN, NaN, 0.0433376, "- N/A -   "
5.43, 151.798, 0.009238253, NaN, NaN, NaN, 0.0445584, "- N/A -   "
5.47, 152.978, 0.009299342, NaN, NaN, NaN, 0.04577916, "- N/A -   "
5.51, 154.393, 0.009379867, NaN, NaN, NaN, 0.04089605, "- N/A -   "
5.55, 155.809, 0.009457617, NaN, NaN, NaN, 0.0347922, "- N/A -   "
5.59, 156.988, 0.009529813, NaN, NaN, NaN, 0.0323506, "- N/A -   "
5.63, 158.168, 0.009599232, NaN, NaN, NaN, 0.03112983, "- N/A -   "
5.67, 159.347, 0.009663097, NaN, NaN, NaN, 0.0323506, "- N/A -   "
5.71, 160.2906, 0.009724186, NaN, NaN, NaN, 0.03601294, "- N/A -   "
5.75, 161.352, 0.009785274, NaN, NaN, NaN, 0.0372337, "- N/A -   "
5.79, 162.532, 0.009851916, NaN, NaN, NaN, 0.0372337, "- N/A -   "
5.83, 163.829, 0.009929664, NaN, NaN, NaN, 0.0335714, "- N/A -   "
5.87, 165.126, 0.009996306, NaN, NaN, NaN, 0.0323506, "- N/A -   "
5.91, 166.306, 0.0100629, NaN, NaN, NaN, 0.0323506, "- N/A -   "
5.95, 167.25, 0.010124, NaN, NaN, NaN, 0.0347922, "- N/A -   "
5.99, 168.311, 0.0101823, NaN, NaN, NaN, 0.0384545, "- N/A -   "
6.03, 169.373, 0.0102462, NaN, NaN, NaN, 0.0396753, "- N/A -   "
6.07, 170.552, 0.0103129, NaN, NaN, NaN, 0.0396753, "- N/A -   "
6.11, 171.849, 0.0103795, NaN, NaN, NaN, 0.0396753, "- N/A -   "
6.15, 172.911, 0.0104434, NaN, NaN, NaN, 0.04089605, "- N/A -   "
6.19, 174.208, 0.0105156, NaN, NaN, NaN, 0.0384545, "- N/A -   "
6.23, 175.624, 0.0105905, NaN, NaN, NaN, 0.03601294, "- N/A -   "
6.27, 176.6853, 0.0106544, NaN, NaN, NaN, 0.03601294, "- N/A -   "
6.31, 177.865, 0.010721, NaN, NaN, NaN, 0.0372337, "- N/A -   "
6.35, 179.044, 0.0107849, NaN, NaN, NaN, 0.0372337, "- N/A -   "
6.39, 180.342, 0.0108571, NaN, NaN, NaN, 0.03601294, "- N/A -   "
6.43, 181.639, 0.0109321, NaN, NaN, NaN, 0.0323506, "- N/A -   "
6.47, 182.937, 0.0109987, NaN, NaN, NaN, 0.03112983, "- N/A -   "
6.51, 184.116, 0.0110654, NaN, NaN, NaN, 0.0323506, "- N/A -   "
6.55, 185.178, 0.0111292, NaN, NaN, NaN, 0.0323506, "- N/A -   "
6.59, 186.475, 0.0111959, NaN, NaN, NaN, 0.0335714, "- N/A -   "
6.63, 187.654, 0.011257, NaN, NaN, NaN, 0.0347922, "- N/A -   "
6.67, 188.716, 0.0113208, NaN, NaN, NaN, 0.0372337, "- N/A -   "
6.71, 189.66, 0.0113791, NaN, NaN, NaN, 0.0396753, "- N/A -   "
6.75, 190.957, 0.0114458, NaN, NaN, NaN, 0.04089605, "- N/A -   "
6.79, 192.136, 0.0115096, NaN, NaN, NaN, 0.04089605, "- N/A -   "
6.83, 193.198, 0.0115707, NaN, NaN, NaN, 0.0433376, "- N/A -   "
6.87, 194.613, 0.0116374, NaN, NaN, NaN, 0.0433376, "- N/A -   "
6.91, 196.0287, 0.0117096, NaN, NaN, NaN, 0.04089605, "- N/A -   "
6.95, 197.444, 0.0117845, NaN, NaN, NaN, 0.0384545, "- N/A -   "
6.99, 198.859, 0.0118623, NaN, NaN, NaN, 0.0323506, "- N/A -   "
7.03, 200.275, 0.0119289, NaN, NaN, NaN, 0.0323506, "- N/A -   "
7.07, 201.454, 0.0119956, NaN, NaN, NaN, 0.0323506, "- N/A -   "
7.11, 202.516, 0.0120594, NaN, NaN, NaN, 0.0335714, "- N/A -   "
7.15, 203.813, 0.0121261, NaN, NaN, NaN, 0.0347922, "- N/A -   "
7.19, 205.2286, 0.0121983, NaN, NaN, NaN, 0.0323506, "- N/A -   "
7.23, 206.644, 0.0122705, NaN, NaN, NaN, 0.0286883, "- N/A -   "
7.27, 207.941, 0.0123371, NaN, NaN, NaN, 0.0299091, "- N/A -   "
7.31, 209.003, 0.0123982, NaN, NaN, NaN, 0.03112983, "- N/A -   "
7.35, 209.946, 0.0124537, NaN, NaN, NaN, 0.03601294, "- N/A -   "
7.39, 211.126, 0.0125093, NaN, NaN, NaN, 0.04089605, "- N/A -   "
7.43, 212.305, 0.0125704, NaN, NaN, NaN, 0.0433376, "- N/A -   "
7.47, 213.485, 0.0126342, NaN, NaN, NaN, 0.04577916, "- N/A -   "
7.51, 214.782, 0.0126981, NaN, NaN, NaN, 0.04577916, "- N/A -   "
7.55, 216.198, 0.0127703, NaN, NaN, NaN, 0.0433376, "- N/A -   "
7.59, 217.849, 0.012848, NaN, NaN, NaN, 0.0384545, "- N/A -   "
7.63, 219.3823, 0.012923, NaN, NaN, NaN, 0.0347922, "- N/A -   "
7.67, 220.68, 0.0129952, NaN, NaN, NaN, 0.0335714, "- N/A -   "
7.71, 221.859, 0.0130591, NaN, NaN, NaN, 0.0335714, "- N/A -   "
7.75, 223.3925, 0.01313126, NaN, NaN, NaN, 0.03112983, "- N/A -   "
7.79, 224.808, 0.0132035, NaN, NaN, NaN, 0.0286883, "- N/A -   "
7.83, 225.987, 0.0132729, NaN, NaN, NaN, 0.0286883, "- N/A -   "
7.87, 227.403, 0.0133395, NaN, NaN, NaN, 0.0274675, "- N/A -   "
7.91, 228.5822, 0.0134006, NaN, NaN, NaN, 0.0299091, "- N/A -   "
7.95, 229.762, 0.0134617, NaN, NaN, NaN, 0.0335714, "- N/A -   "
7.99, 230.941, 0.01352, NaN, NaN, NaN, 0.03601294, "- N/A -   "
8.03, 232.003, 0.0135811, NaN, NaN, NaN, 0.0384545, "- N/A -   "
8.07, 233.182, 0.0136366, NaN, NaN, NaN, 0.0445584, "- N/A -   "
8.11, 234.48, 0.013706, NaN, NaN, NaN, 0.0433376, "- N/A -   "
8.15, 235.895, 0.0137727, NaN, NaN, NaN, 0.0433376, "- N/A -   "
8.19, 237.192, 0.0138366, NaN, NaN, NaN, 0.0445584, "- N/A -   "
8.23, 238.726, 0.013906, NaN, NaN, NaN, 0.0433376, "- N/A -   "
8.27, 240.141, 0.0139782, NaN, NaN, NaN, 0.04089605, "- N/A -   "
8.31, 241.674, 0.0140559, NaN, NaN, NaN, 0.03601294, "- N/A -   "
8.35, 243.443, 0.0141364, NaN, NaN, NaN, 0.0299091, "- N/A -   "
8.39, 244.857, 0.0142086, NaN, NaN, NaN, 0.0286883, "- N/A -   "
8.43, 246.153, 0.0142725, NaN, NaN, NaN, 0.0286883, "- N/A -   "
8.47, 247.567, 0.0143391, NaN, NaN, NaN, 0.0286883, "- N/A -   "
8.51, 248.627, 0.0143975, NaN, NaN, NaN, 0.0323506, "- N/A -   "
8.55, 249.923, 0.0144585, NaN, NaN, NaN, 0.0347922, "- N/A -   "
8.59, 251.219, 0.0145196, NaN, NaN, NaN, 0.0372337, "- N/A -   "
8.63, 252.633, 0.0145863, NaN, NaN, NaN, 0.0384545, "- N/A -   "
8.67, 253.929, 0.0146529, NaN, NaN, NaN, 0.0372337, "- N/A -   "
8.71, 255.225, 0.0147168, NaN, NaN, NaN, 0.0384545, "- N/A -   "
8.75, 256.403, 0.0147723, NaN, NaN, NaN, 0.0433376, "- N/A -   "
8.79, 257.817, 0.014839, NaN, NaN, NaN, 0.0445584, "- N/A -   "
8.83, 259.113, 0.0149056, NaN, NaN, NaN, 0.0433376, "- N/A -   "
8.87, 260.527, 0.0149695, NaN, NaN, NaN, 0.0445584, "- N/A -   "
8.91, 262.177, 0.0150444, NaN, NaN, NaN, 0.04089605, "- N/A -   "
8.95, 263.8265, 0.0151222, NaN, NaN, NaN, 0.03601294, "- N/A -   "
8.99, 265.24, 0.01519994, NaN, NaN, NaN, 0.0323506, "- N/A -   "
9.03, 267.0078, 0.0152721, NaN, NaN, NaN, 0.0286883, "- N/A -   "
9.07, 268.1861, 0.015336, NaN, NaN, NaN, 0.0299091, "- N/A -   "
9.11, 269.482, 0.0153971, NaN, NaN, NaN, 0.0323506, "- N/A -   "
9.15, 270.66, 0.0154554, NaN, NaN, NaN, 0.03601294, "- N/A -   "
9.19, 272.192, 0.015522, NaN, NaN, NaN, 0.03601294, "- N/A -   "
9.23, 273.606, 0.0155942, NaN, NaN, NaN, 0.0335714, "- N/A -   "
9.27, 275.256, 0.0156664, NaN, NaN, NaN, 0.03112983, "- N/A -   "
9.31, 276.434, 0.0157275, NaN, NaN, NaN, 0.0335714, "- N/A -   "
9.35, 277.73, 0.0157886, NaN, NaN, NaN, 0.03601294, "- N/A -   "
9.39, 279.144, 0.0158469, NaN, NaN, NaN, 0.0396753, "- N/A -   "
9.43, 280.204, 0.015908, NaN, NaN, NaN, 0.04211683, "- N/A -   "
9.47, 281.736, 0.0159747, NaN, NaN, NaN, 0.04211683, "- N/A -   "
9.51, 283.15, 0.0160441, NaN, NaN, NaN, 0.04089605, "- N/A -   "
9.55, 284.682, 0.0161135, NaN, NaN, NaN, 0.04089605, "- N/A -   "
9.59, 286.213, 0.0161801, NaN, NaN, NaN, 0.0396753, "- N/A -   "
9.63, 287.6274, 0.0162496, NaN, NaN, NaN, 0.0384545, "- N/A -   "
9.67, 289.159, 0.0163217, NaN, NaN, NaN, 0.03601294, "- N/A -   "
9.71, 290.6909, 0.01638839, NaN, NaN, NaN, 0.03601294, "- N/A -   "
9.75, 292.105, 0.01645781, NaN, NaN, NaN, 0.0347922, "- N/A -   "
9.79, 293.637, 0.01653, NaN, NaN, NaN, 0.0335714, "- N/A -   "
9.83, 295.05, 0.0165966, NaN, NaN, NaN, 0.0335714, "- N/A -   "
9.87, 296.464, 0.0166605, NaN, NaN, NaN, 0.0335714, "- N/A -   "
9.91, 297.878, 0.0167244, NaN, NaN, NaN, 0.0347922, "- N/A -   "
9.95, 299.292, 0.0167882, NaN, NaN, NaN, 0.03601294, "- N/A -   "
9.99, 300.588, 0.0168549, NaN, NaN, NaN, 0.03601294, "- N/A -   "
10.03, 302.238, 0.0169271, NaN, NaN, NaN, 0.0347922, "- N/A -   "
10.07, 303.5339, 0.0169909, NaN, NaN, NaN, 0.03601294, "- N/A -   "
10.11, 304.948, 0.0170493, NaN, NaN, NaN, 0.0384545, "- N/A -   "
10.15, 306.2439, 0.0171159, NaN, NaN, NaN, 0.0384545, "- N/A -   "
10.19, 307.893, 0.0171853, NaN, NaN, NaN, 0.0372337, "- N/A -   "
10.23, 309.3074, 0.0172492, NaN, NaN, NaN, 0.0396753, "- N/A -   "
10.27, 310.603, 0.017313, NaN, NaN, NaN, 0.0396753, "- N/A -   "
10.31, 312.253, 0.01737969, NaN, NaN, NaN, 0.0396753, "- N/A -   "
10.35, 313.7848, 0.0174519, NaN, NaN, NaN, 0.0372337, "- N/A -   "
10.39, 315.1987, 0.01752408, NaN, NaN, NaN, 0.0347922, "- N/A -   "
10.43, 316.848, 0.0175907, NaN, NaN, NaN, 0.0347922, "- N/A -   "
10.47, 318.262, 0.0176601, NaN, NaN, NaN, 0.0347922, "- N/A -   "
10.51, 319.6761, 0.0177268, NaN, NaN, NaN, 0.0347922, "- N/A -   "
10.55, 321.09, 0.0177879, NaN, NaN, NaN, 0.03601294, "- N/A -   "
10.59, 322.5039, 0.01785729, NaN, NaN, NaN, 0.0347922, "- N/A -   "
10.63, 324.153, 0.01792671, NaN, NaN, NaN, 0.0347922, "- N/A -   "
10.67, 325.45, 0.0179878, NaN, NaN, NaN, 0.03601294, "- N/A -   "
10.71, 326.863, 0.0180572, NaN, NaN, NaN, 0.0347922, "- N/A -   "
10.75, 328.513, 0.0181266, NaN, NaN, NaN, 0.0335714, "- N/A -   "
10.79, 329.809, 0.0181849, NaN, NaN, NaN, 0.0372337, "- N/A -   "
10.83, 330.987, 0.0182433, NaN, NaN, NaN, 0.04211683, "- N/A -   "
10.87, 332.4013, 0.01830157, NaN, NaN, NaN, 0.0445584, "- N/A -   "
10.91, 333.697, 0.0183654, NaN, NaN, NaN, 0.04577916, "- N/A -   "
10.95, 335.465, 0.0184432, NaN, NaN, NaN, 0.04089605, "- N/A -   "
10.99, 337.232, 0.0185182, NaN, NaN, NaN, 0.0384545, "- N/A -   "
11.03, 338.882, 0.0185904, NaN, NaN, NaN, 0.03601294, "- N/A -   "
11.07, 340.413, 0.0186598, NaN, NaN, NaN, 0.0335714, "- N/A -   "
11.11, 341.8274, 0.0187264, NaN, NaN, NaN, 0.0335714, "- N/A -   "
11.15, 343.477, 0.01879861, NaN, NaN, NaN, 0.03112983, "- N/A -   "
11.19, 345.009, 0.01886803, NaN, NaN, NaN, 0.0299091, "- N/A -   "
11.23, 346.54, 0.01893467, NaN, NaN, NaN, 0.0299091, "- N/A -   "
11.27, 348.072, 0.01900409, NaN, NaN, NaN, 0.0299091, "- N/A -   "
11.31, 349.486, 0.019068, NaN, NaN, NaN, 0.03112983, "- N/A -   "
11.35, 350.7822, 0.0191263, NaN, NaN, NaN, 0.0335714, "- N/A -   "
11.39, 352.078, 0.0191818, NaN, NaN, NaN, 0.0384545, "- N/A -   "
11.43, 353.374, 0.0192457, NaN, NaN, NaN, 0.04089605, "- N/A -   "
11.47, 354.6704, 0.0193068, NaN, NaN, NaN, 0.0433376, "- N/A -   "
11.51, 356.202, 0.0193706, NaN, NaN, NaN, 0.0445584, "- N/A -   "
11.55, 357.852, 0.01944, NaN, NaN, NaN, 0.04211683, "- N/A -   "
11.59, 359.383, 0.0195095, NaN, NaN, NaN, 0.04211683, "- N/A -   "
11.63, 360.915, 0.0195733, NaN, NaN, NaN, 0.04211683, "- N/A -   "
11.67, 362.5648, 0.01964552, NaN, NaN, NaN, 0.0396753, "- N/A -   "
11.71, 363.9787, 0.0197149, NaN, NaN, NaN, 0.0384545, "- N/A -   "
11.75, 365.864, 0.0197955, NaN, NaN, NaN, 0.0335714, "- N/A -   "
11.79, 367.749, 0.0198732, NaN, NaN, NaN, 0.0274675, "- N/A -   "
11.83, 369.163, 0.0199399, NaN, NaN, NaN, 0.0274675, "- N/A -   "
11.87, 370.577, 0.0200037, NaN, NaN, NaN, 0.0286883, "- N/A -   "
11.91, 372.1087, 0.0200676, NaN, NaN, NaN, 0.03112983, "- N/A -   "
11.95, 373.64, 0.02013145, NaN, NaN, NaN, 0.03112983, "- N/A -   "
11.99, 375.054, 0.0201953, NaN, NaN, NaN, 0.0323506, "- N/A -   "
12.03, 376.35, 0.0202564, NaN, NaN, NaN, 0.0347922, "- N/A -   "
12.07, 377.764, 0.020323, NaN, NaN, NaN, 0.03601294, "- N/A -   "
12.11, 379.414, 0.0203897, NaN, NaN, NaN, 0.0347922, "- N/A -   "
12.15, 380.828, 0.0204536, NaN, NaN, NaN, 0.0372337, "- N/A -   "
12.19, 382.006, 0.0205091, NaN, NaN, NaN, 0.04089605, "- N/A -   "
12.23, 383.42, 0.0205702, NaN, NaN, NaN, 0.0433376, "- N/A -   "
12.27, 384.952, 0.020634, NaN, NaN, NaN, 0.0445584, "- N/A -   "
12.31, 386.601, 0.0207007, NaN, NaN, NaN, 0.0445584, "- N/A -   "
12.35, 388.487, 0.02078121, NaN, NaN, NaN, 0.0396753, "- N/A -   "
12.39, 390.2539, 0.0208562, NaN, NaN, NaN, 0.0347922, "- N/A -   "
12.43, 392.139, 0.0209339, NaN, NaN, NaN, 0.03112983, "- N/A -   "
12.47, 393.553, 0.0210006, NaN, NaN, NaN, 0.0299091, "- N/A -   "
12.51, 395.085, 0.02106166, NaN, NaN, NaN, 0.0323506, "- N/A -   "
12.55, 396.381, 0.0211228, NaN, NaN, NaN, 0.0347922, "- N/A -   "
12.59, 397.7948, 0.0211866, NaN, NaN, NaN, 0.0372337, "- N/A -   "
12.63, 399.444, 0.0212533, NaN, NaN, NaN, 0.0372337, "- N/A -   "
12.67, 401.212, 0.0213255, NaN, NaN, NaN, 0.0347922, "- N/A -   "
12.71, 402.8613, 0.0213949, NaN, NaN, NaN, 0.0347922, "- N/A -   "
12.75, 404.1574, 0.02145596, NaN, NaN, NaN, 0.03601294, "- N/A -   "
12.79, 405.689, 0.02151705, NaN, NaN, NaN, 0.0384545, "- N/A -   "
12.83, 406.985, 0.0215781, NaN, NaN, NaN, 0.04089605, "- N/A -   "
12.87, 408.517, 0.021642, NaN, NaN, NaN, 0.04211683, "- N/A -   "
12.91, 410.284, 0.02171142, NaN, NaN, NaN, 0.04089605, "- N/A -   "
12.95, 411.8161, 0.0217781, NaN, NaN, NaN, 0.04089605, "- N/A -   "
12.99, 413.466, 0.0218475, NaN, NaN, NaN, 0.0396753, "- N/A -   "
13.03, 415.233, 0.0219197, NaN, NaN, NaN, 0.0372337, "- N/A -   "
13.07, 416.765, 0.0219863, NaN, NaN, NaN, 0.0384545, "- N/A -   "
13.11, 418.1787, 0.0220502, NaN, NaN, NaN, 0.0384545, "- N/A -   "
13.15, 419.828, 0.0221196, NaN, NaN, NaN, 0.0372337, "- N/A -   "
13.19, 421.596, 0.0221946, NaN, NaN, NaN, 0.0335714, "- N/A -   "
13.23, 423.4809, 0.022264, NaN, NaN, NaN, 0.0323506, "- N/A -   "
13.27, 424.8948, 0.0223306, NaN, NaN, NaN, 0.0335714, "- N/A -   "
13.31, 426.4265, 0.0223945, NaN, NaN, NaN, 0.0335714, "- N/A -   "
13.35, 428.076, 0.0224667, NaN, NaN, NaN, 0.03112983, "- N/A -   "
13.39, 429.608, 0.0225306, NaN, NaN, NaN, 0.0323506, "- N/A -   "
13.43, 431.14, 0.0225972, NaN, NaN, NaN, 0.0323506, "- N/A -   "
13.47, 432.907, 0.0226638, NaN, NaN, NaN, 0.0323506, "- N/A -   "
13.51, 434.203, 0.0227277, NaN, NaN, NaN, 0.0335714, "- N/A -   "
13.55, 435.3813, 0.02278047, NaN, NaN, NaN, 0.04089605, "- N/A -   "
13.59, 436.913, 0.0228443, NaN, NaN, NaN, 0.04089605, "- N/A -   "
13.63, 438.445, 0.0229054, NaN, NaN, NaN, 0.0433376, "- N/A -   "
13.67, 439.8587, 0.0229665, NaN, NaN, NaN, 0.04577916, "- N/A -   "
13.71, 441.508, 0.0230332, NaN, NaN, NaN, 0.04577916, "- N/A -   "
13.75, 443.276, 0.0231081, NaN, NaN, NaN, 0.04211683, "- N/A -   "
13.79, 445.279, 0.0231859, NaN, NaN, NaN, 0.0372337, "- N/A -   "
13.83, 447.046, 0.0232608, NaN, NaN, NaN, 0.0335714, "- N/A -   "
13.87, 448.696, 0.02332749, NaN, NaN, NaN, 0.0335714, "- N/A -   "
13.91, 450.227, 0.0233941, NaN, NaN, NaN, 0.0335714, "- N/A -   "
13.95, 451.759, 0.0234552, NaN, NaN, NaN, 0.03601294, "- N/A -   "
13.99, 453.4087, 0.0235274, NaN, NaN, NaN, 0.0335714, "- N/A -   "
14.03, 455.2939, 0.02360239, NaN, NaN, NaN, 0.0299091, "- N/A -   "
14.07, 457.0613, 0.0236746, NaN, NaN, NaN, 0.0286883, "- N/A -   "
14.11, 458.475, 0.0237357, NaN, NaN, NaN, 0.0299091, "- N/A -   "
14.15, 459.889, 0.023794, NaN, NaN, NaN, 0.0347922, "- N/A -   "
14.19, 461.1852, 0.0238467, NaN, NaN, NaN, 0.0396753, "- N/A -   "
14.23, 462.3635, 0.0238995, NaN, NaN, NaN, 0.04577916, "- N/A -   "
14.27, 463.777, 0.02396059, NaN, NaN, NaN, 0.0482207, "- N/A -   "
14.31, 465.427, 0.0240245, NaN, NaN, NaN, 0.0494415, "- N/A -   "
14.35, 467.0765, 0.0240967, NaN, NaN, NaN, 0.04699994, "- N/A -   "
14.39, 469.08, 0.0241744, NaN, NaN, NaN, 0.04211683, "- N/A -   "
14.43, 471.0826, 0.0242521, NaN, NaN, NaN, 0.0372337, "- N/A -   "
14.47, 472.732, 0.02432157, NaN, NaN, NaN, 0.03601294, "- N/A -   "
14.51, 474.382, 0.024391, NaN, NaN, NaN, 0.0347922, "- N/A -   "
14.55, 476.0313, 0.0244604, NaN, NaN, NaN, 0.0347922, "- N/A -   "
14.59, 478.034, 0.02453538, NaN, NaN, NaN, 0.0299091, "- N/A -   "
14.63, 479.802, 0.02461035, NaN, NaN, NaN, 0.0262467, "- N/A -   "
14.67, 481.3335, 0.0246742, NaN, NaN, NaN, 0.0274675, "- N/A -   "
14.71, 482.983, 0.0247381, NaN, NaN, NaN, 0.0286883, "- N/A -   "
14.75, 484.397, 0.0248019, NaN, NaN, NaN, 0.0299091, "- N/A -   "
14.79, 485.811, 0.02486026, NaN, NaN, NaN, 0.0335714, "- N/A -   "
14.83, 487.225, 0.0249213, NaN, NaN, NaN, 0.03601294, "- N/A -   "
14.87, 488.6387, 0.0249824, NaN, NaN, NaN, 0.0384545, "- N/A -   "
14.91, 490.17, 0.0250407, NaN, NaN, NaN, 0.04211683, "- N/A -   "
14.95, 491.82, 0.0251046, NaN, NaN, NaN, 0.0433376, "- N/A -   "
14.99, 493.352, 0.0251713, NaN, NaN, NaN, 0.0433376, "- N/A -   "
15.03, 495.0013, 0.02523512, NaN, NaN, NaN, 0.0445584, "- N/A -   "
15.07, 496.651, 0.0253073, NaN, NaN, NaN, 0.0433376, "- N/A -   "
15.11, 498.654, 0.0253795, NaN, NaN, NaN, 0.0396753, "- N/A -   "
15.15, 500.539, 0.0254545, NaN, NaN, NaN, 0.03601294, "- N/A -   "
15.19, 502.307, 0.02553223, NaN, NaN, NaN, 0.03112983, "- N/A -   "
15.23, 504.192, 0.0256017, NaN, NaN, NaN, 0.0299091, "- N/A -   "
15.27, 505.8413, 0.0256738, NaN, NaN, NaN, 0.0286883, "- N/A -   "
15.31, 507.373, 0.0257349, NaN, NaN, NaN, 0.0299091, "- N/A -   "
15.35, 508.787, 0.025796, NaN, NaN, NaN, 0.0323506, "- N/A -   "
15.39, 510.437, 0.0258599, NaN, NaN, NaN, 0.0335714, "- N/A -   "
15.43, 512.086, 0.0259238, NaN, NaN, NaN, 0.0347922, "- N/A -   "
15.47, 513.6183, 0.02598762, NaN, NaN, NaN, 0.0372337, "- N/A -   "
15.51, 515.156, 0.0260487, NaN, NaN, NaN, 0.0384545, "- N/A -   "
15.55, 516.694, 0.0261098, NaN, NaN, NaN, 0.04089605, "- N/A -   "
15.59, 518.231, 0.0261737, NaN, NaN, NaN, 0.0433376, "- N/A -   "
15.63, 519.887, 0.0262375, NaN, NaN, NaN, 0.0433376, "- N/A -   "
15.67, 521.3065, 0.0262986, NaN, NaN, NaN, 0.04577916, "- N/A -   "
15.71, 523.199, 0.02637359, NaN, NaN, NaN, 0.04211683, "- N/A -   "
15.75, 525.2098, 0.02644856, NaN, NaN, NaN, 0.0384545, "- N/A -   "
15.79, 527.339, 0.0265346, NaN, NaN, NaN, 0.03112983, "- N/A -   "
15.83, 529.3496, 0.02661239, NaN, NaN, NaN, 0.0250259, "- N/A -   "
15.87, 531.006, 0.02667903, NaN, NaN, NaN, 0.0250259, "- N/A -   "
15.91, 532.188, 0.02673179, NaN, NaN, NaN, 0.03112983, "- N/A -   "
15.95, 533.371, 0.0267818, NaN, NaN, NaN, 0.0384545, "- N/A -   "
15.99, 534.7905, 0.0268401, NaN, NaN, NaN, 0.04211683, "- N/A -   "
16.03, 536.801, 0.0269123, NaN, NaN, NaN, 0.0396753, "- N/A -   "
16.07, 538.8121, 0.0269928, NaN, NaN, NaN, 0.0335714, "- N/A -   "
16.11, 540.5863, 0.0270622, NaN, NaN, NaN, 0.0323506, "- N/A -   "
16.15, 542.124, 0.02712331, NaN, NaN, NaN, 0.0347922, "- N/A -   "
16.19, 543.425, 0.0271816, NaN, NaN, NaN, 0.0396753, "- N/A -   "
16.23, 544.8444, 0.0272399, NaN, NaN, NaN, 0.04211683, "- N/A -   "
16.27, 546.619, 0.0273094, NaN, NaN, NaN, 0.04089605, "- N/A -   "
16.31, 548.5111, 0.0273843, NaN, NaN, NaN, 0.0372337, "- N/A -   "
16.35, 550.4036, 0.0274565, NaN, NaN, NaN, 0.0347922, "- N/A -   "
16.39, 552.0596, 0.0275204, NaN, NaN, NaN, 0.03601294, "- N/A -   "
16.43, 553.7155, 0.027587, NaN, NaN, NaN, 0.03601294, "- N/A -   "
16.47, 555.3714, 0.0276564, NaN, NaN, NaN, 0.0347922, "- N/A -   "
16.51, 557.027, 0.0277203, NaN, NaN, NaN, 0.03601294, "- N/A -   "
16.55, 558.8016, 0.0277842, NaN, NaN, NaN, 0.0372337, "- N/A -   "
16.59, 560.4575, 0.0278536, NaN, NaN, NaN, 0.03601294, "- N/A -   "
16.63, 562.2317, 0.027923, NaN, NaN, NaN, 0.0347922, "- N/A -   "
16.67, 564.0059, 0.02799521, NaN, NaN, NaN, 0.0335714, "- N/A -   "
16.71, 565.5436, 0.0280591, NaN, NaN, NaN, 0.0335714, "- N/A -   "
16.75, 567.1995, 0.0281229, NaN, NaN, NaN, 0.0347922, "- N/A -   "
16.79, 568.8554, 0.0281896, NaN, NaN, NaN, 0.0347922, "- N/A -   "
16.83, 570.63, 0.028259, NaN, NaN, NaN, 0.0335714, "- N/A -   "
16.87, 572.2856, 0.0283284, NaN, NaN, NaN, 0.0335714, "- N/A -   "
16.91, 573.9415, 0.0283923, NaN, NaN, NaN, 0.0347922, "- N/A -   "
16.95, 575.2426, 0.0284478, NaN, NaN, NaN, 0.0384545, "- N/A -   "
16.99, 576.8985, 0.0285117, NaN, NaN, NaN, 0.04089605, "- N/A -   "
17.03, 578.554, 0.0285756, NaN, NaN, NaN, 0.04211683, "- N/A -   "
17.07, 580.21, 0.0286394, NaN, NaN, NaN, 0.0433376, "- N/A -   "
17.11, 581.9846, 0.0287061, NaN, NaN, NaN, 0.0433376, "- N/A -   "
17.15, 583.8771, 0.0287783, NaN, NaN, NaN, 0.04089605, "- N/A -   "
17.19, 585.7696, 0.02885878, NaN, NaN, NaN, 0.03601294, "- N/A -   "
17.23, 587.8987, 0.028931, NaN, NaN, NaN, 0.0323506, "- N/A -   "
17.27, 589.318, 0.0289948, NaN, NaN, NaN, 0.0335714, "- N/A -   "
17.31, 590.974, 0.0290587, NaN, NaN, NaN, 0.0347922, "- N/A -   "
17.35, 592.6299, 0.02912535, NaN, NaN, NaN, 0.0347922, "- N/A -   "
17.39, 594.4041, 0.0292003, NaN, NaN, NaN, 0.0323506, "- N/A -   "
17.43, 596.415, 0.0292725, NaN, NaN, NaN, 0.0286883, "- N/A -   "
17.47, 598.189, 0.0293419, NaN, NaN, NaN, 0.0286883, "- N/A -   "
17.51, 599.727, 0.029403, NaN, NaN, NaN, 0.03112983, "- N/A -   "
17.55, 601.1461, 0.0294613, NaN, NaN, NaN, 0.0335714, "- N/A -   "
17.59, 602.5655, 0.0295224, NaN, NaN, NaN, 0.03601294, "- N/A -   "
17.63, 604.103, 0.02957796, NaN, NaN, NaN, 0.04089605, "- N/A -   "
17.67, 605.641, 0.0296418, NaN, NaN, NaN, 0.0433376, "- N/A -   "
17.71, 607.1784, 0.0297001, NaN, NaN, NaN, 0.04577916, "- N/A -   "
17.75, 608.716, 0.02976678, NaN, NaN, NaN, 0.04699994, "- N/A -   "
17.79, 610.6086, 0.029839, NaN, NaN, NaN, 0.0433376, "- N/A -   "
17.83, 612.6193, 0.0299139, NaN, NaN, NaN, 0.0396753, "- N/A -   "
17.87, 614.512, 0.02998892, NaN, NaN, NaN, 0.0372337, "- N/A -   "
17.91, 616.4043, 0.0300583, NaN, NaN, NaN, 0.0347922, "- N/A -   "
17.95, 617.942, 0.030125, NaN, NaN, NaN, 0.03601294, "- N/A -   "
17.99, 619.953, 0.0301972, NaN, NaN, NaN, 0.0323506, "- N/A -   "
18.03, 621.7269, 0.0302666, NaN, NaN, NaN, 0.03112983, "- N/A -   "
18.07, 623.501, 0.0303332, NaN, NaN, NaN, 0.03112983, "- N/A -   "
18.11, 625.1571, 0.03039988, NaN, NaN, NaN, 0.03112983, "- N/A -   "
18.15, 626.813, 0.0304637, NaN, NaN, NaN, 0.0323506, "- N/A -   "
18.19, 628.2324, 0.0305221, NaN, NaN, NaN, 0.03601294, "- N/A -   "
18.23, 629.7701, 0.0305831, NaN, NaN, NaN, 0.0384545, "- N/A -   "
18.27, 631.308, 0.0306442, NaN, NaN, NaN, 0.04089605, "- N/A -   "
18.31, 632.8454, 0.0307053, NaN, NaN, NaN, 0.0445584, "- N/A -   "
18.35, 634.5013, 0.0307692, NaN, NaN, NaN, 0.0445584, "- N/A -   "
18.39, 636.2755, 0.0308386, NaN, NaN, NaN, 0.0445584, "- N/A -   "
18.43, 637.931, 0.0309052, NaN, NaN, NaN, 0.0433376, "- N/A -   "
18.47, 639.8239, 0.0309774, NaN, NaN, NaN, 0.04211683, "- N/A -   "
18.51, 641.598, 0.0310469, NaN, NaN, NaN, 0.04089605, "- N/A -   "
18.55, 643.727, 0.0311302, NaN, NaN, NaN, 0.0335714, "- N/A -   "
18.59, 645.975, 0.0312107, NaN, NaN, NaN, 0.0262467, "- N/A -   "
18.63, 647.63, 0.0312746, NaN, NaN, NaN, 0.0274675, "- N/A -   "
18.67, 649.168, 0.0313356, NaN, NaN, NaN, 0.0299091, "- N/A -   "
18.71, 650.8241, 0.0314023, NaN, NaN, NaN, 0.0299091, "- N/A -   "
18.75, 652.717, 0.0314689, NaN, NaN, NaN, 0.0299091, "- N/A -   "
18.79, 654.1359, 0.03153, NaN, NaN, NaN, 0.0323506, "- N/A -   "
18.83, 655.6735, 0.03159388, NaN, NaN, NaN, 0.0335714, "- N/A -   "
18.87, 657.448, 0.0316577, NaN, NaN, NaN, 0.03601294, "- N/A -   "
18.91, 659.104, 0.0317216, NaN, NaN, NaN, 0.03601294, "- N/A -   "
18.95, 660.76, 0.0317827, NaN, NaN, NaN, 0.0384545, "- N/A -   "
18.99, 662.179, 0.031841, NaN, NaN, NaN, 0.04211683, "- N/A -   "
19.03, 663.835, 0.0319049, NaN, NaN, NaN, 0.0433376, "- N/A -   "
19.07, 665.373, 0.031966, NaN, NaN, NaN, 0.04699994, "- N/A -   "
19.11, 667.029, 0.03203261, NaN, NaN, NaN, 0.04577916, "- N/A -   "
19.15, 669.2759, 0.0321131, NaN, NaN, NaN, 0.04089605, "- N/A -   "
19.19, 671.405, 0.03219088, NaN, NaN, NaN, 0.0347922, "- N/A -   "
19.23, 673.2974, 0.0322603, NaN, NaN, NaN, 0.0335714, "- N/A -   "
19.27, 675.19, 0.0323325, NaN, NaN, NaN, 0.03112983, "- N/A -   "
19.31, 676.7276, 0.0323964, NaN, NaN, NaN, 0.0335714, "- N/A -   "
19.35, 678.2652, 0.0324575, NaN, NaN, NaN, 0.03601294, "- N/A -   "
19.39, 679.921, 0.03252132, NaN, NaN, NaN, 0.03601294, "- N/A -   "
19.43, 681.932, 0.0325907, NaN, NaN, NaN, 0.0347922, "- N/A -   "
19.47, 683.47, 0.0326602, NaN, NaN, NaN, 0.0347922, "- N/A -   "
19.51, 685.2438, 0.0327268, NaN, NaN, NaN, 0.0335714, "- N/A -   "
19.55, 686.9, 0.0327934, NaN, NaN, NaN, 0.0347922, "- N/A -   "
19.59, 688.4374, 0.0328545, NaN, NaN, NaN, 0.0372337, "- N/A -   "
19.63, 690.0933, 0.03291284, NaN, NaN, NaN, 0.0396753, "- N/A -   "
19.67, 691.6309, 0.0329739, NaN, NaN, NaN, 0.04211683, "- N/A -   "
19.71, 693.405, 0.03304057, NaN, NaN, NaN, 0.04211683, "- N/A -   "
19.75, 695.1794, 0.03310999, NaN, NaN, NaN, 0.04211683, "- N/A -   "
19.79, 696.954, 0.03317663, NaN, NaN, NaN, 0.04089605, "- N/A -   "
19.83, 698.846, 0.033246, NaN, NaN, NaN, 0.0396753, "- N/A -   "
19.87, 700.6203, 0.033321, NaN, NaN, NaN, 0.03601294, "- N/A -   "
19.91, 702.513, 0.03338766, NaN, NaN, NaN, 0.03601294, "- N/A -   "
19.95, 704.4053, 0.0334599, NaN, NaN, NaN, 0.0335714, "- N/A -   "
19.99, 705.943, 0.0335265, NaN, NaN, NaN, 0.0335714, "- N/A -   "
20.03, 707.835, 0.0335931, NaN, NaN, NaN, 0.0335714, "- N/A -   "
20.07, 709.7279, 0.03366256, NaN, NaN, NaN, 0.0323506, "- N/A -   "
20.11, 711.384, 0.0337292, NaN, NaN, NaN, 0.0323506, "- N/A -   "
20.15, 713.276, 0.0337986, NaN, NaN, NaN, 0.0323506, "- N/A -   "
20.19, 714.932, 0.0338653, NaN, NaN, NaN, 0.03112983, "- N/A -   "
20.23, 716.7065, 0.03392913, NaN, NaN, NaN, 0.0323506, "- N/A -   "
20.27, 718.2441, 0.0339958, NaN, NaN, NaN, 0.0323506, "- N/A -   "
20.31, 719.9001, 0.0340596, NaN, NaN, NaN, 0.0335714, "- N/A -   "
20.35, 721.438, 0.0341152, NaN, NaN, NaN, 0.0384545, "- N/A -   "
20.39, 723.0936, 0.034179, NaN, NaN, NaN, 0.0396753, "- N/A -   "
20.43, 724.7496, 0.03424568, NaN, NaN, NaN, 0.04089605, "- N/A -   "
20.47, 726.4055, 0.03430399, NaN, NaN, NaN, 0.0433376, "- N/A -   "
20.51, 728.0614, 0.0343706, NaN, NaN, NaN, 0.0433376, "- N/A -   "
20.55, 729.8357, 0.0344373, NaN, NaN, NaN, 0.0433376, "- N/A -   "
20.59, 731.846, 0.0345122, NaN, NaN, NaN, 0.0396753, "- N/A -   "
20.63, 733.8572, 0.03458722, NaN, NaN, NaN, 0.03601294, "- N/A -   "
20.67, 735.868, 0.0346594, NaN, NaN, NaN, 0.0335714, "- N/A -   "
20.71, 737.5239, 0.0347288, NaN, NaN, NaN, 0.0323506, "- N/A -   "
20.75, 739.298, 0.0347927, NaN, NaN, NaN, 0.0335714, "- N/A -   "
20.79, 741.0723, 0.0348649, NaN, NaN, NaN, 0.0323506, "- N/A -   "
20.83, 743.0831, 0.03493709, NaN, NaN, NaN, 0.0286883, "- N/A -   "
20.87, 744.857, 0.0350037, NaN, NaN, NaN, 0.0286883, "- N/A -   "
20.91, 746.395, 0.0350676, NaN, NaN, NaN, 0.03112983, "- N/A -   "
20.95, 748.1692, 0.0351287, NaN, NaN, NaN, 0.0323506, "- N/A -   "
20.99, 749.352, 0.035187, NaN, NaN, NaN, 0.03601294, "- N/A -   "
21.03, 751.008, 0.03524531, NaN, NaN, NaN, 0.0396753, "- N/A -   "
21.07, 752.4273, 0.0353036, NaN, NaN, NaN, 0.0445584, "- N/A -   "
21.11, 754.0832, 0.03536471, NaN, NaN, NaN, 0.04577916, "- N/A -   "
21.15, 755.7392, 0.0354258, NaN, NaN, NaN, 0.0482207, "- N/A -   "
21.19, 757.75, 0.0355008, NaN, NaN, NaN, 0.0445584, "- N/A -   "
21.23, 759.7607, 0.0355785, NaN, NaN, NaN, 0.0396753, "- N/A -   "
21.27, 761.8898, 0.03565627, NaN, NaN, NaN, 0.03601294, "- N/A -   "
21.31, 763.7823, 0.03573124, NaN, NaN, NaN, 0.0323506, "- N/A -   "
21.35, 765.5565, 0.0357979, NaN, NaN, NaN, 0.03112983, "- N/A -   "
21.39, 767.3307, 0.03587008, NaN, NaN, NaN, 0.0299091, "- N/A -   "
21.43, 769.2232, 0.0359395, NaN, NaN, NaN, 0.0286883, "- N/A -   "
21.47, 770.997, 0.0360034, NaN, NaN, NaN, 0.0286883, "- N/A -   "
21.51, 772.7716, 0.0360728, NaN, NaN, NaN, 0.0274675, "- N/A -   "
21.55, 774.546, 0.0361422, NaN, NaN, NaN, 0.0262467, "- N/A -   "
21.59, 776.0835, 0.03620329, NaN, NaN, NaN, 0.0286883, "- N/A -   "
21.63, 777.3845, 0.03625605, NaN, NaN, NaN, 0.03601294, "- N/A -   "
21.67, 778.922, 0.03631436, NaN, NaN, NaN, 0.0396753, "- N/A -   "
21.71, 780.46, 0.0363754, NaN, NaN, NaN, 0.0433376, "- N/A -   "
21.75, 782.2341, 0.0364365, NaN, NaN, NaN, 0.0445584, "- N/A -   "
21.79, 783.89, 0.03650318, NaN, NaN, NaN, 0.0445584, "- N/A -   "
21.83, 785.6642, 0.03656982, NaN, NaN, NaN, 0.0445584, "- N/A -   "
21.87, 787.675, 0.036642, NaN, NaN, NaN, 0.04211683, "- N/A -   "
21.91, 789.5675, 0.0367114, NaN, NaN, NaN, 0.04089605, "- N/A -   "
21.95, 791.2234, 0.0367809, NaN, NaN, NaN, 0.04089605, "- N/A -   "
21.99, 793.2342, 0.03685305, NaN, NaN, NaN, 0.0372337, "- N/A -   "
22.03, 795.245, 0.0369308, NaN, NaN, NaN, 0.0323506, "- N/A -   "
22.07, 797.137, 0.0370002, NaN, NaN, NaN, 0.03112983, "- N/A -   "
22.11, 798.9116, 0.03706686, NaN, NaN, NaN, 0.03112983, "- N/A -   "
22.15, 800.5676, 0.0371307, NaN, NaN, NaN, 0.0323506, "- N/A -   "
22.19, 802.342, 0.0371974, NaN, NaN, NaN, 0.0335714, "- N/A -   "
22.23, 803.998, 0.0372585, NaN, NaN, NaN, 0.0347922, "- N/A -   "
22.27, 805.6537, 0.0373251, NaN, NaN, NaN, 0.03601294, "- N/A -   "
22.31, 807.4279, 0.03738896, NaN, NaN, NaN, 0.0372337, "- N/A -   "
22.35, 809.0838, 0.0374501, NaN, NaN, NaN, 0.0384545, "- N/A -   "
22.39, 810.503, 0.03751114, NaN, NaN, NaN, 0.04089605, "- N/A -   "
22.43, 812.277, 0.0375722, NaN, NaN, NaN, 0.0433376, "- N/A -   "
22.47, 813.6968, 0.03763332, NaN, NaN, NaN, 0.04577916, "- N/A -   "
[...]
35.26, 1384.47, 0.0589782, NaN, NaN, NaN, 0.0347922, "- N/A -   "
35.27, 1384.83, 0.0589921, NaN, NaN, NaN, 0.0347922, "- N/A -   "
35.28, 1385.19, 0.059006, NaN, NaN, NaN, 0.03601294, "- N/A -   "
35.29, 1385.54, 0.05901986, NaN, NaN, NaN, 0.0372337, "- N/A -   "
35.3, 1385.9, 0.05903652, NaN, NaN, NaN, 0.0384545, "- N/A -   "
35.31, 1386.26, 0.0590504, NaN, NaN, NaN, 0.0396753, "- N/A -   "
35.32, 1386.5, 0.0590615, NaN, NaN, NaN, 0.04089605, "- N/A -   "
35.33, 1386.85, 0.0590754, NaN, NaN, NaN, 0.04211683, "- N/A -   "
35.34, 1387.21, 0.0590893, NaN, NaN, NaN, 0.0433376, "- N/A -   "
35.35, 1387.57, 0.05910316, NaN, NaN, NaN, 0.0445584, "- N/A -   "
35.36, 1388.05, 0.05911982, NaN, NaN, NaN, 0.0445584, "- N/A -   "
35.37, 1388.41, 0.05913371, NaN, NaN, NaN, 0.04577916, "- N/A -   "
35.38, 1388.88, 0.0591504, NaN, NaN, NaN, 0.04577916, "- N/A -   "
35.39, 1389.36, 0.059167, NaN, NaN, NaN, 0.04577916, "- N/A -   "
35.4, 1389.84, 0.05918369, NaN, NaN, NaN, 0.04577916, "- N/A -   "
35.41, 1390.31, 0.05920035, NaN, NaN, NaN, 0.04577916, "- N/A -   "
35.42, 1390.671, 0.05921979, NaN, NaN, NaN, 0.04577916, "- N/A -   "
35.43, 1391.148, 0.05923645, NaN, NaN, NaN, 0.0445584, "- N/A -   "
35.44, 1391.625, 0.0592531, NaN, NaN, NaN, 0.0445584, "- N/A -   "
35.45, 1392.102, 0.0592698, NaN, NaN, NaN, 0.0445584, "- N/A -   "
35.46, 1392.579, 0.0592892, NaN, NaN, NaN, 0.0433376, "- N/A -   "
35.47, 1393.056, 0.0593059, NaN, NaN, NaN, 0.0433376, "- N/A -   "
35.48, 1393.53, 0.0593225, NaN, NaN, NaN, 0.0433376, "- N/A -   "
35.49, 1393.89, 0.0593392, NaN, NaN, NaN, 0.0445584, "- N/A -   "
35.5, 1394.487, 0.0593558, NaN, NaN, NaN, 0.0433376, "- N/A -   "
35.51, 1394.84, 0.0593725, NaN, NaN, NaN, 0.0433376, "- N/A -   "
35.52, 1395.44, 0.0593892, NaN, NaN, NaN, 0.0433376, "- N/A -   "
35.53, 1395.92, 0.0594086, NaN, NaN, NaN, 0.04211683, "- N/A -   "
35.54, 1396.4, 0.0594253, NaN, NaN, NaN, 0.04211683, "- N/A -   "
35.55, 1396.75, 0.0594419, NaN, NaN, NaN, 0.0433376, "- N/A -   "
35.56, 1397.11, 0.0594586, NaN, NaN, NaN, 0.0433376, "- N/A -   "
35.57, 1397.71, 0.0594752, NaN, NaN, NaN, 0.0433376, "- N/A -   "
35.58, 1398.18, 0.05949468, NaN, NaN, NaN, 0.04211683, "- N/A -   "
35.59, 1398.54, 0.0595113, NaN, NaN, NaN, 0.04089605, "- N/A -   "
35.6, 1399.14, 0.05953356, NaN, NaN, NaN, 0.0396753, "- N/A -   "
35.61, 1399.73, 0.05955022, NaN, NaN, NaN, 0.0384545, "- N/A -   "
35.62, 1400.211, 0.0595724, NaN, NaN, NaN, 0.03601294, "- N/A -   "
35.63, 1400.69, 0.05959465, NaN, NaN, NaN, 0.0347922, "- N/A -   "
35.64, 1401.4, 0.05961131, NaN, NaN, NaN, 0.0335714, "- N/A -   "
35.65, 1402.0, 0.05963352, NaN, NaN, NaN, 0.03112983, "- N/A -   "
35.66, 1402.36, 0.059653, NaN, NaN, NaN, 0.0299091, "- N/A -   "
35.67, 1402.954, 0.0596724, NaN, NaN, NaN, 0.0299091, "- N/A -   "
35.68, 1403.431, 0.0596863, NaN, NaN, NaN, 0.0299091, "- N/A -   "
35.69, 1403.908, 0.0597057, NaN, NaN, NaN, 0.0286883, "- N/A -   "
35.7, 1404.385, 0.0597252, NaN, NaN, NaN, 0.0286883, "- N/A -   "
35.71, 1404.74, 0.059739, NaN, NaN, NaN, 0.0286883, "- N/A -   "
35.72, 1405.1, 0.0597557, NaN, NaN, NaN, 0.0286883, "- N/A -   "
35.73, 1405.58, 0.0597696, NaN, NaN, NaN, 0.0299091, "- N/A -   "
35.74, 1405.94, 0.0597862, NaN, NaN, NaN, 0.0299091, "- N/A -   "
35.75, 1406.41, 0.0598029, NaN, NaN, NaN, 0.0299091, "- N/A -   "
35.76, 1406.89, 0.0598196, NaN, NaN, NaN, 0.0299091, "- N/A -   "
35.77, 1407.247, 0.0598362, NaN, NaN, NaN, 0.0299091, "- N/A -   "
35.78, 1407.724, 0.0598501, NaN, NaN, NaN, 0.03112983, "- N/A -   "
35.79, 1408.08, 0.0598668, NaN, NaN, NaN, 0.03112983, "- N/A -   "
35.8, 1408.44, 0.0598807, NaN, NaN, NaN, 0.0323506, "- N/A -   "
35.81, 1408.8, 0.05989454, NaN, NaN, NaN, 0.0335714, "- N/A -   "
35.82, 1409.155, 0.0599112, NaN, NaN, NaN, 0.0335714, "- N/A -   "
35.83, 1409.63, 0.05992508, NaN, NaN, NaN, 0.0347922, "- N/A -   "
35.84, 1410.109, 0.059939, NaN, NaN, NaN, 0.03601294, "- N/A -   "
35.85, 1410.47, 0.0599556, NaN, NaN, NaN, 0.03601294, "- N/A -   "
35.86, 1410.82, 0.0599723, NaN, NaN, NaN, 0.03601294, "- N/A -   "
35.87, 1411.3, 0.0599889, NaN, NaN, NaN, 0.0372337, "- N/A -   "
35.88, 1411.66, 0.06000561, NaN, NaN, NaN, 0.0372337, "- N/A -   "
35.89, 1412.02, 0.0600195, NaN, NaN, NaN, 0.0372337, "- N/A -   "
35.9, 1412.49, 0.0600362, NaN, NaN, NaN, 0.0372337, "- N/A -   "
35.91, 1412.97, 0.0600528, NaN, NaN, NaN, 0.0384545, "- N/A -   "
35.92, 1413.45, 0.0600667, NaN, NaN, NaN, 0.0384545, "- N/A -   "
35.93, 1413.81, 0.0600834, NaN, NaN, NaN, 0.0384545, "- N/A -   "
35.94, 1414.4, 0.0601, NaN, NaN, NaN, 0.0384545, "- N/A -   "
35.95, 1414.76, 0.0601195, NaN, NaN, NaN, 0.0372337, "- N/A -   "
35.96, 1415.24, 0.0601361, NaN, NaN, NaN, 0.0372337, "- N/A -   "
35.97, 1415.59, 0.0601528, NaN, NaN, NaN, 0.0372337, "- N/A -   "
35.98, 1416.07, 0.0601667, NaN, NaN, NaN, 0.0384545, "- N/A -   "
35.99, 1416.43, 0.06018332, NaN, NaN, NaN, 0.0384545, "- N/A -   "
36, 1416.91, 0.06019998, NaN, NaN, NaN, 0.0384545, "- N/A -   "
36.01, 1417.38, 0.0602166, NaN, NaN, NaN, 0.0396753, "- N/A -   "
36.02, 1417.622, 0.0602277, NaN, NaN, NaN, 0.04089605, "- N/A -   "
36.03, 1418.1, 0.0602444, NaN, NaN, NaN, 0.04089605, "- N/A -   "
36.04, 1418.46, 0.0602611, NaN, NaN, NaN, 0.04211683, "- N/A -   "
36.05, 1418.81, 0.06027495, NaN, NaN, NaN, 0.0433376, "- N/A -   "
36.06, 1419.29, 0.06028884, NaN, NaN, NaN, 0.0433376, "- N/A -   "
36.07, 1419.77, 0.0603055, NaN, NaN, NaN, 0.0433376, "- N/A -   "
36.08, 1420.13, 0.06031938, NaN, NaN, NaN, 0.0445584, "- N/A -   "
36.09, 1420.484, 0.060336, NaN, NaN, NaN, 0.0445584, "- N/A -   "
36.1, 1420.96, 0.0603527, NaN, NaN, NaN, 0.0445584, "- N/A -   "
36.11, 1421.32, 0.06036936, NaN, NaN, NaN, 0.0445584, "- N/A -   "
36.12, 1421.68, 0.06038602, NaN, NaN, NaN, 0.0445584, "- N/A -   "
36.13, 1422.03, 0.06040268, NaN, NaN, NaN, 0.0445584, "- N/A -   "
36.14, 1422.63, 0.0604193, NaN, NaN, NaN, 0.0445584, "- N/A -   "
36.15, 1422.99, 0.060436, NaN, NaN, NaN, 0.04577916, "- N/A -   "
36.16, 1423.58, 0.0604527, NaN, NaN, NaN, 0.04577916, "- N/A -   "
36.17, 1423.94, 0.0604721, NaN, NaN, NaN, 0.0445584, "- N/A -   "
36.18, 1424.54, 0.06049154, NaN, NaN, NaN, 0.0433376, "- N/A -   "
36.19, 1425.13, 0.060511, NaN, NaN, NaN, 0.04089605, "- N/A -   "
36.2, 1425.61, 0.0605332, NaN, NaN, NaN, 0.0396753, "- N/A -   "
36.21, 1426.21, 0.06054985, NaN, NaN, NaN, 0.0384545, "- N/A -   "
36.22, 1426.685, 0.06056929, NaN, NaN, NaN, 0.0372337, "- N/A -   "
36.23, 1427.28, 0.0605887, NaN, NaN, NaN, 0.03601294, "- N/A -   "
36.24, 1427.639, 0.0606082, NaN, NaN, NaN, 0.03601294, "- N/A -   "
36.25, 1428.24, 0.0606276, NaN, NaN, NaN, 0.0347922, "- N/A -   "
36.26, 1428.71, 0.06064426, NaN, NaN, NaN, 0.0335714, "- N/A -   "
36.27, 1429.19, 0.06066092, NaN, NaN, NaN, 0.0335714, "- N/A -   "
36.28, 1429.67, 0.06067758, NaN, NaN, NaN, 0.0335714, "- N/A -   "
36.29, 1430.024, 0.06069702, NaN, NaN, NaN, 0.0335714, "- N/A -   "
36.3, 1430.5, 0.0607109, NaN, NaN, NaN, 0.0335714, "- N/A -   "
36.31, 1430.98, 0.06073034, NaN, NaN, NaN, 0.0323506, "- N/A -   "
36.32, 1431.46, 0.0607498, NaN, NaN, NaN, 0.0323506, "- N/A -   "
36.33, 1432.05, 0.06076644, NaN, NaN, NaN, 0.03112983, "- N/A -   "
36.34, 1432.41, 0.0607831, NaN, NaN, NaN, 0.03112983, "- N/A -   "
36.35, 1432.767, 0.06079976, NaN, NaN, NaN, 0.03112983, "- N/A -   "
36.36, 1433.244, 0.06081642, NaN, NaN, NaN, 0.03112983, "- N/A -   "
36.37, 1433.6, 0.0608303, NaN, NaN, NaN, 0.0323506, "- N/A -   "
36.38, 1433.96, 0.0608442, NaN, NaN, NaN, 0.0335714, "- N/A -   "
36.39, 1434.32, 0.0608608, NaN, NaN, NaN, 0.0347922, "- N/A -   "
36.4, 1434.79, 0.06087473, NaN, NaN, NaN, 0.0347922, "- N/A -   "
36.41, 1435.15, 0.0608914, NaN, NaN, NaN, 0.03601294, "- N/A -   "
36.42, 1435.51, 0.0609053, NaN, NaN, NaN, 0.03601294, "- N/A -   "
36.43, 1435.99, 0.0609219, NaN, NaN, NaN, 0.0372337, "- N/A -   "
36.44, 1436.34, 0.0609386, NaN, NaN, NaN, 0.0372337, "- N/A -   "
36.45, 1436.94, 0.0609525, NaN, NaN, NaN, 0.0372337, "- N/A -   "
36.46, 1437.3, 0.0609691, NaN, NaN, NaN, 0.0372337, "- N/A -   "
36.47, 1437.78, 0.0609858, NaN, NaN, NaN, 0.0372337, "- N/A -   "
36.48, 1438.25, 0.06100246, NaN, NaN, NaN, 0.0372337, "- N/A -   "
36.49, 1438.73, 0.0610219, NaN, NaN, NaN, 0.0372337, "- N/A -   "
36.5, 1439.21, 0.0610386, NaN, NaN, NaN, 0.03601294, "- N/A -   "
36.51, 1439.68, 0.061058, NaN, NaN, NaN, 0.03601294, "- N/A -   "
36.52, 1440.16, 0.0610747, NaN, NaN, NaN, 0.0347922, "- N/A -   "
36.53, 1440.64, 0.0610941, NaN, NaN, NaN, 0.0335714, "- N/A -   "
36.54, 1441.23, 0.06111353, NaN, NaN, NaN, 0.0323506, "- N/A -   "
36.55, 1441.71, 0.0611302, NaN, NaN, NaN, 0.0323506, "- N/A -   "
36.56, 1442.19, 0.06114685, NaN, NaN, NaN, 0.0323506, "- N/A -   "
36.57, 1442.55, 0.06116351, NaN, NaN, NaN, 0.0335714, "- N/A -   "
36.58, 1443.02, 0.0611774, NaN, NaN, NaN, 0.0335714, "- N/A -   "
36.59, 1443.26, 0.06119406, NaN, NaN, NaN, 0.0335714, "- N/A -   "
36.6, 1443.86, 0.0612079, NaN, NaN, NaN, 0.0347922, "- N/A -   "
36.61, 1444.1, 0.0612246, NaN, NaN, NaN, 0.0347922, "- N/A -   "
36.62, 1444.57, 0.06124126, NaN, NaN, NaN, 0.03601294, "- N/A -   "
36.63, 1444.93, 0.06125792, NaN, NaN, NaN, 0.03601294, "- N/A -   "
36.64, 1445.41, 0.06127458, NaN, NaN, NaN, 0.0347922, "- N/A -   "
36.65, 1445.88, 0.0612912, NaN, NaN, NaN, 0.0347922, "- N/A -   "
36.66, 1446.24, 0.0613051, NaN, NaN, NaN, 0.03601294, "- N/A -   "
36.67, 1446.72, 0.0613246, NaN, NaN, NaN, 0.03601294, "- N/A -   "
36.68, 1447.08, 0.06133845, NaN, NaN, NaN, 0.03601294, "- N/A -   "
36.69, 1447.43, 0.06135511, NaN, NaN, NaN, 0.0372337, "- N/A -   "
36.7, 1447.79, 0.061369, NaN, NaN, NaN, 0.0372337, "- N/A -   "
36.71, 1448.27, 0.0613829, NaN, NaN, NaN, 0.0384545, "- N/A -   "
36.72, 1448.51, 0.06139676, NaN, NaN, NaN, 0.0396753, "- N/A -   "
36.73, 1448.99, 0.06141342, NaN, NaN, NaN, 0.04089605, "- N/A -   "
36.74, 1449.34, 0.0614273, NaN, NaN, NaN, 0.04089605, "- N/A -   "
36.75, 1449.82, 0.061444, NaN, NaN, NaN, 0.04089605, "- N/A -   "
36.76, 1450.18, 0.0614606, NaN, NaN, NaN, 0.04089605, "- N/A -   "
36.77, 1450.65, 0.06147451, NaN, NaN, NaN, 0.04211683, "- N/A -   "
36.78, 1451.13, 0.06149117, NaN, NaN, NaN, 0.04211683, "- N/A -   "
36.79, 1451.49, 0.06150783, NaN, NaN, NaN, 0.04211683, "- N/A -   "
36.8, 1451.85, 0.06152449, NaN, NaN, NaN, 0.04211683, "- N/A -   "
36.81, 1452.32, 0.0615439, NaN, NaN, NaN, 0.04211683, "- N/A -   "
36.82, 1452.8, 0.0615606, NaN, NaN, NaN, 0.04211683, "- N/A -   "
36.83, 1453.28, 0.06157725, NaN, NaN, NaN, 0.04211683, "- N/A -   "
36.84, 1453.76, 0.06159113, NaN, NaN, NaN, 0.04211683, "- N/A -   "
36.85, 1454.113, 0.06161057, NaN, NaN, NaN, 0.04211683, "- N/A -   "
36.86, 1454.59, 0.0616272, NaN, NaN, NaN, 0.04089605, "- N/A -   "
36.87, 1455.07, 0.0616467, NaN, NaN, NaN, 0.04089605, "- N/A -   "
36.88, 1455.66, 0.0616633, NaN, NaN, NaN, 0.0396753, "- N/A -   "
36.89, 1456.14, 0.0616828, NaN, NaN, NaN, 0.0384545, "- N/A -   "
36.9, 1456.74, 0.0617022, NaN, NaN, NaN, 0.0372337, "- N/A -   "
36.91, 1457.21, 0.06172164, NaN, NaN, NaN, 0.0372337, "- N/A -   "
36.92, 1457.57, 0.0617383, NaN, NaN, NaN, 0.0372337, "- N/A -   "
36.93, 1458.05, 0.06175218, NaN, NaN, NaN, 0.0372337, "- N/A -   "
36.94, 1458.41, 0.0617688, NaN, NaN, NaN, 0.0372337, "- N/A -   "
36.95, 1458.883, 0.0617855, NaN, NaN, NaN, 0.0372337, "- N/A -   "
36.96, 1459.36, 0.0618022, NaN, NaN, NaN, 0.0372337, "- N/A -   "
36.97, 1459.72, 0.0618216, NaN, NaN, NaN, 0.0372337, "- N/A -   "
36.98, 1460.195, 0.06183826, NaN, NaN, NaN, 0.03601294, "- N/A -   "
36.99, 1460.67, 0.06185492, NaN, NaN, NaN, 0.03601294, "- N/A -   "
37, 1461.15, 0.06187436, NaN, NaN, NaN, 0.03601294, "- N/A -   "
37.01, 1461.51, 0.06189102, NaN, NaN, NaN, 0.03601294, "- N/A -   "
37.02, 1461.98, 0.06190768, NaN, NaN, NaN, 0.03601294, "- N/A -   "
37.03, 1462.46, 0.0619216, NaN, NaN, NaN, 0.03601294, "- N/A -   "
37.04, 1462.82, 0.0619382, NaN, NaN, NaN, 0.03601294, "- N/A -   "
37.05, 1463.18, 0.0619549, NaN, NaN, NaN, 0.03601294, "- N/A -   "
37.06, 1463.65, 0.0619743, NaN, NaN, NaN, 0.03601294, "- N/A -   "
37.07, 1464.13, 0.061991, NaN, NaN, NaN, 0.03601294, "- N/A -   "
37.08, 1464.61, 0.0620076, NaN, NaN, NaN, 0.0347922, "- N/A -   "
37.09, 1465.08, 0.0620243, NaN, NaN, NaN, 0.0347922, "- N/A -   "
37.1, 1465.44, 0.0620437, NaN, NaN, NaN, 0.0347922, "- N/A -   "
37.11, 1465.919, 0.0620604, NaN, NaN, NaN, 0.0347922, "- N/A -   "
37.12, 1466.52, 0.0620771, NaN, NaN, NaN, 0.0347922, "- N/A -   "
37.13, 1466.87, 0.0620937, NaN, NaN, NaN, 0.0335714, "- N/A -   "
37.14, 1467.23, 0.0621104, NaN, NaN, NaN, 0.0347922, "- N/A -   "
37.15, 1467.71, 0.062127, NaN, NaN, NaN, 0.0335714, "- N/A -   "
37.16, 1468.07, 0.0621437, NaN, NaN, NaN, 0.0347922, "- N/A -   "
37.17, 1468.54, 0.0621576, NaN, NaN, NaN, 0.0347922, "- N/A -   "
37.18, 1469.02, 0.062177, NaN, NaN, NaN, 0.0347922, "- N/A -   "
37.19, 1469.5, 0.0621937, NaN, NaN, NaN, 0.0347922, "- N/A -   "
37.2, 1469.85, 0.0622103, NaN, NaN, NaN, 0.0347922, "- N/A -   "
37.21, 1470.33, 0.06222423, NaN, NaN, NaN, 0.0347922, "- N/A -   "
37.22, 1470.81, 0.0622409, NaN, NaN, NaN, 0.0347922, "- N/A -   "
37.23, 1471.166, 0.0622576, NaN, NaN, NaN, 0.0347922, "- N/A -   "
37.24, 1471.64, 0.0622742, NaN, NaN, NaN, 0.0347922, "- N/A -   "
37.25, 1471.88, 0.0622909, NaN, NaN, NaN, 0.0347922, "- N/A -   "
37.26, 1472.48, 0.0623075, NaN, NaN, NaN, 0.0347922, "- N/A -   "
37.27, 1472.95, 0.06232697, NaN, NaN, NaN, 0.0347922, "- N/A -   "
37.28, 1473.31, 0.06234363, NaN, NaN, NaN, 0.0347922, "- N/A -   "
37.29, 1473.79, 0.0623575, NaN, NaN, NaN, 0.0347922, "- N/A -   "
37.3, 1474.27, 0.0623742, NaN, NaN, NaN, 0.0347922, "- N/A -   "
37.31, 1474.62, 0.0623936, NaN, NaN, NaN, 0.0347922, "- N/A -   "
37.32, 1474.98, 0.0624075, NaN, NaN, NaN, 0.0347922, "- N/A -   "
37.33, 1475.46, 0.0624242, NaN, NaN, NaN, 0.0347922, "- N/A -   "
37.34, 1475.82, 0.062438, NaN, NaN, NaN, 0.03601294, "- N/A -   "
37.35, 1476.29, 0.0624547, NaN, NaN, NaN, 0.03601294, "- N/A -   "
37.36, 1476.65, 0.0624714, NaN, NaN, NaN, 0.03601294, "- N/A -   "
37.37, 1476.89, 0.0624852, NaN, NaN, NaN, 0.0372337, "- N/A -   "
37.38, 1477.37, 0.06250191, NaN, NaN, NaN, 0.0384545, "- N/A -   "
37.39, 1477.72, 0.06251579, NaN, NaN, NaN, 0.0396753, "- N/A -   "
37.4, 1477.96, 0.0625297, NaN, NaN, NaN, 0.04089605, "- N/A -   "
37.41, 1478.44, 0.0625436, NaN, NaN, NaN, 0.04089605, "- N/A -   "
37.42, 1478.8, 0.06256022, NaN, NaN, NaN, 0.04089605, "- N/A -   "
37.43, 1479.28, 0.0625741, NaN, NaN, NaN, 0.04211683, "- N/A -   "
37.44, 1479.63, 0.06259076, NaN, NaN, NaN, 0.04211683, "- N/A -   "
37.45, 1480.11, 0.06260742, NaN, NaN, NaN, 0.04211683, "- N/A -   "
37.46, 1480.71, 0.06262408, NaN, NaN, NaN, 0.04211683, "- N/A -   "
37.47, 1480.94, 0.06264352, NaN, NaN, NaN, 0.04089605, "- N/A -   "
37.48, 1481.541, 0.06266018, NaN, NaN, NaN, 0.04089605, "- N/A -   "
37.49, 1481.9, 0.06267684, NaN, NaN, NaN, 0.04211683, "- N/A -   "
37.5, 1482.26, 0.06269073, NaN, NaN, NaN, 0.04211683, "- N/A -   "
37.51, 1482.73, 0.06270739, NaN, NaN, NaN, 0.04211683, "- N/A -   "
37.52, 1483.09, 0.06272405, NaN, NaN, NaN, 0.04211683, "- N/A -   "
37.53, 1483.57, 0.0627407, NaN, NaN, NaN, 0.0433376, "- N/A -   "
37.54, 1484.05, 0.0627546, NaN, NaN, NaN, 0.0433376, "- N/A -   "
37.55, 1484.4, 0.06277125, NaN, NaN, NaN, 0.0433376, "- N/A -   "
37.56, 1485, 0.06279069, NaN, NaN, NaN, 0.04211683, "- N/A -   "
37.57, 1485.48, 0.06281013, NaN, NaN, NaN, 0.04211683, "- N/A -   "
37.58, 1485.95, 0.06282679, NaN, NaN, NaN, 0.04089605, "- N/A -   "
37.59, 1486.43, 0.06284345, NaN, NaN, NaN, 0.04089605, "- N/A -   "
37.6, 1486.79, 0.06286011, NaN, NaN, NaN, 0.04089605, "- N/A -   "
37.61, 1487.265, 0.06287955, NaN, NaN, NaN, 0.04089605, "- N/A -   "
37.62, 1487.74, 0.06289621, NaN, NaN, NaN, 0.0396753, "- N/A -   "
37.63, 1488.34, 0.06291287, NaN, NaN, NaN, 0.0396753, "- N/A -   "
37.64, 1488.696, 0.0629323, NaN, NaN, NaN, 0.0384545, "- N/A -   "
37.65, 1489.17, 0.062949, NaN, NaN, NaN, 0.0384545, "- N/A -   "
37.66, 1489.77, 0.06297118, NaN, NaN, NaN, 0.03601294, "- N/A -   "
37.67, 1490.25, 0.06299062, NaN, NaN, NaN, 0.0347922, "- N/A -   "
37.68, 1490.84, 0.06301005, NaN, NaN, NaN, 0.0335714, "- N/A -   "
37.69, 1491.32, 0.06302949, NaN, NaN, NaN, 0.0323506, "- N/A -   "
37.7, 1491.8, 0.06304615, NaN, NaN, NaN, 0.0323506, "- N/A -   "
37.71, 1492.15, 0.06306281, NaN, NaN, NaN, 0.0323506, "- N/A -   "
37.72, 1492.393, 0.0630767, NaN, NaN, NaN, 0.0335714, "- N/A -   "
37.73, 1492.87, 0.06309336, NaN, NaN, NaN, 0.0335714, "- N/A -   "
37.74, 1493.35, 0.06311002, NaN, NaN, NaN, 0.0335714, "- N/A -   "
37.75, 1493.7, 0.0631267, NaN, NaN, NaN, 0.0335714, "- N/A -   "
37.76, 1494.18, 0.0631433, NaN, NaN, NaN, 0.0335714, "- N/A -   "
37.77, 1494.66, 0.06316, NaN, NaN, NaN, 0.0335714, "- N/A -   "
37.78, 1495.02, 0.0631767, NaN, NaN, NaN, 0.0335714, "- N/A -   "
37.79, 1495.49, 0.06319054, NaN, NaN, NaN, 0.0347922, "- N/A -   "
37.8, 1495.85, 0.0632072, NaN, NaN, NaN, 0.0347922, "- N/A -   "
37.81, 1496.209, 0.06322386, NaN, NaN, NaN, 0.0347922, "- N/A -   "
37.82, 1496.69, 0.0632433, NaN, NaN, NaN, 0.0347922, "- N/A -   "
37.83, 1497.163, 0.06325996, NaN, NaN, NaN, 0.0335714, "- N/A -   "
37.84, 1497.64, 0.06327662, NaN, NaN, NaN, 0.0335714, "- N/A -   "
37.85, 1498, 0.0632933, NaN, NaN, NaN, 0.0335714, "- N/A -   "
37.86, 1498.47, 0.0633099, NaN, NaN, NaN, 0.0335714, "- N/A -   "
37.87, 1498.83, 0.0633266, NaN, NaN, NaN, 0.0347922, "- N/A -   "
37.88, 1499.43, 0.0633433, NaN, NaN, NaN, 0.0335714, "- N/A -   "
37.89, 1499.91, 0.0633627, NaN, NaN, NaN, 0.0323506, "- N/A -   "
37.9, 1500.38, 0.06338214, NaN, NaN, NaN, 0.0323506, "- N/A -   "
37.91, 1500.98, 0.0633988, NaN, NaN, NaN, 0.03112983, "- N/A -   "
37.92, 1501.34, 0.06341823, NaN, NaN, NaN, 0.0299091, "- N/A -   "
37.93, 1501.81, 0.06343767, NaN, NaN, NaN, 0.0299091, "- N/A -   "
37.94, 1502.29, 0.06345156, NaN, NaN, NaN, 0.0299091, "- N/A -   "
37.95, 1502.77, 0.063471, NaN, NaN, NaN, 0.0299091, "- N/A -   "
37.96, 1503.24, 0.06348766, NaN, NaN, NaN, 0.0299091, "- N/A -   "
37.97, 1503.6, 0.06350154, NaN, NaN, NaN, 0.03112983, "- N/A -   "
37.98, 1503.96, 0.0635154, NaN, NaN, NaN, 0.03112983, "- N/A -   "
37.99, 1504.44, 0.0635321, NaN, NaN, NaN, 0.0323506, "- N/A -   "
38, 1504.8, 0.06354874, NaN, NaN, NaN, 0.03112983, "- N/A -   "
38.01, 1505.15, 0.0635626, NaN, NaN, NaN, 0.0323506, "- N/A -   "
38.02, 1505.63, 0.06357928, NaN, NaN, NaN, 0.0323506, "- N/A -   "
38.03, 1505.99, 0.06359594, NaN, NaN, NaN, 0.0335714, "- N/A -   "
38.04, 1506.35, 0.06360983, NaN, NaN, NaN, 0.0335714, "- N/A -   "
38.05, 1506.82, 0.06362371, NaN, NaN, NaN, 0.0347922, "- N/A -   "
38.06, 1507.18, 0.06364038, NaN, NaN, NaN, 0.0347922, "- N/A -   "
38.07, 1507.42, 0.06365426, NaN, NaN, NaN, 0.0372337, "- N/A -   "
38.08, 1507.78, 0.06366814, NaN, NaN, NaN, 0.0372337, "- N/A -   "
38.09, 1508.25, 0.06368203, NaN, NaN, NaN, 0.0384545, "- N/A -   "
38.1, 1508.61, 0.06369591, NaN, NaN, NaN, 0.0396753, "- N/A -   "
38.11, 1508.85, 0.0637098, NaN, NaN, NaN, 0.04089605, "- N/A -   "
38.12, 1509.21, 0.0637237, NaN, NaN, NaN, 0.04211683, "- N/A -   "
38.13, 1509.68, 0.0637376, NaN, NaN, NaN, 0.0433376, "- N/A -   "
38.14, 1509.923, 0.0637514, NaN, NaN, NaN, 0.0445584, "- N/A -   "
38.15, 1510.28, 0.06376533, NaN, NaN, NaN, 0.04577916, "- N/A -   "
38.16, 1510.64, 0.06378199, NaN, NaN, NaN, 0.04699994, "- N/A -   "
38.17, 1511.12, 0.06379587, NaN, NaN, NaN, 0.0482207, "- N/A -   "
38.18, 1511.354, 0.06380975, NaN, NaN, NaN, 0.0482207, "- N/A -   "
38.19, 1511.831, 0.06382364, NaN, NaN, NaN, 0.0494415, "- N/A -   "
38.2, 1512.19, 0.06384308, NaN, NaN, NaN, 0.0494415, "- N/A -   "
38.21, 1512.785, 0.06385974, NaN, NaN, NaN, 0.0482207, "- N/A -   "
38.22, 1513.14, 0.0638764, NaN, NaN, NaN, 0.0482207, "- N/A -   "
38.23, 1513.62, 0.06389306, NaN, NaN, NaN, 0.0482207, "- N/A -   "
38.24, 1514.1, 0.0639125, NaN, NaN, NaN, 0.04699994, "- N/A -   "
38.245, 1514.34, 0.0639236, NaN, NaN, NaN, 0.04699994, "- N/A -   "