File: 2_Tensile_Data/Hamel_ForceTest_Bolt6_Test3.csv
Time, Load (lb), Position (in), AxialStrain (in), TransverseStrain (in), Auxiliary (), Control Out (V), Stress (psi)
0.0, 1.29742, 0.0, NaN, NaN, NaN, 0.104376, "- N/A -   "
0.01, 1.65126, 3.054427E-5, NaN, NaN, NaN, 0.103156, "- N/A -   "
0.02, 2.12305, 6.108854E-5, NaN, NaN, NaN, 0.09705182, "- N/A -   "
0.03, 2.476897, 8.885606E-5, NaN, NaN, NaN, 0.09094793, "- N/A -   "
0.04, 2.83074, 0.0001194, NaN, NaN, NaN, 0.08606482, "- N/A -   "
0.05, 3.30253, 0.000147168, NaN, NaN, NaN, 0.0799609, "- N/A -   "
0.06, 3.65637, 0.000172159, NaN, NaN, NaN, 0.0762986, "- N/A -   "
0.07, 4.010214, 0.000202703, NaN, NaN, NaN, 0.07141549, "- N/A -   "
0.08, 4.36406, 0.000224917, NaN, NaN, NaN, 0.06775316, "- N/A -   "
0.09, 4.717899, 0.000249908, NaN, NaN, NaN, 0.0640908, "- N/A -   "
0.1, 5.071741, 2.776752E-4, NaN, NaN, NaN, 0.0604285, "- N/A -   "
0.11, 5.54353, 0.000302666, NaN, NaN, NaN, 0.05676616, "- N/A -   "
0.12, 5.779426, 0.00032488, NaN, NaN, NaN, 0.0531038, "- N/A -   "
0.13, 6.251216, 0.000347094, NaN, NaN, NaN, 0.05066227, "- N/A -   "
0.14, 6.487111, 0.000366531, NaN, NaN, NaN, 0.0494415, "- N/A -   "
0.15, 6.723006, 0.000388745, NaN, NaN, NaN, 0.0482207, "- N/A -   "
0.16, 6.9589, 4.081825E-4, NaN, NaN, NaN, 0.04577916, "- N/A -   "
0.17, 7.312743, 0.000430397, NaN, NaN, NaN, 0.0445584, "- N/A -   "
0.18, 7.666586, 0.000449834, NaN, NaN, NaN, 0.04211683, "- N/A -   "
0.19, 8.020428, 4.720478E-4, NaN, NaN, NaN, 0.04089605, "- N/A -   "
0.2, 8.256323, 0.000491485, NaN, NaN, NaN, 0.0384545, "- N/A -   "
0.21, 8.610166, 5.136991E-4, NaN, NaN, NaN, 0.0372337, "- N/A -   "
0.22, 8.964007, 0.000533136, NaN, NaN, NaN, 0.03601294, "- N/A -   "
0.23, 9.199903, 0.000549797, NaN, NaN, NaN, 0.0347922, "- N/A -   "
0.24, 9.435798, 5.664574E-4, NaN, NaN, NaN, 0.0347922, "- N/A -   "
0.25, 9.78964, 5.858946E-4, NaN, NaN, NaN, 0.0347922, "- N/A -   "
0.26, 10.1435, 0.000602555, NaN, NaN, NaN, 0.0335714, "- N/A -   "
0.27, 10.26143, 6.219924E-4, NaN, NaN, NaN, 0.0335714, "- N/A -   "
0.28, 10.6153, 0.000638653, NaN, NaN, NaN, 0.0323506, "- N/A -   "
0.29, 10.8512, 0.000655313, NaN, NaN, NaN, 0.0323506, "- N/A -   "
0.3, 11.205, 6.747507E-4, NaN, NaN, NaN, 0.0323506, "- N/A -   "
0.31, 11.4409, 6.914112E-4, NaN, NaN, NaN, 0.03112983, "- N/A -   "
0.32, 11.6768, 7.080717E-4, NaN, NaN, NaN, 0.03112983, "- N/A -   "
0.33, 12.0306, 0.000724732, NaN, NaN, NaN, 0.03112983, "- N/A -   "
0.34, 12.2665, 7.413927E-4, NaN, NaN, NaN, 0.03112983, "- N/A -   "
0.35, 12.5024, 0.000758053, NaN, NaN, NaN, 0.0323506, "- N/A -   "
0.36, 12.6204, 7.71937E-4, NaN, NaN, NaN, 0.0323506, "- N/A -   "
0.37, 12.9742, 0.000785821, NaN, NaN, NaN, 0.0347922, "- N/A -   "
0.38, 13.09217, 7.997045E-4, NaN, NaN, NaN, 0.0347922, "- N/A -   "
0.39, 13.446, 8.16365E-4, NaN, NaN, NaN, 0.0347922, "- N/A -   "
0.4, 13.564, 8.302488E-4, NaN, NaN, NaN, 0.03601294, "- N/A -   "
0.41, 13.9178, 8.469093E-4, NaN, NaN, NaN, 0.0372337, "- N/A -   "
0.42, 14.1537, 0.000860793, NaN, NaN, NaN, 0.0372337, "- N/A -   "
0.43, 14.3896, 8.746768E-4, NaN, NaN, NaN, 0.0384545, "- N/A -   "
0.44, 14.5075, 0.000891337, NaN, NaN, NaN, 0.0384545, "- N/A -   "
0.45, 14.8614, 9.052211E-4, NaN, NaN, NaN, 0.0396753, "- N/A -   "
0.46, 15.0973, 9.218816E-4, NaN, NaN, NaN, 0.04089605, "- N/A -   "
0.47, 15.2152, 0.000935765, NaN, NaN, NaN, 0.04211683, "- N/A -   "
0.48, 15.5691, 0.000949649, NaN, NaN, NaN, 0.0433376, "- N/A -   "
0.49, 15.687, 9.635329E-4, NaN, NaN, NaN, 0.0445584, "- N/A -   "
0.5, 15.9229, 9.774166E-4, NaN, NaN, NaN, 0.0445584, "- N/A -   "
0.51, 16.27675, 9.940772E-4, NaN, NaN, NaN, 0.0445584, "- N/A -   "
0.52, 16.5126, 0.00100796, NaN, NaN, NaN, 0.04577916, "- N/A -   "
0.53, 16.74854, 0.0010274, NaN, NaN, NaN, 0.04577916, "- N/A -   "
0.54, 17.1024, 0.00104406, NaN, NaN, NaN, 0.0445584, "- N/A -   "
0.55, 17.3383, 0.00106072, NaN, NaN, NaN, 0.0445584, "- N/A -   "
0.56, 17.5742, 0.00107738, NaN, NaN, NaN, 0.0445584, "- N/A -   "
0.57, 17.8101, 0.00109404, NaN, NaN, NaN, 0.0445584, "- N/A -   "
0.58, 18.046, 0.0011107, NaN, NaN, NaN, 0.04577916, "- N/A -   "
0.59, 18.3998, 0.00112736, NaN, NaN, NaN, 0.04577916, "- N/A -   "
0.6, 18.6357, 0.00114402, NaN, NaN, NaN, 0.04577916, "- N/A -   "
0.61, 18.8716, 0.00116068, NaN, NaN, NaN, 0.04577916, "- N/A -   "
0.62, 19.2254, 0.001174566, NaN, NaN, NaN, 0.04577916, "- N/A -   "
0.63, 19.4613, 0.001194, NaN, NaN, NaN, 0.0445584, "- N/A -   "
0.64, 19.8152, 0.00121066, NaN, NaN, NaN, 0.0445584, "- N/A -   "
0.65, 20.169, 0.0012301, NaN, NaN, NaN, 0.0433376, "- N/A -   "
0.66, 20.4049, 0.00124676, NaN, NaN, NaN, 0.0433376, "- N/A -   "
0.67, 20.7588, 0.00126342, NaN, NaN, NaN, 0.0433376, "- N/A -   "
0.68, 21.1126, 0.00128286, NaN, NaN, NaN, 0.0433376, "- N/A -   "
0.69, 21.3485, 0.001296743, NaN, NaN, NaN, 0.0433376, "- N/A -   "
0.7, 21.5844, 0.00131618, NaN, NaN, NaN, 0.0433376, "- N/A -   "
0.71, 21.8203, 0.00133284, NaN, NaN, NaN, 0.04211683, "- N/A -   "
0.72, 22.1741, 0.00135228, NaN, NaN, NaN, 0.04089605, "- N/A -   "
0.73, 22.528, 0.00137172, NaN, NaN, NaN, 0.04089605, "- N/A -   "
0.74, 22.88181, 0.00138838, NaN, NaN, NaN, 0.0396753, "- N/A -   "
0.75, 23.1177, 0.00141059, NaN, NaN, NaN, 0.0372337, "- N/A -   "
0.76, 23.4715, 0.0014328, NaN, NaN, NaN, 0.03601294, "- N/A -   "
0.77, 23.82539, 0.00145224, NaN, NaN, NaN, 0.0347922, "- N/A -   "
0.78, 24.29718, 0.00147168, NaN, NaN, NaN, 0.0323506, "- N/A -   "
0.79, 24.769, 0.00149112, NaN, NaN, NaN, 0.03112983, "- N/A -   "
0.8, 25.0049, 0.001510553, NaN, NaN, NaN, 0.0299091, "- N/A -   "
0.81, 25.3587, 0.00152721, NaN, NaN, NaN, 0.0299091, "- N/A -   "
0.82, 25.5946, 0.00154665, NaN, NaN, NaN, 0.0286883, "- N/A -   "
0.83, 25.9484, 0.00156609, NaN, NaN, NaN, 0.0286883, "- N/A -   "
0.84, 26.18434, 0.00157997, NaN, NaN, NaN, 0.0286883, "- N/A -   "
0.85, 26.5382, 0.001599409, NaN, NaN, NaN, 0.0274675, "- N/A -   "
0.86, 26.892, 0.00161607, NaN, NaN, NaN, 0.0274675, "- N/A -   "
0.87, 27.1279, 0.00163273, NaN, NaN, NaN, 0.0274675, "- N/A -   "
0.88, 27.4818, 0.00164661, NaN, NaN, NaN, 0.0286883, "- N/A -   "
0.89, 27.8356, 0.00166327, NaN, NaN, NaN, 0.0299091, "- N/A -   "
0.9, 28.0715, 0.001677158, NaN, NaN, NaN, 0.0299091, "- N/A -   "
0.91, 28.3074, 0.00169382, NaN, NaN, NaN, 0.0299091, "- N/A -   "
0.92, 28.6612, 0.0017077, NaN, NaN, NaN, 0.03112983, "- N/A -   "
0.93, 28.89713, 0.00172436, NaN, NaN, NaN, 0.03112983, "- N/A -   "
0.94, 29.251, 0.00173825, NaN, NaN, NaN, 0.0323506, "- N/A -   "
0.95, 29.4869, 0.00175491, NaN, NaN, NaN, 0.0323506, "- N/A -   "
0.96, 29.7228, 0.00176879, NaN, NaN, NaN, 0.0335714, "- N/A -   "
0.97, 30.0766, 0.00178545, NaN, NaN, NaN, 0.0335714, "- N/A -   "
0.98, 30.4304, 0.001802112, NaN, NaN, NaN, 0.0335714, "- N/A -   "
0.99, 30.78429, 0.00181877, NaN, NaN, NaN, 0.0335714, "- N/A -   "
1, 31.0202, 0.001835433, NaN, NaN, NaN, 0.0335714, "- N/A -   "
1.01, 31.2561, 0.00184932, NaN, NaN, NaN, 0.0347922, "- N/A -   "
1.02, 31.6099, 0.0018632, NaN, NaN, NaN, 0.03601294, "- N/A -   "
1.03, 31.8458, 0.001879861, NaN, NaN, NaN, 0.0372337, "- N/A -   "
1.04, 32.1997, 0.00189374, NaN, NaN, NaN, 0.0372337, "- N/A -   "
1.05, 32.5535, 0.00191041, NaN, NaN, NaN, 0.0372337, "- N/A -   "
1.06, 32.7894, 0.00192707, NaN, NaN, NaN, 0.0372337, "- N/A -   "
1.07, 33.1432, 0.0019465, NaN, NaN, NaN, 0.0372337, "- N/A -   "
1.08, 33.49708, 0.00196316, NaN, NaN, NaN, 0.0372337, "- N/A -   "
1.09, 33.73298, 0.00197982, NaN, NaN, NaN, 0.03601294, "- N/A -   "
1.1, 34.08682, 0.00199371, NaN, NaN, NaN, 0.0372337, "- N/A -   "
1.11, 34.55861, 0.00201037, NaN, NaN, NaN, 0.0372337, "- N/A -   "
1.12, 34.6766, 0.00202703, NaN, NaN, NaN, 0.0372337, "- N/A -   "
1.13, 35.1483, 0.00204369, NaN, NaN, NaN, 0.0372337, "- N/A -   "
1.14, 35.3842, 0.00206035, NaN, NaN, NaN, 0.0372337, "- N/A -   "
1.15, 35.7381, 0.00207701, NaN, NaN, NaN, 0.0372337, "- N/A -   "
1.16, 36.0919, 0.002093671, NaN, NaN, NaN, 0.0384545, "- N/A -   "
1.17, 36.32782, 0.00210755, NaN, NaN, NaN, 0.0384545, "- N/A -   "
1.18, 36.6817, 0.00212422, NaN, NaN, NaN, 0.0384545, "- N/A -   "
1.19, 36.9176, 0.00214088, NaN, NaN, NaN, 0.0396753, "- N/A -   "
1.2, 37.2714, 0.00215476, NaN, NaN, NaN, 0.0396753, "- N/A -   "
1.21, 37.5073, 0.00217142, NaN, NaN, NaN, 0.04089605, "- N/A -   "
1.22, 37.8611, 0.0021853, NaN, NaN, NaN, 0.04089605, "- N/A -   "
1.23, 38.097, 0.00219919, NaN, NaN, NaN, 0.04211683, "- N/A -   "
1.24, 38.5688, 0.002213071, NaN, NaN, NaN, 0.0433376, "- N/A -   "
1.25, 38.68677, 0.00222973, NaN, NaN, NaN, 0.0433376, "- N/A -   "
1.26, 39.04061, 0.00224639, NaN, NaN, NaN, 0.0445584, "- N/A -   "
1.27, 39.2765, 0.002260276, NaN, NaN, NaN, 0.0445584, "- N/A -   "
1.28, 39.6304, 0.00227416, NaN, NaN, NaN, 0.04577916, "- N/A -   "
1.29, 39.98419, 0.00229082, NaN, NaN, NaN, 0.04577916, "- N/A -   "
1.3, 40.22009, 0.00230748, NaN, NaN, NaN, 0.04577916, "- N/A -   "
1.31, 40.69188, 0.002326918, NaN, NaN, NaN, 0.04577916, "- N/A -   "
1.32, 41.04572, 0.00234358, NaN, NaN, NaN, 0.0445584, "- N/A -   "
1.33, 41.39956, 0.002363016, NaN, NaN, NaN, 0.0433376, "- N/A -   "
1.34, 41.7534, 0.00238523, NaN, NaN, NaN, 0.04211683, "- N/A -   "
1.35, 42.2252, 0.00240467, NaN, NaN, NaN, 0.0396753, "- N/A -   "
1.36, 42.579, 0.0024241, NaN, NaN, NaN, 0.0396753, "- N/A -   "
1.37, 42.93288, 0.00244354, NaN, NaN, NaN, 0.0384545, "- N/A -   "
1.38, 43.2867, 0.0024602, NaN, NaN, NaN, 0.0372337, "- N/A -   "
1.39, 43.75851, 0.00247964, NaN, NaN, NaN, 0.03601294, "- N/A -   "
1.4, 44.1124, 0.00249908, NaN, NaN, NaN, 0.0347922, "- N/A -   "
1.41, 44.4662, 0.00251851, NaN, NaN, NaN, 0.0347922, "- N/A -   "
1.42, 44.82, 0.00253517, NaN, NaN, NaN, 0.0335714, "- N/A -   "
1.43, 45.29183, 0.00255461, NaN, NaN, NaN, 0.0323506, "- N/A -   "
1.44, 45.76362, 0.00257405, NaN, NaN, NaN, 0.0323506, "- N/A -   "
1.45, 45.9995, 0.00259349, NaN, NaN, NaN, 0.03112983, "- N/A -   "
1.46, 46.4713, 0.00261015, NaN, NaN, NaN, 0.0299091, "- N/A -   "
1.47, 46.7072, 0.002629584, NaN, NaN, NaN, 0.0299091, "- N/A -   "
1.48, 47.061, 0.002640691, NaN, NaN, NaN, 0.03112983, "- N/A -   "
1.49, 47.4149, 0.00265735, NaN, NaN, NaN, 0.03112983, "- N/A -   "
1.5, 47.65078, 0.00267401, NaN, NaN, NaN, 0.0323506, "- N/A -   "
1.51, 48.00462, 0.0026879, NaN, NaN, NaN, 0.0323506, "- N/A -   "
1.52, 48.2405, 0.00270456, NaN, NaN, NaN, 0.0323506, "- N/A -   "
1.53, 48.59436, 0.00272122, NaN, NaN, NaN, 0.0323506, "- N/A -   "
1.54, 48.9482, 0.0027351, NaN, NaN, NaN, 0.0335714, "- N/A -   "
1.55, 49.30204, 0.00274898, NaN, NaN, NaN, 0.0347922, "- N/A -   "
1.56, 49.5379, 0.00276287, NaN, NaN, NaN, 0.03601294, "- N/A -   "
1.57, 49.8918, 0.00277953, NaN, NaN, NaN, 0.03601294, "- N/A -   "
1.58, 50.1277, 0.002796189, NaN, NaN, NaN, 0.03601294, "- N/A -   "
1.59, 50.4815, 0.00281285, NaN, NaN, NaN, 0.03601294, "- N/A -   "
1.6, 50.9533, 0.00282951, NaN, NaN, NaN, 0.03601294, "- N/A -   "
1.61, 51.1892, 0.00284617, NaN, NaN, NaN, 0.03601294, "- N/A -   "
1.62, 51.66099, 0.00286283, NaN, NaN, NaN, 0.03601294, "- N/A -   "
1.63, 52.01483, 0.00288227, NaN, NaN, NaN, 0.03601294, "- N/A -   "
1.64, 52.25073, 0.002898929, NaN, NaN, NaN, 0.0347922, "- N/A -   "
1.65, 52.72252, 0.002918366, NaN, NaN, NaN, 0.0347922, "- N/A -   "
1.66, 53.0764, 0.00293503, NaN, NaN, NaN, 0.0347922, "- N/A -   "
1.67, 53.4302, 0.002951687, NaN, NaN, NaN, 0.0335714, "- N/A -   "
1.68, 53.784, 0.00297112, NaN, NaN, NaN, 0.0335714, "- N/A -   "
1.69, 54.2558, 0.002987785, NaN, NaN, NaN, 0.0323506, "- N/A -   "
1.7, 54.6097, 0.00300445, NaN, NaN, NaN, 0.0323506, "- N/A -   "
1.71, 54.8456, 0.003021106, NaN, NaN, NaN, 0.0323506, "- N/A -   "
1.72, 55.1994, 0.00303777, NaN, NaN, NaN, 0.0323506, "- N/A -   "
1.73, 55.55326, 0.00305165, NaN, NaN, NaN, 0.0335714, "- N/A -   "
1.74, 55.9071, 0.003065534, NaN, NaN, NaN, 0.0347922, "- N/A -   "
1.75, 56.02505, 0.00308219, NaN, NaN, NaN, 0.0347922, "- N/A -   "
1.76, 56.4968, 0.003098855, NaN, NaN, NaN, 0.03601294, "- N/A -   "
1.77, 56.85068, 0.003115516, NaN, NaN, NaN, 0.03601294, "- N/A -   "
1.78, 57.08658, 0.00313218, NaN, NaN, NaN, 0.03601294, "- N/A -   "
1.79, 57.44042, 0.00314606, NaN, NaN, NaN, 0.03601294, "- N/A -   "
1.8, 57.6763, 0.00315994, NaN, NaN, NaN, 0.0372337, "- N/A -   "
1.81, 58.0302, 0.00317383, NaN, NaN, NaN, 0.0384545, "- N/A -   "
1.82, 58.384, 0.003190488, NaN, NaN, NaN, 0.0384545, "- N/A -   "
1.83, 58.6199, 0.00320437, NaN, NaN, NaN, 0.0396753, "- N/A -   "
1.84, 59.0917, 0.00322103, NaN, NaN, NaN, 0.0396753, "- N/A -   "
1.85, 59.3276, 0.003234916, NaN, NaN, NaN, 0.04089605, "- N/A -   "
1.86, 59.68142, 0.00325158, NaN, NaN, NaN, 0.04211683, "- N/A -   "
1.87, 60.0353, 0.00326546, NaN, NaN, NaN, 0.04211683, "- N/A -   "
1.88, 60.3891, 0.0032849, NaN, NaN, NaN, 0.04089605, "- N/A -   "
1.89, 60.625, 0.003301558, NaN, NaN, NaN, 0.04089605, "- N/A -   "
1.9, 60.97884, 0.00331822, NaN, NaN, NaN, 0.04089605, "- N/A -   "
1.91, 61.3327, 0.00333488, NaN, NaN, NaN, 0.04089605, "- N/A -   "
1.92, 61.6865, 0.00335154, NaN, NaN, NaN, 0.04089605, "- N/A -   "
1.93, 62.1583, 0.003370977, NaN, NaN, NaN, 0.04089605, "- N/A -   "
1.94, 62.5122, 0.00338764, NaN, NaN, NaN, 0.0396753, "- N/A -   "
1.95, 62.866, 0.003404298, NaN, NaN, NaN, 0.0396753, "- N/A -   "
1.96, 63.1019, 0.00342096, NaN, NaN, NaN, 0.0396753, "- N/A -   "
1.97, 63.45574, 0.00343484, NaN, NaN, NaN, 0.04089605, "- N/A -   "
1.98, 63.80958, 0.00345428, NaN, NaN, NaN, 0.04089605, "- N/A -   "
1.99, 64.28137, 0.00347094, NaN, NaN, NaN, 0.0396753, "- N/A -   "
2, 64.6352, 0.0034876, NaN, NaN, NaN, 0.0396753, "- N/A -   "
2.01, 64.98906, 0.00350704, NaN, NaN, NaN, 0.0396753, "- N/A -   "
2.02, 65.4608, 0.003526475, NaN, NaN, NaN, 0.0384545, "- N/A -   "
2.03, 65.81469, 0.00354314, NaN, NaN, NaN, 0.0384545, "- N/A -   "
2.04, 66.16853, 0.0035598, NaN, NaN, NaN, 0.0372337, "- N/A -   "
2.05, 66.64032, 0.00357646, NaN, NaN, NaN, 0.0372337, "- N/A -   "
2.06, 66.99416, 0.00359589, NaN, NaN, NaN, 0.0372337, "- N/A -   "
2.07, 67.23006, 0.00361255, NaN, NaN, NaN, 0.0372337, "- N/A -   "
2.08, 67.5839, 0.00362921, NaN, NaN, NaN, 0.0372337, "- N/A -   "
2.09, 67.81979, 0.0036431, NaN, NaN, NaN, 0.0372337, "- N/A -   "
2.1, 68.17364, 0.00365976, NaN, NaN, NaN, 0.0372337, "- N/A -   "
2.11, 68.52748, 0.00367642, NaN, NaN, NaN, 0.0372337, "- N/A -   "
2.12, 68.8813, 0.00369308, NaN, NaN, NaN, 0.0372337, "- N/A -   "
2.13, 69.35311, 0.00370974, NaN, NaN, NaN, 0.0384545, "- N/A -   "
2.14, 69.707, 0.0037264, NaN, NaN, NaN, 0.0372337, "- N/A -   "
2.15, 70.0608, 0.00374306, NaN, NaN, NaN, 0.0384545, "- N/A -   "
2.16, 70.29669, 0.00375972, NaN, NaN, NaN, 0.0384545, "- N/A -   "
2.17, 70.7685, 0.00377361, NaN, NaN, NaN, 0.0384545, "- N/A -   "
2.18, 71.12233, 0.00379027, NaN, NaN, NaN, 0.0384545, "- N/A -   "
2.19, 71.3582, 0.0038097, NaN, NaN, NaN, 0.0384545, "- N/A -   "
2.2, 71.83001, 0.00382636, NaN, NaN, NaN, 0.0384545, "- N/A -   "
2.21, 72.1838, 0.00384302, NaN, NaN, NaN, 0.0372337, "- N/A -   "
2.22, 72.5377, 0.00385969, NaN, NaN, NaN, 0.0372337, "- N/A -   "
2.23, 73.12743, 0.00387912, NaN, NaN, NaN, 0.03601294, "- N/A -   "
2.24, 73.48127, 0.00389856, NaN, NaN, NaN, 0.0347922, "- N/A -   "
2.25, 73.83511, 0.003917997, NaN, NaN, NaN, 0.0347922, "- N/A -   "
2.26, 74.189, 0.00393466, NaN, NaN, NaN, 0.0335714, "- N/A -   "
2.27, 74.66075, 0.00395687, NaN, NaN, NaN, 0.0323506, "- N/A -   "
2.28, 75.0146, 0.00397076, NaN, NaN, NaN, 0.0323506, "- N/A -   "
2.29, 75.36844, 0.00398742, NaN, NaN, NaN, 0.0323506, "- N/A -   "
2.3, 75.6043, 0.004006853, NaN, NaN, NaN, 0.0323506, "- N/A -   "
2.31, 76.19407, 0.00402351, NaN, NaN, NaN, 0.03112983, "- N/A -   "
2.32, 76.43, 0.00404017, NaN, NaN, NaN, 0.03112983, "- N/A -   "
2.33, 76.7838, 0.00405683, NaN, NaN, NaN, 0.0323506, "- N/A -   "
2.34, 77.13765, 0.00407072, NaN, NaN, NaN, 0.0323506, "- N/A -   "
2.35, 77.37354, 0.00409016, NaN, NaN, NaN, 0.0323506, "- N/A -   "
2.36, 77.84533, 0.00410404, NaN, NaN, NaN, 0.0323506, "- N/A -   "
2.37, 78.19917, 0.0041207, NaN, NaN, NaN, 0.0323506, "- N/A -   "
2.38, 78.4351, 0.00413736, NaN, NaN, NaN, 0.0323506, "- N/A -   "
2.39, 78.90686, 0.004154021, NaN, NaN, NaN, 0.0323506, "- N/A -   "
2.4, 79.14275, 0.0041679, NaN, NaN, NaN, 0.0335714, "- N/A -   "
2.41, 79.4966, 0.004184565, NaN, NaN, NaN, 0.0347922, "- N/A -   "
2.42, 79.85043, 0.00419845, NaN, NaN, NaN, 0.0347922, "- N/A -   "
2.43, 80.0863, 0.00421511, NaN, NaN, NaN, 0.0347922, "- N/A -   "
2.44, 80.44018, 0.00423177, NaN, NaN, NaN, 0.0347922, "- N/A -   "
2.45, 80.912, 0.00424843, NaN, NaN, NaN, 0.0347922, "- N/A -   "
2.46, 81.14786, 0.004265091, NaN, NaN, NaN, 0.0347922, "- N/A -   "
2.47, 81.5017, 0.00428175, NaN, NaN, NaN, 0.0347922, "- N/A -   "
2.48, 82.09144, 0.004298412, NaN, NaN, NaN, 0.0347922, "- N/A -   "
2.49, 82.20939, 0.00431507, NaN, NaN, NaN, 0.0347922, "- N/A -   "
2.5, 82.68118, 0.004328956, NaN, NaN, NaN, 0.03601294, "- N/A -   "
2.51, 83.03502, 0.004345617, NaN, NaN, NaN, 0.03601294, "- N/A -   "
2.52, 83.27091, 0.00436228, NaN, NaN, NaN, 0.03601294, "- N/A -   "
2.53, 83.74271, 0.00437894, NaN, NaN, NaN, 0.0372337, "- N/A -   "
2.54, 84.09654, 0.004395598, NaN, NaN, NaN, 0.0372337, "- N/A -   "
2.55, 84.45039, 0.004412259, NaN, NaN, NaN, 0.0372337, "- N/A -   "
2.56, 84.80424, 0.00442614, NaN, NaN, NaN, 0.0372337, "- N/A -   "
2.57, 85.04012, 0.004442803, NaN, NaN, NaN, 0.0372337, "- N/A -   "
2.58, 85.51192, 0.00445946, NaN, NaN, NaN, 0.0372337, "- N/A -   "
2.59, 85.86576, 0.004476124, NaN, NaN, NaN, 0.0372337, "- N/A -   "
2.6, 86.2196, 0.004492785, NaN, NaN, NaN, 0.0372337, "- N/A -   "
2.61, 86.57345, 0.004509445, NaN, NaN, NaN, 0.0372337, "- N/A -   "
2.62, 86.92729, 0.00452611, NaN, NaN, NaN, 0.0384545, "- N/A -   "
2.63, 87.28113, 0.004539989, NaN, NaN, NaN, 0.0384545, "- N/A -   "
2.64, 87.51702, 0.004553873, NaN, NaN, NaN, 0.0396753, "- N/A -   "
2.65, 87.8709, 0.004567757, NaN, NaN, NaN, 0.04089605, "- N/A -   "
2.66, 88.10676, 0.004584417, NaN, NaN, NaN, 0.04211683, "- N/A -   "
2.67, 88.4606, 0.004598301, NaN, NaN, NaN, 0.04211683, "- N/A -   "
2.68, 88.9324, 0.004612185, NaN, NaN, NaN, 0.0433376, "- N/A -   "
2.69, 89.16828, 0.004628845, NaN, NaN, NaN, 0.0445584, "- N/A -   "
2.7, 89.52213, 0.004642729, NaN, NaN, NaN, 0.0445584, "- N/A -   "
2.71, 89.87598, 0.00465939, NaN, NaN, NaN, 0.0445584, "- N/A -   "
2.72, 90.22981, 0.00467605, NaN, NaN, NaN, 0.0445584, "- N/A -   "
2.73, 90.70161, 0.004695487, NaN, NaN, NaN, 0.0433376, "- N/A -   "
2.74, 91.05545, 0.00471492, NaN, NaN, NaN, 0.04211683, "- N/A -   "
2.75, 91.40929, 0.004734362, NaN, NaN, NaN, 0.04211683, "- N/A -   "
2.76, 91.88108, 0.004751022, NaN, NaN, NaN, 0.04089605, "- N/A -   "
2.77, 92.35287, 0.00477324, NaN, NaN, NaN, 0.0396753, "- N/A -   "
2.78, 92.82466, 0.00479267, NaN, NaN, NaN, 0.0372337, "- N/A -   "
2.79, 93.2965, 0.004812111, NaN, NaN, NaN, 0.03601294, "- N/A -   "
2.8, 93.65029, 0.00483155, NaN, NaN, NaN, 0.0347922, "- N/A -   "
2.81, 94.1221, 0.00485099, NaN, NaN, NaN, 0.0335714, "- N/A -   "
2.82, 94.47592, 0.004870422, NaN, NaN, NaN, 0.0323506, "- N/A -   "
2.83, 94.9477, 0.00488986, NaN, NaN, NaN, 0.0323506, "- N/A -   "
2.84, 95.30156, 0.00490652, NaN, NaN, NaN, 0.03112983, "- N/A -   "
2.85, 95.5374, 0.004923181, NaN, NaN, NaN, 0.0323506, "- N/A -   "
2.86, 96.00924, 0.00493706, NaN, NaN, NaN, 0.0323506, "- N/A -   "
2.87, 96.36309, 0.00495373, NaN, NaN, NaN, 0.0323506, "- N/A -   "
2.88, 96.599, 0.004970385, NaN, NaN, NaN, 0.0335714, "- N/A -   "
2.89, 97.07077, 0.004987046, NaN, NaN, NaN, 0.0335714, "- N/A -   "
2.9, 97.30666, 0.00500371, NaN, NaN, NaN, 0.0335714, "- N/A -   "
2.91, 97.54256, 0.00501759, NaN, NaN, NaN, 0.0335714, "- N/A -   "
2.92, 97.8964, 0.00503147, NaN, NaN, NaN, 0.0347922, "- N/A -   "
2.93, 98.2502, 0.00504813, NaN, NaN, NaN, 0.03601294, "- N/A -   "
2.94, 98.60408, 0.00506202, NaN, NaN, NaN, 0.03601294, "- N/A -   "
2.95, 98.9579, 0.005075902, NaN, NaN, NaN, 0.0372337, "- N/A -   "
2.96, 99.3118, 0.00509534, NaN, NaN, NaN, 0.03601294, "- N/A -   "
2.97, 99.66561, 0.00511478, NaN, NaN, NaN, 0.03601294, "- N/A -   "
2.98, 100.019, 0.00513144, NaN, NaN, NaN, 0.0347922, "- N/A -   "
2.99, 100.491, 0.0051481, NaN, NaN, NaN, 0.0347922, "- N/A -   "
3, 100.845, 0.005167535, NaN, NaN, NaN, 0.0347922, "- N/A -   "
3.01, 101.199, 0.0051842, NaN, NaN, NaN, 0.0335714, "- N/A -   "
3.02, 101.553, 0.00520363, NaN, NaN, NaN, 0.0323506, "- N/A -   "
3.03, 101.907, 0.00522307, NaN, NaN, NaN, 0.0323506, "- N/A -   "
3.04, 102.3784, 0.00524251, NaN, NaN, NaN, 0.03112983, "- N/A -   "
3.05, 102.85, 0.005259168, NaN, NaN, NaN, 0.0299091, "- N/A -   "
3.06, 103.322, 0.00527583, NaN, NaN, NaN, 0.0299091, "- N/A -   "
3.07, 103.558, 0.00529249, NaN, NaN, NaN, 0.0299091, "- N/A -   "
3.08, 103.912, 0.00530915, NaN, NaN, NaN, 0.0299091, "- N/A -   "
3.09, 104.266, 0.00532581, NaN, NaN, NaN, 0.0299091, "- N/A -   "
3.1, 104.737, 0.005345247, NaN, NaN, NaN, 0.0299091, "- N/A -   "
3.11, 105.091, 0.005359131, NaN, NaN, NaN, 0.0299091, "- N/A -   "
3.12, 105.327, 0.00537579, NaN, NaN, NaN, 0.0299091, "- N/A -   "
3.13, 105.681, 0.005392452, NaN, NaN, NaN, 0.03112983, "- N/A -   "
3.14, 106.035, 0.00540911, NaN, NaN, NaN, 0.03112983, "- N/A -   "
3.15, 106.389, 0.005423, NaN, NaN, NaN, 0.0323506, "- N/A -   "
3.16, 106.625, 0.00543688, NaN, NaN, NaN, 0.0323506, "- N/A -   "
3.17, 106.86, 0.00545076, NaN, NaN, NaN, 0.0335714, "- N/A -   "
3.18, 107.214, 0.00546742, NaN, NaN, NaN, 0.0347922, "- N/A -   "
3.19, 107.686, 0.005481308, NaN, NaN, NaN, 0.0347922, "- N/A -   "
3.2, 107.804, 0.00549519, NaN, NaN, NaN, 0.03601294, "- N/A -   "
3.21, 108.158, 0.00550908, NaN, NaN, NaN, 0.0372337, "- N/A -   "
3.22, 108.394, 0.00552296, NaN, NaN, NaN, 0.0384545, "- N/A -   "
3.23, 108.748, 0.00553684, NaN, NaN, NaN, 0.0396753, "- N/A -   "
3.24, 108.983, 0.005550727, NaN, NaN, NaN, 0.04089605, "- N/A -   "
3.25, 109.3373, 0.00556739, NaN, NaN, NaN, 0.04089605, "- N/A -   "
3.26, 109.691, 0.005581271, NaN, NaN, NaN, 0.04211683, "- N/A -   "
3.27, 109.927, 0.005597932, NaN, NaN, NaN, 0.04211683, "- N/A -   "
3.28, 110.281, 0.00561182, NaN, NaN, NaN, 0.0433376, "- N/A -   "
3.29, 110.517, 0.0056257, NaN, NaN, NaN, 0.0445584, "- N/A -   "
3.3, 110.989, 0.00564236, NaN, NaN, NaN, 0.0445584, "- N/A -   "
3.31, 111.342, 0.00565902, NaN, NaN, NaN, 0.04577916, "- N/A -   "
3.32, 111.696, 0.0056729, NaN, NaN, NaN, 0.04577916, "- N/A -   "
3.33, 111.932, 0.005692341, NaN, NaN, NaN, 0.04577916, "- N/A -   "
3.34, 112.404, 0.005709002, NaN, NaN, NaN, 0.04577916, "- N/A -   "
3.35, 112.64, 0.00572566, NaN, NaN, NaN, 0.04577916, "- N/A -   "
3.36, 112.994, 0.00574232, NaN, NaN, NaN, 0.0445584, "- N/A -   "
3.37, 113.465, 0.00576176, NaN, NaN, NaN, 0.0445584, "- N/A -   "
3.38, 113.819, 0.00577842, NaN, NaN, NaN, 0.0445584, "- N/A -   "
3.39, 114.2911, 0.005797858, NaN, NaN, NaN, 0.0433376, "- N/A -   "
3.4, 114.645, 0.005817295, NaN, NaN, NaN, 0.04089605, "- N/A -   "
3.41, 115.117, 0.005836732, NaN, NaN, NaN, 0.0396753, "- N/A -   "
3.42, 115.471, 0.00585339, NaN, NaN, NaN, 0.0396753, "- N/A -   "
3.43, 115.824, 0.00587283, NaN, NaN, NaN, 0.0384545, "- N/A -   "
3.44, 116.178, 0.005892267, NaN, NaN, NaN, 0.0384545, "- N/A -   "
3.45, 116.65, 0.005908928, NaN, NaN, NaN, 0.0372337, "- N/A -   "
3.46, 116.886, 0.00592559, NaN, NaN, NaN, 0.0372337, "- N/A -   "
3.47, 117.358, 0.005945026, NaN, NaN, NaN, 0.0372337, "- N/A -   "
3.48, 117.83, 0.005961686, NaN, NaN, NaN, 0.03601294, "- N/A -   "
3.49, 118.183, 0.005981123, NaN, NaN, NaN, 0.03601294, "- N/A -   "
3.5, 118.419, 0.005997784, NaN, NaN, NaN, 0.0347922, "- N/A -   "
3.51, 118.891, 0.006014444, NaN, NaN, NaN, 0.03601294, "- N/A -   "
3.52, 119.245, 0.006031105, NaN, NaN, NaN, 0.03601294, "- N/A -   "
3.53, 119.481, 0.00604777, NaN, NaN, NaN, 0.03601294, "- N/A -   "
3.54, 119.835, 0.006064426, NaN, NaN, NaN, 0.0372337, "- N/A -   "
3.55, 120.188, 0.006081086, NaN, NaN, NaN, 0.03601294, "- N/A -   "
3.56, 120.542, 0.006097747, NaN, NaN, NaN, 0.03601294, "- N/A -   "
3.57, 120.896, 0.006117184, NaN, NaN, NaN, 0.03601294, "- N/A -   "
3.58, 121.25, 0.006133845, NaN, NaN, NaN, 0.0347922, "- N/A -   "
3.59, 121.604, 0.00615328, NaN, NaN, NaN, 0.0347922, "- N/A -   "
3.6, 122.076, 0.006169942, NaN, NaN, NaN, 0.0335714, "- N/A -   "
3.61, 122.429, 0.00618938, NaN, NaN, NaN, 0.0323506, "- N/A -   "
3.62, 122.901, 0.006208817, NaN, NaN, NaN, 0.03112983, "- N/A -   "
3.63, 123.255, 0.006228254, NaN, NaN, NaN, 0.0299091, "- N/A -   "
3.64, 123.491, 0.006244915, NaN, NaN, NaN, 0.0299091, "- N/A -   "
3.65, 123.845, 0.006261575, NaN, NaN, NaN, 0.0299091, "- N/A -   "
3.66, 124.199, 0.006281012, NaN, NaN, NaN, 0.0286883, "- N/A -   "
3.67, 124.67, 0.006297673, NaN, NaN, NaN, 0.0286883, "- N/A -   "
3.68, 125.024, 0.00631711, NaN, NaN, NaN, 0.0274675, "- N/A -   "
3.69, 125.26, 0.006333771, NaN, NaN, NaN, 0.0274675, "- N/A -   "
3.7, 125.614, 0.006350431, NaN, NaN, NaN, 0.0274675, "- N/A -   "
3.71, 125.9679, 0.006367092, NaN, NaN, NaN, 0.0274675, "- N/A -   "
3.72, 126.44, 0.006386529, NaN, NaN, NaN, 0.0262467, "- N/A -   "
3.73, 126.676, 0.006400413, NaN, NaN, NaN, 0.0274675, "- N/A -   "
3.74, 127.029, 0.00641707, NaN, NaN, NaN, 0.0286883, "- N/A -   "
3.75, 127.265, 0.006430957, NaN, NaN, NaN, 0.0286883, "- N/A -   "
3.76, 127.619, 0.00644762, NaN, NaN, NaN, 0.0299091, "- N/A -   "
3.77, 127.855, 0.00645872, NaN, NaN, NaN, 0.03112983, "- N/A -   "
3.78, 128.091, 0.00647261, NaN, NaN, NaN, 0.0335714, "- N/A -   "
3.79, 128.327, 0.006486492, NaN, NaN, NaN, 0.0347922, "- N/A -   "
3.8, 128.563, 0.006500376, NaN, NaN, NaN, 0.0347922, "- N/A -   "
3.81, 128.917, 0.00651426, NaN, NaN, NaN, 0.03601294, "- N/A -   "
3.82, 129.152, 0.00652814, NaN, NaN, NaN, 0.0372337, "- N/A -   "
3.83, 129.388, 0.00654203, NaN, NaN, NaN, 0.0384545, "- N/A -   "
3.84, 129.624, 0.006555911, NaN, NaN, NaN, 0.0396753, "- N/A -   "
3.85, 129.86, 0.006569795, NaN, NaN, NaN, 0.04089605, "- N/A -   "
3.86, 130.096, 0.00658368, NaN, NaN, NaN, 0.0433376, "- N/A -   "
3.87, 130.332, 0.00659479, NaN, NaN, NaN, 0.0445584, "- N/A -   "
3.88, 130.568, 0.006608669, NaN, NaN, NaN, 0.04577916, "- N/A -   "
3.89, 130.922, 0.00662533, NaN, NaN, NaN, 0.04577916, "- N/A -   "
3.9, 131.1576, 0.00664199, NaN, NaN, NaN, 0.04699994, "- N/A -   "
3.91, 131.511, 0.006655874, NaN, NaN, NaN, 0.04699994, "- N/A -   "
3.92, 131.865, 0.00667253, NaN, NaN, NaN, 0.04699994, "- N/A -   "
3.93, 132.219, 0.00669197, NaN, NaN, NaN, 0.04699994, "- N/A -   "
3.94, 132.455, 0.006708632, NaN, NaN, NaN, 0.04577916, "- N/A -   "
3.95, 132.9268, 0.00672807, NaN, NaN, NaN, 0.0445584, "- N/A -   "
3.96, 133.281, 0.006747507, NaN, NaN, NaN, 0.0445584, "- N/A -   "
3.97, 133.634, 0.00676417, NaN, NaN, NaN, 0.0445584, "- N/A -   "
3.98, 133.752, 0.00678083, NaN, NaN, NaN, 0.0433376, "- N/A -   "
3.99, 134.224, 0.00679749, NaN, NaN, NaN, 0.0433376, "- N/A -   "
4, 134.46, 0.00681693, NaN, NaN, NaN, 0.0433376, "- N/A -   "
4.01, 134.814, 0.00683081, NaN, NaN, NaN, 0.0433376, "- N/A -   "
4.02, 135.05, 0.00684747, NaN, NaN, NaN, 0.0445584, "- N/A -   "
4.03, 135.286, 0.00686135, NaN, NaN, NaN, 0.0445584, "- N/A -   "
4.04, 135.64, 0.006878014, NaN, NaN, NaN, 0.0445584, "- N/A -   "
4.05, 135.993, 0.00689745, NaN, NaN, NaN, 0.0445584, "- N/A -   "
4.06, 136.229, 0.00691411, NaN, NaN, NaN, 0.0433376, "- N/A -   "
4.07, 136.583, 0.00693077, NaN, NaN, NaN, 0.0433376, "- N/A -   "
4.08, 136.937, 0.00695021, NaN, NaN, NaN, 0.04211683, "- N/A -   "
4.09, 137.173, 0.00696965, NaN, NaN, NaN, 0.04211683, "- N/A -   "
4.1, 137.6447, 0.00698631, NaN, NaN, NaN, 0.04089605, "- N/A -   "
4.11, 137.999, 0.00700574, NaN, NaN, NaN, 0.0396753, "- N/A -   "
4.12, 138.352, 0.00702518, NaN, NaN, NaN, 0.0396753, "- N/A -   "
4.13, 138.706, 0.00704184, NaN, NaN, NaN, 0.0384545, "- N/A -   "
4.14, 139.06, 0.00706128, NaN, NaN, NaN, 0.0372337, "- N/A -   "
4.15, 139.414, 0.00708072, NaN, NaN, NaN, 0.03601294, "- N/A -   "
4.16, 139.768, 0.00710293, NaN, NaN, NaN, 0.0335714, "- N/A -   "
4.17, 140.1216, 0.00712237, NaN, NaN, NaN, 0.0323506, "- N/A -   "
4.18, 140.593, 0.00714181, NaN, NaN, NaN, 0.03112983, "- N/A -   "
4.19, 140.947, 0.007161243, NaN, NaN, NaN, 0.0299091, "- N/A -   "
4.2, 141.183, 0.00718068, NaN, NaN, NaN, 0.0286883, "- N/A -   "
4.21, 141.6549, 0.00720012, NaN, NaN, NaN, 0.0286883, "- N/A -   "
4.22, 141.891, 0.00721678, NaN, NaN, NaN, 0.0274675, "- N/A -   "
4.23, 142.245, 0.00723344, NaN, NaN, NaN, 0.0274675, "- N/A -   "
4.24, 142.5985, 0.007250099, NaN, NaN, NaN, 0.0274675, "- N/A -   "
4.25, 142.716, 0.00726676, NaN, NaN, NaN, 0.0274675, "- N/A -   "
4.26, 143.07, 0.00728342, NaN, NaN, NaN, 0.0274675, "- N/A -   "
4.27, 143.306, 0.0072973, NaN, NaN, NaN, 0.0286883, "- N/A -   "
4.28, 143.542, 0.00731674, NaN, NaN, NaN, 0.0274675, "- N/A -   "
4.29, 144.014, 0.0073334, NaN, NaN, NaN, 0.0274675, "- N/A -   "
4.3, 144.132, 0.00734729, NaN, NaN, NaN, 0.0286883, "- N/A -   "
4.31, 144.486, 0.00736395, NaN, NaN, NaN, 0.0299091, "- N/A -   "
4.32, 144.722, 0.00737783, NaN, NaN, NaN, 0.0299091, "- N/A -   "
4.33, 144.957, 0.00739449, NaN, NaN, NaN, 0.03112983, "- N/A -   "
4.34, 145.311, 0.007408374, NaN, NaN, NaN, 0.03112983, "- N/A -   "
4.35, 145.429, 0.00742226, NaN, NaN, NaN, 0.0323506, "- N/A -   "
4.36, 145.783, 0.007438918, NaN, NaN, NaN, 0.0323506, "- N/A -   "
4.37, 146.019, 0.007452802, NaN, NaN, NaN, 0.0335714, "- N/A -   "
4.38, 146.3728, 0.00746946, NaN, NaN, NaN, 0.0335714, "- N/A -   "
4.39, 146.727, 0.00748612, NaN, NaN, NaN, 0.0335714, "- N/A -   "
4.4, 146.963, 0.007500007, NaN, NaN, NaN, 0.0347922, "- N/A -   "
4.41, 147.198, 0.007516667, NaN, NaN, NaN, 0.0347922, "- N/A -   "
4.42, 147.552, 0.00753333, NaN, NaN, NaN, 0.03601294, "- N/A -   "
4.43, 147.788, 0.007547212, NaN, NaN, NaN, 0.03601294, "- N/A -   "
4.44, 148.142, 0.007566649, NaN, NaN, NaN, 0.03601294, "- N/A -   "
4.45, 148.378, 0.00758053, NaN, NaN, NaN, 0.03601294, "- N/A -   "
4.46, 148.6138, 0.007597193, NaN, NaN, NaN, 0.03601294, "- N/A -   "
4.47, 148.968, 0.00761385, NaN, NaN, NaN, 0.03601294, "- N/A -   "
4.48, 149.3215, 0.007630514, NaN, NaN, NaN, 0.03601294, "- N/A -   "
4.49, 149.675, 0.007649951, NaN, NaN, NaN, 0.03601294, "- N/A -   "
4.5, 149.793, 0.007663835, NaN, NaN, NaN, 0.03601294, "- N/A -   "
4.51, 150.147, 0.0076805, NaN, NaN, NaN, 0.03601294, "- N/A -   "
4.52, 150.383, 0.007697156, NaN, NaN, NaN, 0.03601294, "- N/A -   "
4.53, 150.855, 0.00771382, NaN, NaN, NaN, 0.03601294, "- N/A -   "
4.54, 151.091, 0.007730477, NaN, NaN, NaN, 0.03601294, "- N/A -   "
4.55, 151.327, 0.00774436, NaN, NaN, NaN, 0.0372337, "- N/A -   "
4.56, 151.5625, 0.007758245, NaN, NaN, NaN, 0.0384545, "- N/A -   "
4.57, 151.798, 0.007772128, NaN, NaN, NaN, 0.0396753, "- N/A -   "
4.58, 152.034, 0.00778601, NaN, NaN, NaN, 0.04089605, "- N/A -   "
4.59, 152.27, 0.00780267, NaN, NaN, NaN, 0.04211683, "- N/A -   "
4.6, 152.506, 0.007816556, NaN, NaN, NaN, 0.0433376, "- N/A -   "
4.61, 152.86, 0.00783044, NaN, NaN, NaN, 0.0433376, "- N/A -   "
4.62, 153.096, 0.0078471, NaN, NaN, NaN, 0.0433376, "- N/A -   "
4.63, 153.45, 0.007863761, NaN, NaN, NaN, 0.0433376, "- N/A -   "
4.64, 153.568, 0.007880422, NaN, NaN, NaN, 0.0433376, "- N/A -   "
4.65, 153.921, 0.00789431, NaN, NaN, NaN, 0.0445584, "- N/A -   "
4.66, 154.157, 0.007908189, NaN, NaN, NaN, 0.04577916, "- N/A -   "
4.67, 154.511, 0.00792485, NaN, NaN, NaN, 0.04577916, "- N/A -   "
4.68, 154.747, 0.00794151, NaN, NaN, NaN, 0.04577916, "- N/A -   "
4.69, 154.983, 0.007955394, NaN, NaN, NaN, 0.04699994, "- N/A -   "
4.7, 155.337, 0.007972054, NaN, NaN, NaN, 0.04699994, "- N/A -   "
4.71, 155.691, 0.007991492, NaN, NaN, NaN, 0.04699994, "- N/A -   "
4.72, 156.0445, 0.008008152, NaN, NaN, NaN, 0.04577916, "- N/A -   "
4.73, 156.2804, 0.008027589, NaN, NaN, NaN, 0.0445584, "- N/A -   "
4.74, 156.752, 0.008047027, NaN, NaN, NaN, 0.0445584, "- N/A -   "
4.75, 157.224, 0.008066464, NaN, NaN, NaN, 0.04211683, "- N/A -   "
4.76, 157.578, 0.008088678, NaN, NaN, NaN, 0.04089605, "- N/A -   "
4.77, 157.932, 0.008108115, NaN, NaN, NaN, 0.0384545, "- N/A -   "
4.78, 158.2855, 0.008127552, NaN, NaN, NaN, 0.0372337, "- N/A -   "
4.79, 158.639, 0.00814699, NaN, NaN, NaN, 0.03601294, "- N/A -   "
4.8, 159.111, 0.008166427, NaN, NaN, NaN, 0.0347922, "- N/A -   "
4.81, 159.347, 0.008185864, NaN, NaN, NaN, 0.0335714, "- N/A -   "
4.82, 159.701, 0.008205301, NaN, NaN, NaN, 0.0323506, "- N/A -   "
4.83, 160.055, 0.008227515, NaN, NaN, NaN, 0.03112983, "- N/A -   "
4.84, 160.5265, 0.008246954, NaN, NaN, NaN, 0.0299091, "- N/A -   "
4.85, 160.7624, 0.008263613, NaN, NaN, NaN, 0.0286883, "- N/A -   "
4.86, 161.116, 0.008280274, NaN, NaN, NaN, 0.0286883, "- N/A -   "
4.87, 161.352, 0.008296934, NaN, NaN, NaN, 0.0286883, "- N/A -   "
4.88, 161.706, 0.008313595, NaN, NaN, NaN, 0.0299091, "- N/A -   "
4.89, 161.942, 0.008327479, NaN, NaN, NaN, 0.0299091, "- N/A -   "
4.9, 162.06, 0.008341363, NaN, NaN, NaN, 0.03112983, "- N/A -   "
4.91, 162.414, 0.008355246, NaN, NaN, NaN, 0.0323506, "- N/A -   "
4.92, 162.65, 0.008371906, NaN, NaN, NaN, 0.0335714, "- N/A -   "
4.93, 162.885, 0.00838579, NaN, NaN, NaN, 0.0335714, "- N/A -   "
4.94, 163.121, 0.008399675, NaN, NaN, NaN, 0.0347922, "- N/A -   "
4.95, 163.2393, 0.008416334, NaN, NaN, NaN, 0.0347922, "- N/A -   "
4.96, 163.593, 0.008430218, NaN, NaN, NaN, 0.03601294, "- N/A -   "
4.97, 163.829, 0.00844688, NaN, NaN, NaN, 0.03601294, "- N/A -   "
4.98, 164.183, 0.008463539, NaN, NaN, NaN, 0.03601294, "- N/A -   "
4.99, 164.537, 0.008480201, NaN, NaN, NaN, 0.03601294, "- N/A -   "
5, 164.891, 0.008496861, NaN, NaN, NaN, 0.03601294, "- N/A -   "
5.01, 165.126, 0.008513521, NaN, NaN, NaN, 0.03601294, "- N/A -   "
5.02, 165.4803, 0.008530182, NaN, NaN, NaN, 0.03601294, "- N/A -   "
5.03, 165.834, 0.008546842, NaN, NaN, NaN, 0.03601294, "- N/A -   "
5.04, 166.07, 0.008563503, NaN, NaN, NaN, 0.03601294, "- N/A -   "
5.05, 166.424, 0.008582939, NaN, NaN, NaN, 0.03601294, "- N/A -   "
5.06, 166.778, 0.008602377, NaN, NaN, NaN, 0.0347922, "- N/A -   "
5.07, 167.014, 0.008619037, NaN, NaN, NaN, 0.0347922, "- N/A -   "
5.08, 167.367, 0.008635699, NaN, NaN, NaN, 0.0335714, "- N/A -   "
5.09, 167.7213, 0.008652358, NaN, NaN, NaN, 0.0335714, "- N/A -   "
5.1, 167.9572, 0.00866902, NaN, NaN, NaN, 0.0335714, "- N/A -   "
5.11, 168.311, 0.00868568, NaN, NaN, NaN, 0.0335714, "- N/A -   "
5.12, 168.665, 0.008705117, NaN, NaN, NaN, 0.0335714, "- N/A -   "
5.13, 168.901, 0.008721777, NaN, NaN, NaN, 0.0323506, "- N/A -   "
5.14, 169.255, 0.008738438, NaN, NaN, NaN, 0.0335714, "- N/A -   "
5.15, 169.608, 0.008755099, NaN, NaN, NaN, 0.0335714, "- N/A -   "
5.16, 169.726, 0.00877176, NaN, NaN, NaN, 0.0323506, "- N/A -   "
5.17, 170.08, 0.008785643, NaN, NaN, NaN, 0.0335714, "- N/A -   "
5.18, 170.316, 0.008802303, NaN, NaN, NaN, 0.0347922, "- N/A -   "
5.19, 170.67, 0.008813411, NaN, NaN, NaN, 0.03601294, "- N/A -   "
5.2, 170.788, 0.00883007, NaN, NaN, NaN, 0.03601294, "- N/A -   "
5.21, 171.024, 0.008843955, NaN, NaN, NaN, 0.0372337, "- N/A -   "
5.22, 171.26, 0.008857839, NaN, NaN, NaN, 0.0384545, "- N/A -   "
5.23, 171.496, 0.008871722, NaN, NaN, NaN, 0.0396753, "- N/A -   "
5.24, 171.732, 0.008882829, NaN, NaN, NaN, 0.04211683, "- N/A -   "
5.25, 171.9674, 0.008896713, NaN, NaN, NaN, 0.0433376, "- N/A -   "
5.26, 172.321, 0.00891615, NaN, NaN, NaN, 0.0433376, "- N/A -   "
5.27, 172.557, 0.008930034, NaN, NaN, NaN, 0.0433376, "- N/A -   "
5.28, 172.793, 0.008946694, NaN, NaN, NaN, 0.0433376, "- N/A -   "
5.29, 173.1469, 0.008963355, NaN, NaN, NaN, 0.0433376, "- N/A -   "
5.3, 173.501, 0.008980015, NaN, NaN, NaN, 0.0433376, "- N/A -   "
5.31, 173.973, 0.008999453, NaN, NaN, NaN, 0.04211683, "- N/A -   "
5.32, 174.326, 0.00901889, NaN, NaN, NaN, 0.04089605, "- N/A -   "
5.33, 174.562, 0.009038327, NaN, NaN, NaN, 0.0396753, "- N/A -   "
5.34, 174.9161, 0.009057765, NaN, NaN, NaN, 0.0384545, "- N/A -   "
5.35, 175.27, 0.009077202, NaN, NaN, NaN, 0.0384545, "- N/A -   "
5.36, 175.742, 0.009093862, NaN, NaN, NaN, 0.0372337, "- N/A -   "
5.37, 175.86, 0.0091133, NaN, NaN, NaN, 0.03601294, "- N/A -   "
5.38, 176.214, 0.00912996, NaN, NaN, NaN, 0.0372337, "- N/A -   "
5.39, 176.567, 0.009143844, NaN, NaN, NaN, 0.0372337, "- N/A -   "
5.4, 176.803, 0.009160504, NaN, NaN, NaN, 0.0372337, "- N/A -   "
5.41, 177.1571, 0.009177165, NaN, NaN, NaN, 0.0372337, "- N/A -   "
5.42, 177.393, 0.009193826, NaN, NaN, NaN, 0.0372337, "- N/A -   "
5.43, 177.629, 0.009213263, NaN, NaN, NaN, 0.0372337, "- N/A -   "
5.44, 177.983, 0.009227146, NaN, NaN, NaN, 0.0372337, "- N/A -   "
5.45, 178.337, 0.009243807, NaN, NaN, NaN, 0.0372337, "- N/A -   "
5.46, 178.572, 0.009260467, NaN, NaN, NaN, 0.0384545, "- N/A -   "
5.47, 178.808, 0.009277128, NaN, NaN, NaN, 0.0384545, "- N/A -   "
5.48, 179.044, 0.009291012, NaN, NaN, NaN, 0.0384545, "- N/A -   "
5.49, 179.516, 0.009307672, NaN, NaN, NaN, 0.0384545, "- N/A -   "
5.5, 179.634, 0.009324333, NaN, NaN, NaN, 0.0384545, "- N/A -   "
5.51, 179.988, 0.009340993, NaN, NaN, NaN, 0.0384545, "- N/A -   "
5.52, 180.342, 0.009357654, NaN, NaN, NaN, 0.0384545, "- N/A -   "
5.53, 180.578, 0.009377091, NaN, NaN, NaN, 0.0372337, "- N/A -   "
5.54, 181.049, 0.009396528, NaN, NaN, NaN, 0.0372337, "- N/A -   "
5.55, 181.285, 0.009410412, NaN, NaN, NaN, 0.0372337, "- N/A -   "
5.56, 181.521, 0.009429849, NaN, NaN, NaN, 0.0372337, "- N/A -   "
5.57, 181.993, 0.00944651, NaN, NaN, NaN, 0.03601294, "- N/A -   "
5.58, 182.1109, 0.009463171, NaN, NaN, NaN, 0.03601294, "- N/A -   "
5.59, 182.583, 0.009482607, NaN, NaN, NaN, 0.03601294, "- N/A -   "
5.6, 182.819, 0.009499268, NaN, NaN, NaN, 0.0347922, "- N/A -   "
5.61, 183.172, 0.009518706, NaN, NaN, NaN, 0.0347922, "- N/A -   "
5.62, 183.408, 0.009535366, NaN, NaN, NaN, 0.0335714, "- N/A -   "
5.63, 183.762, 0.009552026, NaN, NaN, NaN, 0.0335714, "- N/A -   "
5.64, 184.116, 0.009571464, NaN, NaN, NaN, 0.0323506, "- N/A -   "
5.65, 184.3519, 0.009588124, NaN, NaN, NaN, 0.0323506, "- N/A -   "
5.66, 184.706, 0.009607562, NaN, NaN, NaN, 0.03112983, "- N/A -   "
5.67, 184.942, 0.009624222, NaN, NaN, NaN, 0.0323506, "- N/A -   "
5.68, 185.295, 0.00963811, NaN, NaN, NaN, 0.0323506, "- N/A -   "
5.69, 185.531, 0.009657542, NaN, NaN, NaN, 0.03112983, "- N/A -   "
5.7, 185.885, 0.009674204, NaN, NaN, NaN, 0.03112983, "- N/A -   "
5.71, 186.239, 0.009688087, NaN, NaN, NaN, 0.0323506, "- N/A -   "
5.72, 186.475, 0.009707524, NaN, NaN, NaN, 0.03112983, "- N/A -   "
5.73, 186.711, 0.009724185, NaN, NaN, NaN, 0.03112983, "- N/A -   "
5.74, 187.183, 0.009738068, NaN, NaN, NaN, 0.0323506, "- N/A -   "
5.75, 187.301, 0.00975473, NaN, NaN, NaN, 0.0323506, "- N/A -   "
5.76, 187.654, 0.00977139, NaN, NaN, NaN, 0.0323506, "- N/A -   "
5.77, 187.89, 0.009785274, NaN, NaN, NaN, 0.0335714, "- N/A -   "
5.78, 188.1262, 0.00980193, NaN, NaN, NaN, 0.0335714, "- N/A -   "
5.79, 188.598, 0.009818594, NaN, NaN, NaN, 0.0335714, "- N/A -   "
5.8, 188.834, 0.009832478, NaN, NaN, NaN, 0.0347922, "- N/A -   "
5.81, 189.0698, 0.009849139, NaN, NaN, NaN, 0.0347922, "- N/A -   "
5.82, 189.3057, 0.009865799, NaN, NaN, NaN, 0.0347922, "- N/A -   "
5.83, 189.66, 0.009885237, NaN, NaN, NaN, 0.0347922, "- N/A -   "
5.84, 190.013, 0.009901897, NaN, NaN, NaN, 0.0335714, "- N/A -   "
5.85, 190.249, 0.009918558, NaN, NaN, NaN, 0.0335714, "- N/A -   "
5.86, 190.721, 0.009935218, NaN, NaN, NaN, 0.0335714, "- N/A -   "
5.87, 190.957, 0.009951878, NaN, NaN, NaN, 0.0335714, "- N/A -   "
5.88, 191.193, 0.009968539, NaN, NaN, NaN, 0.0335714, "- N/A -   "
5.89, 191.429, 0.0099852, NaN, NaN, NaN, 0.0335714, "- N/A -   "
5.9, 191.665, 0.0100019, NaN, NaN, NaN, 0.0335714, "- N/A -   "
5.91, 192.018, 0.0100157, NaN, NaN, NaN, 0.0347922, "- N/A -   "
5.92, 192.254, 0.0100296, NaN, NaN, NaN, 0.03601294, "- N/A -   "
5.93, 192.49, 0.0100463, NaN, NaN, NaN, 0.03601294, "- N/A -   "
5.94, 192.726, 0.0100602, NaN, NaN, NaN, 0.0372337, "- N/A -   "
5.95, 193.08, 0.0100741, NaN, NaN, NaN, 0.0384545, "- N/A -   "
5.96, 193.3159, 0.0100907, NaN, NaN, NaN, 0.0384545, "- N/A -   "
[...]
15.53, 529.4679, 0.0260376, NaN, NaN, NaN, 0.04089605, "- N/A -   "
15.56, 530.769, 0.0260904, NaN, NaN, NaN, 0.0396753, "- N/A -   "
15.59, 531.9518, 0.0261403, NaN, NaN, NaN, 0.0396753, "- N/A -   "
15.62, 533.253, 0.0261903, NaN, NaN, NaN, 0.0396753, "- N/A -   "
15.65, 534.4357, 0.0262403, NaN, NaN, NaN, 0.0384545, "- N/A -   "
15.68, 535.7368, 0.02629584, NaN, NaN, NaN, 0.03601294, "- N/A -   "
15.71, 537.1562, 0.0263486, NaN, NaN, NaN, 0.0347922, "- N/A -   "
15.74, 538.576, 0.0264041, NaN, NaN, NaN, 0.0335714, "- N/A -   "
15.77, 539.758, 0.0264541, NaN, NaN, NaN, 0.0335714, "- N/A -   "
15.8, 540.7046, 0.0264985, NaN, NaN, NaN, 0.0347922, "- N/A -   "
15.83, 541.8874, 0.026543, NaN, NaN, NaN, 0.0372337, "- N/A -   "
15.86, 543.07, 0.026593, NaN, NaN, NaN, 0.0384545, "- N/A -   "
15.89, 544.1347, 0.02664016, NaN, NaN, NaN, 0.0384545, "- N/A -   "
15.92, 545.4358, 0.0266957, NaN, NaN, NaN, 0.0372337, "- N/A -   "
15.95, 546.619, 0.0267457, NaN, NaN, NaN, 0.0372337, "- N/A -   "
15.98, 547.92, 0.0267957, NaN, NaN, NaN, 0.0372337, "- N/A -   "
16.01, 549.103, 0.0268456, NaN, NaN, NaN, 0.03601294, "- N/A -   "
16.04, 550.167, 0.02689562, NaN, NaN, NaN, 0.0372337, "- N/A -   "
16.07, 551.232, 0.02694, NaN, NaN, NaN, 0.0384545, "- N/A -   "
16.1, 552.533, 0.0269928, NaN, NaN, NaN, 0.0372337, "- N/A -   "
16.13, 553.952, 0.0270456, NaN, NaN, NaN, 0.03601294, "- N/A -   "
16.16, 555.1349, 0.0270983, NaN, NaN, NaN, 0.03601294, "- N/A -   "
16.19, 556.1994, 0.02714275, NaN, NaN, NaN, 0.0372337, "- N/A -   "
16.22, 557.3822, 0.02719273, NaN, NaN, NaN, 0.0372337, "- N/A -   "
16.25, 558.565, 0.0272399, NaN, NaN, NaN, 0.0384545, "- N/A -   "
16.28, 559.6295, 0.0272871, NaN, NaN, NaN, 0.0396753, "- N/A -   "
16.31, 560.8123, 0.0273399, NaN, NaN, NaN, 0.0396753, "- N/A -   "
16.34, 562.1134, 0.0273843, NaN, NaN, NaN, 0.04089605, "- N/A -   "
16.37, 563.178, 0.0274315, NaN, NaN, NaN, 0.04211683, "- N/A -   "
16.4, 564.479, 0.0274843, NaN, NaN, NaN, 0.04089605, "- N/A -   "
16.43, 565.898, 0.0275398, NaN, NaN, NaN, 0.0384545, "- N/A -   "
16.46, 567.4361, 0.0276009, NaN, NaN, NaN, 0.0335714, "- N/A -   "
16.49, 568.7371, 0.0276564, NaN, NaN, NaN, 0.03112983, "- N/A -   "
16.52, 569.92, 0.0277092, NaN, NaN, NaN, 0.03112983, "- N/A -   "
16.55, 571.1028, 0.0277564, NaN, NaN, NaN, 0.0323506, "- N/A -   "
16.58, 572.049, 0.0278036, NaN, NaN, NaN, 0.0323506, "- N/A -   "
16.61, 573.3501, 0.0278508, NaN, NaN, NaN, 0.0335714, "- N/A -   "
16.64, 574.6512, 0.0279064, NaN, NaN, NaN, 0.03112983, "- N/A -   "
16.67, 576.189, 0.0279619, NaN, NaN, NaN, 0.0286883, "- N/A -   "
16.7, 577.49, 0.0280174, NaN, NaN, NaN, 0.0262467, "- N/A -   "
16.73, 578.554, 0.02806463, NaN, NaN, NaN, 0.0274675, "- N/A -   "
16.76, 579.737, 0.0281118, NaN, NaN, NaN, 0.0286883, "- N/A -   "
16.79, 580.8018, 0.028159, NaN, NaN, NaN, 0.0299091, "- N/A -   "
16.82, 581.748, 0.02820347, NaN, NaN, NaN, 0.0335714, "- N/A -   "
16.85, 582.8126, 0.0282423, NaN, NaN, NaN, 0.0372337, "- N/A -   "
16.88, 583.759, 0.028284, NaN, NaN, NaN, 0.04089605, "- N/A -   "
16.91, 584.8233, 0.0283312, NaN, NaN, NaN, 0.04211683, "- N/A -   "
16.94, 586.124, 0.0283756, NaN, NaN, NaN, 0.0445584, "- N/A -   "
16.97, 587.0707, 0.0284228, NaN, NaN, NaN, 0.04699994, "- N/A -   "
17, 588.372, 0.0284728, NaN, NaN, NaN, 0.04577916, "- N/A -   "
17.03, 589.791, 0.02852835, NaN, NaN, NaN, 0.0433376, "- N/A -   "
17.06, 591.0922, 0.0285839, NaN, NaN, NaN, 0.04089605, "- N/A -   "
17.09, 592.5116, 0.02863942, NaN, NaN, NaN, 0.0396753, "- N/A -   "
17.12, 593.8127, 0.028695, NaN, NaN, NaN, 0.0372337, "- N/A -   "
17.15, 595.1138, 0.02875049, NaN, NaN, NaN, 0.0347922, "- N/A -   "
17.18, 596.297, 0.02880047, NaN, NaN, NaN, 0.0347922, "- N/A -   "
17.21, 597.4794, 0.0288477, NaN, NaN, NaN, 0.03601294, "- N/A -   "
17.24, 599.0171, 0.02890599, NaN, NaN, NaN, 0.0335714, "- N/A -   "
17.27, 600.4364, 0.0289615, NaN, NaN, NaN, 0.03112983, "- N/A -   "
17.3, 601.738, 0.0290115, NaN, NaN, NaN, 0.0299091, "- N/A -   "
17.33, 602.9203, 0.0290643, NaN, NaN, NaN, 0.0286883, "- N/A -   "
17.36, 604.103, 0.0291115, NaN, NaN, NaN, 0.0299091, "- N/A -   "
17.39, 605.286, 0.02916145, NaN, NaN, NaN, 0.0299091, "- N/A -   "
17.42, 606.232, 0.0292031, NaN, NaN, NaN, 0.0335714, "- N/A -   "
17.45, 607.1784, 0.02924475, NaN, NaN, NaN, 0.0372337, "- N/A -   "
17.48, 608.3612, 0.0292892, NaN, NaN, NaN, 0.0396753, "- N/A -   "
17.51, 609.4258, 0.0293364, NaN, NaN, NaN, 0.04211683, "- N/A -   "
17.54, 610.372, 0.0293753, NaN, NaN, NaN, 0.04577916, "- N/A -   "
17.57, 611.5549, 0.0294252, NaN, NaN, NaN, 0.04577916, "- N/A -   "
17.6, 612.9742, 0.0294808, NaN, NaN, NaN, 0.0433376, "- N/A -   "
17.63, 614.2753, 0.0295308, NaN, NaN, NaN, 0.0433376, "- N/A -   "
17.66, 615.576, 0.02958074, NaN, NaN, NaN, 0.0445584, "- N/A -   "
17.69, 616.7592, 0.0296363, NaN, NaN, NaN, 0.04089605, "- N/A -   "
17.72, 618.1785, 0.02968903, NaN, NaN, NaN, 0.0396753, "- N/A -   "
17.75, 619.4797, 0.0297418, NaN, NaN, NaN, 0.0384545, "- N/A -   "
17.78, 620.7807, 0.0297918, NaN, NaN, NaN, 0.0384545, "- N/A -   "
17.81, 622.2, 0.0298473, NaN, NaN, NaN, 0.03601294, "- N/A -   "
17.84, 623.619, 0.0299084, NaN, NaN, NaN, 0.0323506, "- N/A -   "
17.87, 625.0389, 0.0299612, NaN, NaN, NaN, 0.0299091, "- N/A -   "
17.9, 626.4582, 0.0300139, NaN, NaN, NaN, 0.0286883, "- N/A -   "
17.93, 627.523, 0.03006667, NaN, NaN, NaN, 0.0286883, "- N/A -   "
17.96, 628.9421, 0.0301167, NaN, NaN, NaN, 0.0274675, "- N/A -   "
17.99, 630.007, 0.0301583, NaN, NaN, NaN, 0.03112983, "- N/A -   "
18.02, 631.189, 0.0302111, NaN, NaN, NaN, 0.03112983, "- N/A -   "
18.05, 632.491, 0.0302583, NaN, NaN, NaN, 0.0323506, "- N/A -   "
18.08, 633.437, 0.0303027, NaN, NaN, NaN, 0.0335714, "- N/A -   "
18.11, 634.62, 0.0303499, NaN, NaN, NaN, 0.0347922, "- N/A -   "
18.14, 635.921, 0.03039988, NaN, NaN, NaN, 0.0347922, "- N/A -   "
18.17, 637.103, 0.0304499, NaN, NaN, NaN, 0.0347922, "- N/A -   "
18.2, 638.2863, 0.03049429, NaN, NaN, NaN, 0.0372337, "- N/A -   "
18.23, 639.233, 0.03053872, NaN, NaN, NaN, 0.04089605, "- N/A -   "
18.26, 640.415, 0.0305831, NaN, NaN, NaN, 0.0433376, "- N/A -   "
18.29, 641.598, 0.0306276, NaN, NaN, NaN, 0.0445584, "- N/A -   "
18.32, 642.6627, 0.03067478, NaN, NaN, NaN, 0.04577916, "- N/A -   "
18.35, 643.8455, 0.03072476, NaN, NaN, NaN, 0.04699994, "- N/A -   "
18.38, 645.2649, 0.03077752, NaN, NaN, NaN, 0.0445584, "- N/A -   "
18.41, 646.9208, 0.0308386, NaN, NaN, NaN, 0.0396753, "- N/A -   "
18.44, 648.3402, 0.03089692, NaN, NaN, NaN, 0.0372337, "- N/A -   "
18.47, 649.7595, 0.0309525, NaN, NaN, NaN, 0.0335714, "- N/A -   "
18.5, 651.061, 0.0310052, NaN, NaN, NaN, 0.0323506, "- N/A -   "
18.53, 652.48, 0.0310607, NaN, NaN, NaN, 0.0299091, "- N/A -   "
18.56, 653.663, 0.031108, NaN, NaN, NaN, 0.03112983, "- N/A -   "
18.59, 654.6091, 0.03115238, NaN, NaN, NaN, 0.0347922, "- N/A -   "
18.62, 655.7919, 0.0311968, NaN, NaN, NaN, 0.03601294, "- N/A -   "
18.65, 657.093, 0.031244, NaN, NaN, NaN, 0.0372337, "- N/A -   "
18.68, 658.2757, 0.031294, NaN, NaN, NaN, 0.0372337, "- N/A -   "
18.71, 659.459, 0.0313468, NaN, NaN, NaN, 0.0372337, "- N/A -   "
18.74, 660.878, 0.03139951, NaN, NaN, NaN, 0.0347922, "- N/A -   "
18.77, 662.2973, 0.031455, NaN, NaN, NaN, 0.0323506, "- N/A -   "
18.8, 663.4801, 0.03150225, NaN, NaN, NaN, 0.0347922, "- N/A -   "
18.83, 664.5446, 0.0315439, NaN, NaN, NaN, 0.0372337, "- N/A -   "
18.86, 665.491, 0.03158833, NaN, NaN, NaN, 0.0396753, "- N/A -   "
18.89, 666.6737, 0.0316355, NaN, NaN, NaN, 0.04089605, "- N/A -   "
18.92, 667.9748, 0.03168274, NaN, NaN, NaN, 0.04211683, "- N/A -   "
18.95, 669.2759, 0.0317355, NaN, NaN, NaN, 0.04211683, "- N/A -   "
18.98, 670.695, 0.0317883, NaN, NaN, NaN, 0.0396753, "- N/A -   "
19.01, 671.878, 0.03183824, NaN, NaN, NaN, 0.0396753, "- N/A -   "
19.04, 673.179, 0.031891, NaN, NaN, NaN, 0.0384545, "- N/A -   "
19.07, 674.7168, 0.03194653, NaN, NaN, NaN, 0.03601294, "- N/A -   "
19.1, 676.0179, 0.0320021, NaN, NaN, NaN, 0.0347922, "- N/A -   "
19.13, 677.319, 0.032052, NaN, NaN, NaN, 0.0335714, "- N/A -   "
19.16, 678.5018, 0.0320965, NaN, NaN, NaN, 0.03601294, "- N/A -   "
19.19, 679.448, 0.03214368, NaN, NaN, NaN, 0.0384545, "- N/A -   "
19.22, 680.7491, 0.0321937, NaN, NaN, NaN, 0.0372337, "- N/A -   "
19.25, 682.1685, 0.0322492, NaN, NaN, NaN, 0.03601294, "- N/A -   "
19.28, 683.5878, 0.03229918, NaN, NaN, NaN, 0.0347922, "- N/A -   "
19.31, 685.007, 0.0323547, NaN, NaN, NaN, 0.0323506, "- N/A -   "
19.34, 686.19, 0.0324047, NaN, NaN, NaN, 0.0323506, "- N/A -   "
19.37, 687.373, 0.0324519, NaN, NaN, NaN, 0.0335714, "- N/A -   "
19.4, 688.556, 0.03250188, NaN, NaN, NaN, 0.0347922, "- N/A -   "
19.43, 689.857, 0.0325491, NaN, NaN, NaN, 0.0347922, "- N/A -   "
19.46, 691.158, 0.0326018, NaN, NaN, NaN, 0.0335714, "- N/A -   "
19.49, 692.4589, 0.0326546, NaN, NaN, NaN, 0.0335714, "- N/A -   "
19.52, 693.76, 0.0327074, NaN, NaN, NaN, 0.0323506, "- N/A -   "
19.55, 694.9429, 0.0327546, NaN, NaN, NaN, 0.0323506, "- N/A -   "
19.58, 696.1256, 0.032799, NaN, NaN, NaN, 0.0347922, "- N/A -   "
19.61, 697.3084, 0.0328462, NaN, NaN, NaN, 0.03601294, "- N/A -   "
19.64, 698.373, 0.03288785, NaN, NaN, NaN, 0.0396753, "- N/A -   "
19.67, 699.5557, 0.0329351, NaN, NaN, NaN, 0.04089605, "- N/A -   "
19.7, 700.6203, 0.03297948, NaN, NaN, NaN, 0.0433376, "- N/A -   "
19.73, 701.8031, 0.0330267, NaN, NaN, NaN, 0.0445584, "- N/A -   "
19.76, 702.986, 0.03307667, NaN, NaN, NaN, 0.04577916, "- N/A -   "
19.79, 704.4053, 0.0331267, NaN, NaN, NaN, 0.0445584, "- N/A -   "
19.82, 705.943, 0.0331822, NaN, NaN, NaN, 0.04211683, "- N/A -   "
19.85, 707.3623, 0.0332405, NaN, NaN, NaN, 0.0384545, "- N/A -   "
19.88, 708.6634, 0.033296, NaN, NaN, NaN, 0.0372337, "- N/A -   "
19.91, 710.201, 0.0333516, NaN, NaN, NaN, 0.0335714, "- N/A -   "
19.94, 711.502, 0.03340155, NaN, NaN, NaN, 0.0335714, "- N/A -   "
19.97, 712.8032, 0.03345153, NaN, NaN, NaN, 0.0335714, "- N/A -   "
20, 714.1043, 0.03350151, NaN, NaN, NaN, 0.0335714, "- N/A -   "
20.03, 715.2871, 0.0335487, NaN, NaN, NaN, 0.0347922, "- N/A -   "
20.06, 716.5882, 0.0336043, NaN, NaN, NaN, 0.0335714, "- N/A -   "
20.09, 718.126, 0.03365979, NaN, NaN, NaN, 0.03112983, "- N/A -   "
20.12, 719.427, 0.03370977, NaN, NaN, NaN, 0.0299091, "- N/A -   "
20.15, 720.728, 0.0337625, NaN, NaN, NaN, 0.0299091, "- N/A -   "
20.18, 721.9108, 0.0338097, NaN, NaN, NaN, 0.0299091, "- N/A -   "
20.21, 722.975, 0.03385416, NaN, NaN, NaN, 0.0323506, "- N/A -   "
20.24, 724.1582, 0.0339014, NaN, NaN, NaN, 0.0347922, "- N/A -   "
20.27, 725.104, 0.03394024, NaN, NaN, NaN, 0.0396753, "- N/A -   "
20.3, 725.9324, 0.03398189, NaN, NaN, NaN, 0.04211683, "- N/A -   "
20.33, 727.115, 0.0340235, NaN, NaN, NaN, 0.04577916, "- N/A -   "
20.36, 728.416, 0.0340735, NaN, NaN, NaN, 0.04699994, "- N/A -   "
20.39, 729.7174, 0.0341235, NaN, NaN, NaN, 0.04699994, "- N/A -   "
20.42, 731.1367, 0.03417904, NaN, NaN, NaN, 0.0445584, "- N/A -   "
20.45, 732.6744, 0.0342346, NaN, NaN, NaN, 0.04089605, "- N/A -   "
20.48, 734.0938, 0.03429011, NaN, NaN, NaN, 0.0384545, "- N/A -   "
20.51, 735.395, 0.03434009, NaN, NaN, NaN, 0.0384545, "- N/A -   "
20.54, 736.696, 0.03439285, NaN, NaN, NaN, 0.0372337, "- N/A -   "
20.57, 737.997, 0.0344456, NaN, NaN, NaN, 0.03601294, "- N/A -   "
20.6, 739.298, 0.0344984, NaN, NaN, NaN, 0.0347922, "- N/A -   "
20.63, 740.954, 0.0345595, NaN, NaN, NaN, 0.03112983, "- N/A -   "
20.66, 742.3735, 0.034615, NaN, NaN, NaN, 0.0274675, "- N/A -   "
20.69, 743.7928, 0.0346705, NaN, NaN, NaN, 0.0262467, "- N/A -   "
20.72, 744.976, 0.03471773, NaN, NaN, NaN, 0.0262467, "- N/A -   "
20.75, 746.2767, 0.03476771, NaN, NaN, NaN, 0.0262467, "- N/A -   "
20.78, 747.46, 0.0348177, NaN, NaN, NaN, 0.0262467, "- N/A -   "
20.81, 748.761, 0.0348649, NaN, NaN, NaN, 0.0274675, "- N/A -   "
20.84, 749.9434, 0.0349065, NaN, NaN, NaN, 0.03112983, "- N/A -   "
20.87, 751.008, 0.034951, NaN, NaN, NaN, 0.0335714, "- N/A -   "
20.9, 751.954, 0.0349926, NaN, NaN, NaN, 0.0372337, "- N/A -   "
20.93, 753.137, 0.0350371, NaN, NaN, NaN, 0.0396753, "- N/A -   "
20.96, 754.0832, 0.0350787, NaN, NaN, NaN, 0.0445584, "- N/A -   "
20.99, 755.384, 0.0351287, NaN, NaN, NaN, 0.0433376, "- N/A -   "
21.02, 756.804, 0.0351814, NaN, NaN, NaN, 0.04211683, "- N/A -   "
21.05, 758.1048, 0.03523143, NaN, NaN, NaN, 0.04211683, "- N/A -   "
21.08, 759.1693, 0.0352759, NaN, NaN, NaN, 0.0445584, "- N/A -   "
21.11, 760.5887, 0.0353258, NaN, NaN, NaN, 0.0445584, "- N/A -   "
21.14, 762.008, 0.0353814, NaN, NaN, NaN, 0.0433376, "- N/A -   "
21.17, 763.191, 0.0354314, NaN, NaN, NaN, 0.04211683, "- N/A -   "
21.2, 764.7285, 0.03548689, NaN, NaN, NaN, 0.04089605, "- N/A -   "
21.23, 766.1479, 0.0355452, NaN, NaN, NaN, 0.03601294, "- N/A -   "
21.26, 767.804, 0.0356035, NaN, NaN, NaN, 0.0323506, "- N/A -   "
21.29, 769.2232, 0.03565905, NaN, NaN, NaN, 0.0299091, "- N/A -   "
21.32, 770.5243, 0.0357118, NaN, NaN, NaN, 0.0286883, "- N/A -   "
21.35, 771.8254, 0.03576179, NaN, NaN, NaN, 0.0286883, "- N/A -   "
21.38, 773.0081, 0.035809, NaN, NaN, NaN, 0.0299091, "- N/A -   "
21.41, 774.191, 0.0358562, NaN, NaN, NaN, 0.0323506, "- N/A -   "
21.44, 775.492, 0.0359034, NaN, NaN, NaN, 0.0323506, "- N/A -   "
21.47, 776.5566, 0.03594783, NaN, NaN, NaN, 0.0347922, "- N/A -   "
21.5, 777.858, 0.035995, NaN, NaN, NaN, 0.0372337, "- N/A -   "
21.53, 779.159, 0.036045, NaN, NaN, NaN, 0.0372337, "- N/A -   "
21.56, 780.46, 0.03609222, NaN, NaN, NaN, 0.0372337, "- N/A -   "
21.59, 781.761, 0.0361422, NaN, NaN, NaN, 0.0384545, "- N/A -   "
21.62, 782.825, 0.0361894, NaN, NaN, NaN, 0.04089605, "- N/A -   "
21.65, 784.1266, 0.0362338, NaN, NaN, NaN, 0.04211683, "- N/A -   "
21.68, 785.1911, 0.03628104, NaN, NaN, NaN, 0.0433376, "- N/A -   "
21.71, 786.3739, 0.0363282, NaN, NaN, NaN, 0.0445584, "- N/A -   "
21.74, 787.7933, 0.03637545, NaN, NaN, NaN, 0.04577916, "- N/A -   "
21.77, 789.213, 0.03642821, NaN, NaN, NaN, 0.0445584, "- N/A -   "
21.8, 790.395, 0.0364837, NaN, NaN, NaN, 0.04211683, "- N/A -   "
21.83, 792.0514, 0.03654761, NaN, NaN, NaN, 0.0372337, "- N/A -   "
21.86, 793.7073, 0.03660592, NaN, NaN, NaN, 0.0323506, "- N/A -   "
21.89, 795.1267, 0.03665868, NaN, NaN, NaN, 0.03112983, "- N/A -   "
21.92, 796.428, 0.0367114, NaN, NaN, NaN, 0.03112983, "- N/A -   "
21.95, 797.6106, 0.0367559, NaN, NaN, NaN, 0.0323506, "- N/A -   "
21.98, 798.6751, 0.03680029, NaN, NaN, NaN, 0.0347922, "- N/A -   "
22.01, 799.9762, 0.0368503, NaN, NaN, NaN, 0.0347922, "- N/A -   "
22.04, 801.2773, 0.03689748, NaN, NaN, NaN, 0.03601294, "- N/A -   "
22.07, 802.697, 0.036953, NaN, NaN, NaN, 0.0347922, "- N/A -   "
22.1, 804.116, 0.0370058, NaN, NaN, NaN, 0.0335714, "- N/A -   "
22.13, 805.4171, 0.0370585, NaN, NaN, NaN, 0.03112983, "- N/A -   "
22.16, 806.5999, 0.0371057, NaN, NaN, NaN, 0.0323506, "- N/A -   "
22.19, 807.901, 0.0371557, NaN, NaN, NaN, 0.0335714, "- N/A -   "
22.22, 809.0838, 0.0372029, NaN, NaN, NaN, 0.0335714, "- N/A -   "
22.25, 810.385, 0.0372474, NaN, NaN, NaN, 0.03601294, "- N/A -   "
22.28, 811.3312, 0.03729178, NaN, NaN, NaN, 0.0396753, "- N/A -   "
22.31, 812.3957, 0.03733343, NaN, NaN, NaN, 0.04211683, "- N/A -   "
22.34, 813.6968, 0.03738341, NaN, NaN, NaN, 0.0433376, "- N/A -   "
22.37, 815.234, 0.0374389, NaN, NaN, NaN, 0.04089605, "- N/A -   "
22.4, 816.6538, 0.0374917, NaN, NaN, NaN, 0.0384545, "- N/A -   "
22.43, 817.8366, 0.03753891, NaN, NaN, NaN, 0.0396753, "- N/A -   "
22.46, 819.256, 0.0375917, NaN, NaN, NaN, 0.0384545, "- N/A -   "
22.49, 820.557, 0.0376417, NaN, NaN, NaN, 0.0384545, "- N/A -   "
22.52, 821.74, 0.0376889, NaN, NaN, NaN, 0.0396753, "- N/A -   "
22.55, 823.041, 0.0377388, NaN, NaN, NaN, 0.0396753, "- N/A -   "
22.58, 824.4603, 0.0377916, NaN, NaN, NaN, 0.0384545, "- N/A -   "
22.61, 825.8797, 0.0378444, NaN, NaN, NaN, 0.0372337, "- N/A -   "
22.64, 827.1808, 0.03789711, NaN, NaN, NaN, 0.03601294, "- N/A -   "
22.67, 828.4819, 0.0379471, NaN, NaN, NaN, 0.03601294, "- N/A -   "
22.7, 830.02, 0.03800263, NaN, NaN, NaN, 0.0335714, "- N/A -   "
22.73, 831.3206, 0.0380526, NaN, NaN, NaN, 0.0335714, "- N/A -   "
22.76, 832.5034, 0.0380998, NaN, NaN, NaN, 0.03601294, "- N/A -   "
22.79, 833.6863, 0.038147, NaN, NaN, NaN, 0.03601294, "- N/A -   "
22.82, 835.1056, 0.038197, NaN, NaN, NaN, 0.03601294, "- N/A -   "
22.85, 836.288, 0.03824698, NaN, NaN, NaN, 0.03601294, "- N/A -   "
22.88, 837.5895, 0.03829974, NaN, NaN, NaN, 0.0347922, "- N/A -   "
22.91, 838.8906, 0.0383525, NaN, NaN, NaN, 0.0335714, "- N/A -   "
22.94, 840.31, 0.0384025, NaN, NaN, NaN, 0.0347922, "- N/A -   "
22.97, 841.3745, 0.0384497, NaN, NaN, NaN, 0.0347922, "- N/A -   "
23, 842.5573, 0.03849411, NaN, NaN, NaN, 0.0372337, "- N/A -   "
23.03, 843.7401, 0.03853854, NaN, NaN, NaN, 0.0396753, "- N/A -   "
23.06, 845.0412, 0.03858852, NaN, NaN, NaN, 0.0396753, "- N/A -   "
23.09, 846.224, 0.0386357, NaN, NaN, NaN, 0.04089605, "- N/A -   "
23.12, 847.4068, 0.0386829, NaN, NaN, NaN, 0.04211683, "- N/A -   "
23.15, 848.708, 0.0387274, NaN, NaN, NaN, 0.0445584, "- N/A -   "
23.18, 850.127, 0.0387801, NaN, NaN, NaN, 0.0433376, "- N/A -   "
23.21, 851.5467, 0.0388357, NaN, NaN, NaN, 0.04089605, "- N/A -   "
23.24, 853.0843, 0.038894, NaN, NaN, NaN, 0.0372337, "- N/A -   "
23.27, 854.74, 0.03895505, NaN, NaN, NaN, 0.0323506, "- N/A -   "
23.3, 856.16, 0.0390106, NaN, NaN, NaN, 0.03112983, "- N/A -   "
23.33, 857.2241, 0.039055, NaN, NaN, NaN, 0.0323506, "- N/A -   "
23.36, 858.4069, 0.03910222, NaN, NaN, NaN, 0.0347922, "- N/A -   "
23.39, 859.708, 0.0391522, NaN, NaN, NaN, 0.0335714, "- N/A -   "
23.42, 861.0091, 0.0392022, NaN, NaN, NaN, 0.0347922, "- N/A -   "
23.45, 862.31, 0.03925494, NaN, NaN, NaN, 0.0323506, "- N/A -   "
23.48, 863.848, 0.0393133, NaN, NaN, NaN, 0.0286883, "- N/A -   "
23.51, 865.2672, 0.03936601, NaN, NaN, NaN, 0.0274675, "- N/A -   "
23.54, 866.3317, 0.0394132, NaN, NaN, NaN, 0.0299091, "- N/A -   "
23.57, 867.6329, 0.0394549, NaN, NaN, NaN, 0.0323506, "- N/A -   "
23.6, 868.8156, 0.0395021, NaN, NaN, NaN, 0.0335714, "- N/A -   "
23.63, 870.235, 0.0395521, NaN, NaN, NaN, 0.0335714, "- N/A -   "
23.66, 871.1813, 0.0395965, NaN, NaN, NaN, 0.03601294, "- N/A -   "
23.69, 872.3641, 0.03964091, NaN, NaN, NaN, 0.0384545, "- N/A -   "
23.72, 873.4286, 0.0396881, NaN, NaN, NaN, 0.0396753, "- N/A -   "
23.75, 874.73, 0.0397353, NaN, NaN, NaN, 0.04089605, "- N/A -   "
23.78, 876.031, 0.0397825, NaN, NaN, NaN, 0.04211683, "- N/A -   "
23.81, 876.977, 0.039827, NaN, NaN, NaN, 0.0445584, "- N/A -   "
23.84, 878.3964, 0.0398769, NaN, NaN, NaN, 0.0445584, "- N/A -   "
23.87, 879.816, 0.0399325, NaN, NaN, NaN, 0.04211683, "- N/A -   "
23.9, 881.3534, 0.0399908, NaN, NaN, NaN, 0.0384545, "- N/A -   "
23.93, 882.7728, 0.04004076, NaN, NaN, NaN, 0.0384545, "- N/A -   "
23.96, 883.837, 0.0400907, NaN, NaN, NaN, 0.0396753, "- N/A -   "
23.99, 885.375, 0.0401435, NaN, NaN, NaN, 0.0384545, "- N/A -   "
24.02, 886.5578, 0.0401935, NaN, NaN, NaN, 0.0372337, "- N/A -   "
24.05, 887.9772, 0.0402435, NaN, NaN, NaN, 0.0372337, "- N/A -   "
24.08, 889.278, 0.040299, NaN, NaN, NaN, 0.03601294, "- N/A -   "
24.11, 890.9342, 0.04035454, NaN, NaN, NaN, 0.0323506, "- N/A -   "
24.14, 892.2352, 0.0404073, NaN, NaN, NaN, 0.03112983, "- N/A -   "
24.17, 893.773, 0.0404628, NaN, NaN, NaN, 0.0286883, "- N/A -   "
24.2, 894.9557, 0.04051281, NaN, NaN, NaN, 0.0299091, "- N/A -   "
24.23, 896.257, 0.04056, NaN, NaN, NaN, 0.0299091, "- N/A -   "
24.26, 897.321, 0.0406044, NaN, NaN, NaN, 0.0323506, "- N/A -   "
24.29, 898.504, 0.04064887, NaN, NaN, NaN, 0.0347922, "- N/A -   "
24.32, 899.687, 0.0406905, NaN, NaN, NaN, 0.0384545, "- N/A -   "
24.35, 900.751, 0.04073495, NaN, NaN, NaN, 0.04089605, "- N/A -   "
24.38, 901.816, 0.0407794, NaN, NaN, NaN, 0.0445584, "- N/A -   "
24.41, 903.117, 0.0408266, NaN, NaN, NaN, 0.04577916, "- N/A -   "
24.44, 904.4182, 0.0408766, NaN, NaN, NaN, 0.0445584, "- N/A -   "
24.451, 904.8913, 0.040896, NaN, NaN, NaN, 0.0445584, "- N/A -   "