File: 2_Tensile_Data/Hamel_ForceTest_Bolt7_Test8.csv
Time, Load (lb), Position (in), AxialStrain (in), TransverseStrain (in), Auxiliary (), Control Out (V), Stress (psi)
0.0, 10.26143, 0.0, NaN, NaN, NaN, -0.007935055, "- N/A -   "
0.01, 10.26143, 0.0, NaN, NaN, NaN, -6.103888E-4, "- N/A -   "
0.02, 10.26143, 0.0, NaN, NaN, NaN, 0.006714277, "- N/A -   "
0.03, 10.3794, 0.0, NaN, NaN, NaN, 0.0238052, "- N/A -   "
0.04, 10.26143, 2.776752E-6, NaN, NaN, NaN, 0.04211683, "- N/A -   "
0.05, 10.4973, 1.38838e-05, NaN, NaN, NaN, 0.05676616, "- N/A -   "
0.06, 10.8512, 3.054427E-5, NaN, NaN, NaN, 0.0689739, "- N/A -   "
0.07, 11.323, 4.99815e-05, NaN, NaN, NaN, 0.0799609, "- N/A -   "
0.08, 11.7947, 7.49723E-5, NaN, NaN, NaN, 0.0897272, "- N/A -   "
0.09, 12.3845, 9.99631e-05, NaN, NaN, NaN, 0.09705182, "- N/A -   "
0.1, 12.9742, 0.000130507, NaN, NaN, NaN, 0.100714, "- N/A -   "
0.11, 13.7999, 0.000163828, NaN, NaN, NaN, 0.09461027, "- N/A -   "
0.12, 14.3896, 0.000191596, NaN, NaN, NaN, 0.08850638, "- N/A -   "
0.13, 14.9793, 2.193634E-4, NaN, NaN, NaN, 0.08362327, "- N/A -   "
0.14, 15.4511, 0.000244354, NaN, NaN, NaN, 0.0799609, "- N/A -   "
0.15, 16.0409, 0.000269345, NaN, NaN, NaN, 0.0762986, "- N/A -   "
0.16, 16.6306, 0.000294336, NaN, NaN, NaN, 0.07263627, "- N/A -   "
0.17, 16.9844, 3.165497E-4, NaN, NaN, NaN, 0.07141549, "- N/A -   "
0.18, 17.5742, 0.000335987, NaN, NaN, NaN, 0.0701947, "- N/A -   "
0.19, 17.8101, 0.000355424, NaN, NaN, NaN, 0.0689739, "- N/A -   "
0.2, 18.16391, 3.748615E-4, NaN, NaN, NaN, 0.06653238, "- N/A -   "
0.21, 18.6357, 0.000394299, NaN, NaN, NaN, 0.0653116, "- N/A -   "
0.22, 18.9895, 4.13736E-4, NaN, NaN, NaN, 0.0640908, "- N/A -   "
0.23, 19.4613, 4.331733E-4, NaN, NaN, NaN, 0.06287005, "- N/A -   "
0.24, 19.8152, 0.000449834, NaN, NaN, NaN, 0.06287005, "- N/A -   "
0.25, 20.169, 4.720478E-4, NaN, NaN, NaN, 0.0604285, "- N/A -   "
0.26, 20.6408, 0.000491485, NaN, NaN, NaN, 0.0592077, "- N/A -   "
0.32, 22.9998, 6.136621E-4, NaN, NaN, NaN, 0.0494415, "- N/A -   "
0.38, 25.2408, 7.302857E-4, NaN, NaN, NaN, 0.0433376, "- N/A -   "
0.44, 27.3638, 0.000833026, NaN, NaN, NaN, 0.04089605, "- N/A -   "
0.5, 29.6048, 0.000946872, NaN, NaN, NaN, 0.0347922, "- N/A -   "
0.56, 31.9638, 0.00105517, NaN, NaN, NaN, 0.03112983, "- N/A -   "
0.62, 33.8509, 0.00115513, NaN, NaN, NaN, 0.03112983, "- N/A -   "
0.68, 35.6201, 0.00124676, NaN, NaN, NaN, 0.0347922, "- N/A -   "
0.74, 37.5073, 0.00133284, NaN, NaN, NaN, 0.04089605, "- N/A -   "
0.8, 39.15856, 0.00141892, NaN, NaN, NaN, 0.04699994, "- N/A -   "
0.86, 41.39956, 0.00152721, NaN, NaN, NaN, 0.0433376, "- N/A -   "
0.92, 43.75851, 0.00162995, NaN, NaN, NaN, 0.04211683, "- N/A -   "
0.98, 45.8816, 0.00173269, NaN, NaN, NaN, 0.04089605, "- N/A -   "
1.04, 48.2405, 0.00184654, NaN, NaN, NaN, 0.0347922, "- N/A -   "
1.1, 50.83536, 0.00196316, NaN, NaN, NaN, 0.0274675, "- N/A -   "
1.16, 52.9584, 0.00206035, NaN, NaN, NaN, 0.0286883, "- N/A -   "
1.22, 55.3174, 0.00216031, NaN, NaN, NaN, 0.0286883, "- N/A -   "
1.28, 57.32247, 0.00225195, NaN, NaN, NaN, 0.0323506, "- N/A -   "
1.34, 59.4455, 0.00234636, NaN, NaN, NaN, 0.0347922, "- N/A -   "
1.4, 61.56858, 0.00244076, NaN, NaN, NaN, 0.0372337, "- N/A -   "
1.46, 63.80958, 0.002540728, NaN, NaN, NaN, 0.0372337, "- N/A -   "
1.52, 65.93263, 0.00262958, NaN, NaN, NaN, 0.04211683, "- N/A -   "
1.58, 68.05569, 0.00272399, NaN, NaN, NaN, 0.0445584, "- N/A -   "
1.64, 70.29669, 0.00282396, NaN, NaN, NaN, 0.0445584, "- N/A -   "
1.7, 72.89154, 0.0029378, NaN, NaN, NaN, 0.0384545, "- N/A -   "
1.76, 75.48638, 0.0030461, NaN, NaN, NaN, 0.0347922, "- N/A -   "
1.82, 77.84533, 0.00315161, NaN, NaN, NaN, 0.0323506, "- N/A -   "
1.88, 79.96838, 0.0032488, NaN, NaN, NaN, 0.0347922, "- N/A -   "
1.94, 82.20939, 0.00334043, NaN, NaN, NaN, 0.0372337, "- N/A -   "
2, 84.56834, 0.0034515, NaN, NaN, NaN, 0.0323506, "- N/A -   "
2.06, 86.92729, 0.00354869, NaN, NaN, NaN, 0.0335714, "- N/A -   "
2.12, 88.9324, 0.00363754, NaN, NaN, NaN, 0.0384545, "- N/A -   "
2.18, 91.05545, 0.00372918, NaN, NaN, NaN, 0.0433376, "- N/A -   "
2.24, 93.65029, 0.00383469, NaN, NaN, NaN, 0.0396753, "- N/A -   "
2.3, 96.00924, 0.003937434, NaN, NaN, NaN, 0.0396753, "- N/A -   "
2.36, 98.3682, 0.004040174, NaN, NaN, NaN, 0.0372337, "- N/A -   "
2.42, 100.845, 0.00414569, NaN, NaN, NaN, 0.03601294, "- N/A -   "
2.48, 103.204, 0.00424843, NaN, NaN, NaN, 0.0335714, "- N/A -   "
2.54, 105.563, 0.00435117, NaN, NaN, NaN, 0.0323506, "- N/A -   "
2.6, 108.158, 0.00445391, NaN, NaN, NaN, 0.03112983, "- N/A -   "
2.66, 110.399, 0.004553873, NaN, NaN, NaN, 0.03112983, "- N/A -   "
2.72, 112.64, 0.00465106, NaN, NaN, NaN, 0.0335714, "- N/A -   "
2.78, 114.999, 0.00474825, NaN, NaN, NaN, 0.0347922, "- N/A -   "
2.84, 117.24, 0.00484821, NaN, NaN, NaN, 0.0347922, "- N/A -   "
2.9, 119.363, 0.004937065, NaN, NaN, NaN, 0.0384545, "- N/A -   "
2.96, 121.604, 0.005031475, NaN, NaN, NaN, 0.04089605, "- N/A -   "
3.02, 123.7269, 0.005123107, NaN, NaN, NaN, 0.0445584, "- N/A -   "
3.08, 126.44, 0.00522862, NaN, NaN, NaN, 0.04211683, "- N/A -   "
3.14, 129.035, 0.005342471, NaN, NaN, NaN, 0.03601294, "- N/A -   "
3.2, 131.511, 0.00544521, NaN, NaN, NaN, 0.0347922, "- N/A -   "
3.26, 133.87, 0.00554517, NaN, NaN, NaN, 0.0347922, "- N/A -   "
3.32, 136.347, 0.00564791, NaN, NaN, NaN, 0.0335714, "- N/A -   "
3.38, 139.06, 0.00576176, NaN, NaN, NaN, 0.0286883, "- N/A -   "
3.44, 141.537, 0.005858946, NaN, NaN, NaN, 0.0286883, "- N/A -   "
3.5, 143.306, 0.005945026, NaN, NaN, NaN, 0.0347922, "- N/A -   "
3.56, 145.429, 0.006028328, NaN, NaN, NaN, 0.04211683, "- N/A -   "
3.62, 147.552, 0.00611996, NaN, NaN, NaN, 0.0482207, "- N/A -   "
3.68, 150.029, 0.006219924, NaN, NaN, NaN, 0.04699994, "- N/A -   "
3.74, 152.86, 0.00633377, NaN, NaN, NaN, 0.04211683, "- N/A -   "
3.8, 155.573, 0.006447618, NaN, NaN, NaN, 0.03601294, "- N/A -   "
3.86, 158.0496, 0.006550358, NaN, NaN, NaN, 0.0335714, "- N/A -   "
3.92, 160.644, 0.006655874, NaN, NaN, NaN, 0.03112983, "- N/A -   "
3.98, 163.121, 0.006764168, NaN, NaN, NaN, 0.0274675, "- N/A -   "
4.04, 165.598, 0.00686413, NaN, NaN, NaN, 0.0274675, "- N/A -   "
4.1, 167.603, 0.00695299, NaN, NaN, NaN, 0.0335714, "- N/A -   "
4.16, 169.726, 0.00703907, NaN, NaN, NaN, 0.0384545, "- N/A -   "
4.22, 171.732, 0.007125145, NaN, NaN, NaN, 0.0445584, "- N/A -   "
4.28, 174.208, 0.00722511, NaN, NaN, NaN, 0.04577916, "- N/A -   "
4.34, 176.6853, 0.007325071, NaN, NaN, NaN, 0.0445584, "- N/A -   "
4.4, 179.044, 0.00742503, NaN, NaN, NaN, 0.04577916, "- N/A -   "
4.46, 181.757, 0.00753333, NaN, NaN, NaN, 0.04089605, "- N/A -   "
4.52, 184.824, 0.00765273, NaN, NaN, NaN, 0.0323506, "- N/A -   "
4.58, 187.301, 0.00775547, NaN, NaN, NaN, 0.03112983, "- N/A -   "
4.64, 189.66, 0.007849877, NaN, NaN, NaN, 0.0335714, "- N/A -   "
4.7, 191.901, 0.007947063, NaN, NaN, NaN, 0.03601294, "- N/A -   "
4.76, 194.377, 0.008047027, NaN, NaN, NaN, 0.03601294, "- N/A -   "
4.82, 196.854, 0.008144213, NaN, NaN, NaN, 0.03601294, "- N/A -   "
4.88, 199.213, 0.008238623, NaN, NaN, NaN, 0.0384545, "- N/A -   "
4.94, 201.2184, 0.008330256, NaN, NaN, NaN, 0.0433376, "- N/A -   "
5, 203.813, 0.008427442, NaN, NaN, NaN, 0.0433376, "- N/A -   "
5.06, 206.526, 0.008530182, NaN, NaN, NaN, 0.04211683, "- N/A -   "
5.12, 209.357, 0.008646806, NaN, NaN, NaN, 0.03601294, "- N/A -   "
5.18, 212.07, 0.008755099, NaN, NaN, NaN, 0.03112983, "- N/A -   "
5.24, 214.4285, 0.008855062, NaN, NaN, NaN, 0.03112983, "- N/A -   "
5.3, 216.905, 0.008952248, NaN, NaN, NaN, 0.0335714, "- N/A -   "
5.36, 219.264, 0.009046658, NaN, NaN, NaN, 0.0347922, "- N/A -   "
5.42, 221.859, 0.009154951, NaN, NaN, NaN, 0.03112983, "- N/A -   "
5.48, 224.218, 0.00924936, NaN, NaN, NaN, 0.0347922, "- N/A -   "
5.54, 226.459, 0.009338216, NaN, NaN, NaN, 0.0384545, "- N/A -   "
5.6, 228.7, 0.00942985, NaN, NaN, NaN, 0.04211683, "- N/A -   "
5.66, 231.295, 0.009535366, NaN, NaN, NaN, 0.04089605, "- N/A -   "
5.72, 233.772, 0.009629776, NaN, NaN, NaN, 0.04211683, "- N/A -   "
5.78, 236.367, 0.009735292, NaN, NaN, NaN, 0.0396753, "- N/A -   "
5.84, 238.962, 0.009838033, NaN, NaN, NaN, 0.0384545, "- N/A -   "
5.9, 241.321, 0.009937996, NaN, NaN, NaN, 0.0384545, "- N/A -   "
5.96, 244.032, 0.0100463, NaN, NaN, NaN, 0.03601294, "- N/A -   "
6.02, 246.86, 0.0101518, NaN, NaN, NaN, 0.0323506, "- N/A -   "
6.08, 249.098, 0.010249, NaN, NaN, NaN, 0.0335714, "- N/A -   "
6.14, 251.5726, 0.0103517, NaN, NaN, NaN, 0.0335714, "- N/A -   "
6.2, 254.283, 0.0104572, NaN, NaN, NaN, 0.0299091, "- N/A -   "
6.26, 256.403, 0.01054888, NaN, NaN, NaN, 0.0335714, "- N/A -   "
6.32, 258.524, 0.0106322, NaN, NaN, NaN, 0.04089605, "- N/A -   "
6.38, 261.117, 0.0107294, NaN, NaN, NaN, 0.04211683, "- N/A -   "
6.44, 263.591, 0.0108293, NaN, NaN, NaN, 0.04211683, "- N/A -   "
6.5, 266.183, 0.0109321, NaN, NaN, NaN, 0.04089605, "- N/A -   "
6.56, 269.011, 0.0110459, NaN, NaN, NaN, 0.0347922, "- N/A -   "
6.62, 271.7209, 0.0111514, NaN, NaN, NaN, 0.0323506, "- N/A -   "
6.68, 274.0774, 0.0112514, NaN, NaN, NaN, 0.0335714, "- N/A -   "
6.74, 276.67, 0.0113541, NaN, NaN, NaN, 0.0323506, "- N/A -   "
6.8, 279.38, 0.0114652, NaN, NaN, NaN, 0.0262467, "- N/A -   "
6.86, 281.618, 0.0115568, NaN, NaN, NaN, 0.0299091, "- N/A -   "
6.92, 283.6213, 0.0116429, NaN, NaN, NaN, 0.03601294, "- N/A -   "
6.98, 285.7422, 0.011729, NaN, NaN, NaN, 0.04211683, "- N/A -   "
7.04, 287.981, 0.0118206, NaN, NaN, NaN, 0.04577916, "- N/A -   "
7.1, 290.573, 0.0119261, NaN, NaN, NaN, 0.0433376, "- N/A -   "
7.16, 293.283, 0.0120344, NaN, NaN, NaN, 0.0396753, "- N/A -   "
7.22, 295.8752, 0.0121427, NaN, NaN, NaN, 0.0372337, "- N/A -   "
7.28, 298.232, 0.0122455, NaN, NaN, NaN, 0.0347922, "- N/A -   "
7.34, 301.06, 0.012351, NaN, NaN, NaN, 0.0323506, "- N/A -   "
7.4, 303.416, 0.0124593, NaN, NaN, NaN, 0.0299091, "- N/A -   "
7.46, 306.008, 0.012562, NaN, NaN, NaN, 0.0274675, "- N/A -   "
7.52, 308.011, 0.0126481, NaN, NaN, NaN, 0.0335714, "- N/A -   "
7.58, 310.132, 0.0127397, NaN, NaN, NaN, 0.0384545, "- N/A -   "
7.64, 312.135, 0.0128286, NaN, NaN, NaN, 0.04211683, "- N/A -   "
7.7, 314.492, 0.012923, NaN, NaN, NaN, 0.0445584, "- N/A -   "
7.76, 316.848, 0.0130257, NaN, NaN, NaN, 0.0433376, "- N/A -   "
7.82, 319.323, 0.013134, NaN, NaN, NaN, 0.0396753, "- N/A -   "
7.88, 321.915, 0.0132451, NaN, NaN, NaN, 0.03601294, "- N/A -   "
7.94, 324.86, 0.0133562, NaN, NaN, NaN, 0.0299091, "- N/A -   "
8, 326.9813, 0.01345614, NaN, NaN, NaN, 0.0299091, "- N/A -   "
8.06, 329.456, 0.0135617, NaN, NaN, NaN, 0.0274675, "- N/A -   "
8.12, 331.694, 0.0136533, NaN, NaN, NaN, 0.03112983, "- N/A -   "
8.18, 333.815, 0.0137449, NaN, NaN, NaN, 0.03601294, "- N/A -   "
8.24, 336.054, 0.0138421, NaN, NaN, NaN, 0.0372337, "- N/A -   "
8.3, 338.2926, 0.0139365, NaN, NaN, NaN, 0.0396753, "- N/A -   "
8.36, 340.413, 0.0140282, NaN, NaN, NaN, 0.0445584, "- N/A -   "
8.42, 342.652, 0.0141253, NaN, NaN, NaN, 0.04577916, "- N/A -   "
8.48, 345.244, 0.0142336, NaN, NaN, NaN, 0.04089605, "- N/A -   "
8.54, 348.072, 0.0143475, NaN, NaN, NaN, 0.0347922, "- N/A -   "
8.6, 350.7822, 0.0144641, NaN, NaN, NaN, 0.0286883, "- N/A -   "
8.66, 352.785, 0.014553, NaN, NaN, NaN, 0.0323506, "- N/A -   "
8.72, 354.788, 0.0146418, NaN, NaN, NaN, 0.0372337, "- N/A -   "
8.78, 357.145, 0.0147362, NaN, NaN, NaN, 0.0396753, "- N/A -   "
8.84, 359.737, 0.0148501, NaN, NaN, NaN, 0.0347922, "- N/A -   "
8.9, 362.2113, 0.01495, NaN, NaN, NaN, 0.0335714, "- N/A -   "
8.96, 364.214, 0.0150361, NaN, NaN, NaN, 0.0396753, "- N/A -   "
9.02, 366.3352, 0.0151305, NaN, NaN, NaN, 0.04211683, "- N/A -   "
9.08, 368.9274, 0.015236, NaN, NaN, NaN, 0.0396753, "- N/A -   "
9.14, 371.2839, 0.0153332, NaN, NaN, NaN, 0.04089605, "- N/A -   "
9.2, 373.8761, 0.0154471, NaN, NaN, NaN, 0.0347922, "- N/A -   "
9.26, 376.35, 0.0155443, NaN, NaN, NaN, 0.03601294, "- N/A -   "
9.32, 378.589, 0.01564422, NaN, NaN, NaN, 0.03601294, "- N/A -   "
9.38, 381.063, 0.0157497, NaN, NaN, NaN, 0.0335714, "- N/A -   "
9.44, 383.7735, 0.0158553, NaN, NaN, NaN, 0.03112983, "- N/A -   "
9.5, 386.012, 0.0159552, NaN, NaN, NaN, 0.03112983, "- N/A -   "
9.56, 388.133, 0.0160496, NaN, NaN, NaN, 0.0347922, "- N/A -   "
9.62, 390.6074, 0.0161468, NaN, NaN, NaN, 0.0347922, "- N/A -   "
9.68, 392.8461, 0.016244, NaN, NaN, NaN, 0.0372337, "- N/A -   "
9.74, 394.967, 0.0163356, NaN, NaN, NaN, 0.0396753, "- N/A -   "
9.8, 397.0878, 0.0164245, NaN, NaN, NaN, 0.0445584, "- N/A -   "
9.86, 399.3265, 0.0165217, NaN, NaN, NaN, 0.04577916, "- N/A -   "
9.92, 401.9187, 0.01663, NaN, NaN, NaN, 0.0433376, "- N/A -   "
9.98, 404.864, 0.01674659, NaN, NaN, NaN, 0.03601294, "- N/A -   "
10.04, 407.339, 0.01684933, NaN, NaN, NaN, 0.0347922, "- N/A -   "
10.1, 409.5774, 0.016941, NaN, NaN, NaN, 0.0372337, "- N/A -   "
10.16, 412.052, 0.0170493, NaN, NaN, NaN, 0.0347922, "- N/A -   "
10.22, 414.762, 0.01715755, NaN, NaN, NaN, 0.0299091, "- N/A -   "
10.28, 417.118, 0.0172575, NaN, NaN, NaN, 0.0299091, "- N/A -   "
10.34, 419.121, 0.0173436, NaN, NaN, NaN, 0.03601294, "- N/A -   "
10.4, 421.2422, 0.01743245, NaN, NaN, NaN, 0.04089605, "- N/A -   "
10.46, 423.4809, 0.0175213, NaN, NaN, NaN, 0.04577916, "- N/A -   "
10.52, 425.955, 0.017624, NaN, NaN, NaN, 0.0445584, "- N/A -   "
10.58, 428.901, 0.0177434, NaN, NaN, NaN, 0.0372337, "- N/A -   "
10.64, 431.493, 0.017849, NaN, NaN, NaN, 0.0335714, "- N/A -   "
10.7, 433.85, 0.0179461, NaN, NaN, NaN, 0.0347922, "- N/A -   "
10.76, 436.56, 0.01806, NaN, NaN, NaN, 0.0299091, "- N/A -   "
10.82, 439.152, 0.0181627, NaN, NaN, NaN, 0.0274675, "- N/A -   "
10.88, 441.508, 0.01825992, NaN, NaN, NaN, 0.0286883, "- N/A -   "
10.94, 443.629, 0.0183488, NaN, NaN, NaN, 0.0335714, "- N/A -   "
11, 445.632, 0.0184376, NaN, NaN, NaN, 0.0396753, "- N/A -   "
11.06, 447.871, 0.0185265, NaN, NaN, NaN, 0.0433376, "- N/A -   "
11.12, 450.3452, 0.0186237, NaN, NaN, NaN, 0.0445584, "- N/A -   "
11.18, 452.702, 0.0187236, NaN, NaN, NaN, 0.0445584, "- N/A -   "
11.24, 455.412, 0.0188319, NaN, NaN, NaN, 0.04089605, "- N/A -   "
11.3, 458.122, 0.0189402, NaN, NaN, NaN, 0.0372337, "- N/A -   "
11.36, 460.9496, 0.0190596, NaN, NaN, NaN, 0.0286883, "- N/A -   "
11.42, 463.3061, 0.0191596, NaN, NaN, NaN, 0.0286883, "- N/A -   "
11.48, 465.78, 0.019254, NaN, NaN, NaN, 0.03112983, "- N/A -   "
11.54, 468.019, 0.01934563, NaN, NaN, NaN, 0.0347922, "- N/A -   "
11.6, 470.258, 0.0194373, NaN, NaN, NaN, 0.0384545, "- N/A -   "
11.66, 472.968, 0.01954278, NaN, NaN, NaN, 0.03601294, "- N/A -   "
11.72, 475.2065, 0.0196344, NaN, NaN, NaN, 0.0396753, "- N/A -   "
11.78, 477.445, 0.0197316, NaN, NaN, NaN, 0.04211683, "- N/A -   "
11.84, 479.802, 0.01982323, NaN, NaN, NaN, 0.0445584, "- N/A -   "
11.9, 482.512, 0.0199343, NaN, NaN, NaN, 0.04089605, "- N/A -   "
11.96, 485.5752, 0.0200509, NaN, NaN, NaN, 0.0323506, "- N/A -   "
12.02, 488.403, 0.020162, NaN, NaN, NaN, 0.0274675, "- N/A -   "
12.08, 490.5239, 0.0202536, NaN, NaN, NaN, 0.03112983, "- N/A -   "
12.14, 492.88, 0.020348, NaN, NaN, NaN, 0.0335714, "- N/A -   "
12.2, 495.237, 0.0204508, NaN, NaN, NaN, 0.0335714, "- N/A -   "
12.26, 497.947, 0.0205535, NaN, NaN, NaN, 0.03112983, "- N/A -   "
12.32, 500.186, 0.02064515, NaN, NaN, NaN, 0.0347922, "- N/A -   "
12.38, 502.424, 0.020734, NaN, NaN, NaN, 0.0396753, "- N/A -   "
12.44, 504.663, 0.02082564, NaN, NaN, NaN, 0.0433376, "- N/A -   "
12.5, 507.1374, 0.02092838, NaN, NaN, NaN, 0.04211683, "- N/A -   "
12.56, 509.612, 0.0210283, NaN, NaN, NaN, 0.04211683, "- N/A -   "
12.62, 512.5574, 0.0211422, NaN, NaN, NaN, 0.03601294, "- N/A -   "
12.68, 515.274, 0.0212449, NaN, NaN, NaN, 0.03601294, "- N/A -   "
12.74, 517.7581, 0.0213504, NaN, NaN, NaN, 0.0347922, "- N/A -   "
12.8, 520.597, 0.0214587, NaN, NaN, NaN, 0.0299091, "- N/A -   "
12.86, 522.8442, 0.02155315, NaN, NaN, NaN, 0.0323506, "- N/A -   "
12.92, 525.092, 0.0216476, NaN, NaN, NaN, 0.03601294, "- N/A -   "
12.98, 527.812, 0.0217475, NaN, NaN, NaN, 0.0347922, "- N/A -   "
13.04, 530.5325, 0.021853, NaN, NaN, NaN, 0.0323506, "- N/A -   "
13.1, 532.5432, 0.0219391, NaN, NaN, NaN, 0.0384545, "- N/A -   "
13.16, 535.0271, 0.0220363, NaN, NaN, NaN, 0.0396753, "- N/A -   "
13.22, 537.2744, 0.0221307, NaN, NaN, NaN, 0.0433376, "- N/A -   "
13.28, 539.758, 0.0222251, NaN, NaN, NaN, 0.04577916, "- N/A -   "
13.34, 542.8336, 0.022339, NaN, NaN, NaN, 0.0384545, "- N/A -   "
13.4, 545.909, 0.0224556, NaN, NaN, NaN, 0.03112983, "- N/A -   "
13.46, 548.1563, 0.02255, NaN, NaN, NaN, 0.0335714, "- N/A -   "
13.52, 550.6402, 0.02265, NaN, NaN, NaN, 0.0335714, "- N/A -   "
13.58, 553.361, 0.0227583, NaN, NaN, NaN, 0.0299091, "- N/A -   "
13.64, 556.0811, 0.022861, NaN, NaN, NaN, 0.0286883, "- N/A -   "
13.7, 558.3284, 0.0229526, NaN, NaN, NaN, 0.0323506, "- N/A -   "
13.76, 560.4575, 0.0230415, NaN, NaN, NaN, 0.0372337, "- N/A -   "
13.82, 562.587, 0.02312479, NaN, NaN, NaN, 0.0445584, "- N/A -   "
13.88, 564.9522, 0.0232192, NaN, NaN, NaN, 0.04699994, "- N/A -   "
13.94, 567.5544, 0.02332194, NaN, NaN, NaN, 0.04577916, "- N/A -   "
14, 570.511, 0.0234358, NaN, NaN, NaN, 0.0396753, "- N/A -   "
14.06, 573.4684, 0.0235469, NaN, NaN, NaN, 0.0347922, "- N/A -   "
14.12, 576.189, 0.0236551, NaN, NaN, NaN, 0.03112983, "- N/A -   "
14.18, 579.0276, 0.0237634, NaN, NaN, NaN, 0.0274675, "- N/A -   "
14.24, 581.2749, 0.0238551, NaN, NaN, NaN, 0.03112983, "- N/A -   "
14.3, 583.641, 0.0239523, NaN, NaN, NaN, 0.0323506, "- N/A -   "
14.36, 586.006, 0.0240411, NaN, NaN, NaN, 0.0372337, "- N/A -   "
14.42, 588.135, 0.02413, NaN, NaN, NaN, 0.04211683, "- N/A -   "
14.48, 590.3825, 0.0242216, NaN, NaN, NaN, 0.04577916, "- N/A -   "
14.54, 593.2213, 0.0243299, NaN, NaN, NaN, 0.04211683, "- N/A -   "
14.6, 595.8235, 0.0244299, NaN, NaN, NaN, 0.04211683, "- N/A -   "
14.66, 598.544, 0.02453538, NaN, NaN, NaN, 0.0396753, "- N/A -   "
14.72, 601.501, 0.0246492, NaN, NaN, NaN, 0.0347922, "- N/A -   "
14.78, 604.6945, 0.0247631, NaN, NaN, NaN, 0.0274675, "- N/A -   "
14.84, 606.9419, 0.0248575, NaN, NaN, NaN, 0.0299091, "- N/A -   "
14.9, 609.544, 0.0249574, NaN, NaN, NaN, 0.03112983, "- N/A -   "
14.96, 612.028, 0.0250546, NaN, NaN, NaN, 0.03112983, "- N/A -   "
15.02, 614.394, 0.0251463, NaN, NaN, NaN, 0.0347922, "- N/A -   "
15.08, 617.114, 0.025249, NaN, NaN, NaN, 0.0335714, "- N/A -   "
15.14, 619.2431, 0.0253351, NaN, NaN, NaN, 0.0396753, "- N/A -   "
15.2, 621.609, 0.0254295, NaN, NaN, NaN, 0.0433376, "- N/A -   "
15.26, 624.2108, 0.0255239, NaN, NaN, NaN, 0.0445584, "- N/A -   "
15.32, 627.1679, 0.02563775, NaN, NaN, NaN, 0.0396753, "- N/A -   "
15.38, 630.007, 0.0257433, NaN, NaN, NaN, 0.03601294, "- N/A -   "
15.44, 632.8454, 0.02585156, NaN, NaN, NaN, 0.0335714, "- N/A -   "
15.5, 635.211, 0.025946, NaN, NaN, NaN, 0.0347922, "- N/A -   "
15.56, 637.6949, 0.02604038, NaN, NaN, NaN, 0.0372337, "- N/A -   "
15.62, 640.415, 0.0261431, NaN, NaN, NaN, 0.03601294, "- N/A -   "
15.68, 643.3724, 0.02625419, NaN, NaN, NaN, 0.03112983, "- N/A -   "
15.74, 645.856, 0.0263514, NaN, NaN, NaN, 0.0323506, "- N/A -   "
15.8, 648.2219, 0.0264402, NaN, NaN, NaN, 0.0384545, "- N/A -   "
15.86, 650.5875, 0.0265346, NaN, NaN, NaN, 0.04089605, "- N/A -   "
15.92, 653.4263, 0.0266402, NaN, NaN, NaN, 0.0384545, "- N/A -   "
15.98, 655.91, 0.0267346, NaN, NaN, NaN, 0.04089605, "- N/A -   "
16.04, 658.7489, 0.0268373, NaN, NaN, NaN, 0.0384545, "- N/A -   "
16.1, 661.469, 0.0269428, NaN, NaN, NaN, 0.0372337, "- N/A -   "
16.16, 664.1898, 0.0270456, NaN, NaN, NaN, 0.0347922, "- N/A -   "
16.22, 666.792, 0.0271483, NaN, NaN, NaN, 0.0347922, "- N/A -   "
16.28, 669.749, 0.027251, NaN, NaN, NaN, 0.0323506, "- N/A -   "
16.34, 672.3512, 0.0273538, NaN, NaN, NaN, 0.03112983, "- N/A -   "
16.4, 674.953, 0.0274537, NaN, NaN, NaN, 0.03112983, "- N/A -   "
16.46, 677.556, 0.0275565, NaN, NaN, NaN, 0.0299091, "- N/A -   "
16.52, 679.803, 0.0276453, NaN, NaN, NaN, 0.03601294, "- N/A -   "
16.58, 682.2868, 0.027737, NaN, NaN, NaN, 0.0396753, "- N/A -   "
16.64, 684.7707, 0.02782583, NaN, NaN, NaN, 0.0433376, "- N/A -   "
16.7, 687.2546, 0.027923, NaN, NaN, NaN, 0.04577916, "- N/A -   "
16.76, 690.0933, 0.0280313, NaN, NaN, NaN, 0.04211683, "- N/A -   "
16.82, 693.287, 0.0281479, NaN, NaN, NaN, 0.0347922, "- N/A -   "
16.88, 696.1256, 0.0282507, NaN, NaN, NaN, 0.0335714, "- N/A -   "
16.94, 698.7278, 0.02834786, NaN, NaN, NaN, 0.0335714, "- N/A -   "
17, 701.448, 0.0284562, NaN, NaN, NaN, 0.03112983, "- N/A -   "
17.06, 704.287, 0.0285589, NaN, NaN, NaN, 0.0299091, "- N/A -   "
17.12, 706.6526, 0.0286505, NaN, NaN, NaN, 0.0323506, "- N/A -   "
17.18, 709.018, 0.0287422, NaN, NaN, NaN, 0.03601294, "- N/A -   "
17.24, 711.266, 0.02882546, NaN, NaN, NaN, 0.0445584, "- N/A -   "
17.3, 713.7495, 0.0289199, NaN, NaN, NaN, 0.04699994, "- N/A -   "
17.36, 716.5882, 0.0290282, NaN, NaN, NaN, 0.0433376, "- N/A -   "
17.42, 719.6635, 0.0291365, NaN, NaN, NaN, 0.0396753, "- N/A -   "
17.48, 722.621, 0.0292475, NaN, NaN, NaN, 0.0347922, "- N/A -   "
17.54, 725.4592, 0.029353, NaN, NaN, NaN, 0.0335714, "- N/A -   "
17.6, 728.298, 0.02945856, NaN, NaN, NaN, 0.0299091, "- N/A -   "
17.66, 730.9, 0.0295585, NaN, NaN, NaN, 0.03112983, "- N/A -   "
17.72, 733.6206, 0.0296585, NaN, NaN, NaN, 0.0299091, "- N/A -   "
17.78, 735.986, 0.02975012, NaN, NaN, NaN, 0.0347922, "- N/A -   "
17.84, 738.1153, 0.0298362, NaN, NaN, NaN, 0.04089605, "- N/A -   "
17.9, 740.481, 0.0299223, NaN, NaN, NaN, 0.04577916, "- N/A -   "
17.96, 743.32, 0.0300278, NaN, NaN, NaN, 0.0433376, "- N/A -   "
18.02, 746.0401, 0.030125, NaN, NaN, NaN, 0.0445584, "- N/A -   "
18.08, 748.761, 0.0302305, NaN, NaN, NaN, 0.04211683, "- N/A -   "
18.14, 751.954, 0.0303443, NaN, NaN, NaN, 0.03601294, "- N/A -   "
18.2, 755.0295, 0.0304582, NaN, NaN, NaN, 0.0299091, "- N/A -   "
18.26, 757.6317, 0.0305554, NaN, NaN, NaN, 0.03112983, "- N/A -   "
18.32, 760.2339, 0.0306526, NaN, NaN, NaN, 0.0323506, "- N/A -   "
18.38, 762.7178, 0.0307442, NaN, NaN, NaN, 0.03601294, "- N/A -   "
18.44, 765.0833, 0.03083583, NaN, NaN, NaN, 0.04089605, "- N/A -   "
18.5, 767.9221, 0.0309413, NaN, NaN, NaN, 0.0384545, "- N/A -   "
18.56, 770.406, 0.0310302, NaN, NaN, NaN, 0.04211683, "- N/A -   "
18.62, 773.126, 0.0311274, NaN, NaN, NaN, 0.0433376, "- N/A -   "
18.68, 775.6103, 0.0312218, NaN, NaN, NaN, 0.04577916, "- N/A -   "
18.74, 778.804, 0.0313384, NaN, NaN, NaN, 0.0384545, "- N/A -   "
18.8, 781.9975, 0.031455, NaN, NaN, NaN, 0.0323506, "- N/A -   "
18.86, 784.718, 0.03155501, NaN, NaN, NaN, 0.03112983, "- N/A -   "
18.92, 787.2019, 0.03164942, NaN, NaN, NaN, 0.0335714, "- N/A -   "
18.98, 789.8041, 0.0317466, NaN, NaN, NaN, 0.03601294, "- N/A -   "
19.04, 792.525, 0.0318466, NaN, NaN, NaN, 0.0347922, "- N/A -   "
19.1, 795.4815, 0.0319549, NaN, NaN, NaN, 0.0323506, "- N/A -   "
19.16, 797.9654, 0.0320493, NaN, NaN, NaN, 0.0335714, "- N/A -   "
19.22, 800.213, 0.0321381, NaN, NaN, NaN, 0.0384545, "- N/A -   "
19.28, 802.697, 0.0322325, NaN, NaN, NaN, 0.04211683, "- N/A -   "
19.34, 805.6537, 0.0323325, NaN, NaN, NaN, 0.04089605, "- N/A -   "
19.4, 808.374, 0.032438, NaN, NaN, NaN, 0.0396753, "- N/A -   "
19.46, 811.4494, 0.0325435, NaN, NaN, NaN, 0.03601294, "- N/A -   "
19.52, 813.933, 0.0326379, NaN, NaN, NaN, 0.0384545, "- N/A -   "
19.58, 816.772, 0.0327435, NaN, NaN, NaN, 0.03601294, "- N/A -   "
19.64, 819.729, 0.032849, NaN, NaN, NaN, 0.0335714, "- N/A -   "
19.7, 822.331, 0.0329489, NaN, NaN, NaN, 0.0347922, "- N/A -   "
19.76, 824.9334, 0.0330461, NaN, NaN, NaN, 0.0347922, "- N/A -   "
19.82, 827.417, 0.0331433, NaN, NaN, NaN, 0.0372337, "- N/A -   "
19.88, 830.256, 0.03324605, NaN, NaN, NaN, 0.0347922, "- N/A -   "
19.94, 832.74, 0.0333405, NaN, NaN, NaN, 0.0384545, "- N/A -   "
20, 835.5787, 0.0334376, NaN, NaN, NaN, 0.0384545, "- N/A -   "
20.06, 838.0626, 0.0335293, NaN, NaN, NaN, 0.04211683, "- N/A -   "
20.12, 840.9014, 0.033632, NaN, NaN, NaN, 0.04211683, "- N/A -   "
20.18, 843.8584, 0.03374309, NaN, NaN, NaN, 0.03601294, "- N/A -   "
20.24, 846.8154, 0.0338486, NaN, NaN, NaN, 0.0335714, "- N/A -   "
20.3, 849.5359, 0.03394857, NaN, NaN, NaN, 0.0335714, "- N/A -   "
20.36, 852.256, 0.0340541, NaN, NaN, NaN, 0.0323506, "- N/A -   "
20.42, 855.0951, 0.0341568, NaN, NaN, NaN, 0.0299091, "- N/A -   "
20.48, 857.816, 0.0342596, NaN, NaN, NaN, 0.0286883, "- N/A -   "
20.54, 860.4177, 0.034354, NaN, NaN, NaN, 0.03112983, "- N/A -   "
20.6, 862.547, 0.0344373, NaN, NaN, NaN, 0.0384545, "- N/A -   "
20.66, 864.9124, 0.0345234, NaN, NaN, NaN, 0.0445584, "- N/A -   "
20.72, 867.6329, 0.0346205, NaN, NaN, NaN, 0.04577916, "- N/A -   "
20.78, 870.4716, 0.03473161, NaN, NaN, NaN, 0.04211683, "- N/A -   "
20.84, 873.5469, 0.03484268, NaN, NaN, NaN, 0.03601294, "- N/A -   "
20.9, 876.5039, 0.0349482, NaN, NaN, NaN, 0.0347922, "- N/A -   "
20.96, 879.343, 0.03505094, NaN, NaN, NaN, 0.0323506, "- N/A -   "
21.02, 882.2996, 0.0351592, NaN, NaN, NaN, 0.0286883, "- N/A -   "
21.08, 885.0201, 0.035262, NaN, NaN, NaN, 0.0286883, "- N/A -   "
21.14, 887.386, 0.0353536, NaN, NaN, NaN, 0.03112983, "- N/A -   "
21.2, 889.8696, 0.0354397, NaN, NaN, NaN, 0.0372337, "- N/A -   "
21.26, 892.117, 0.03552576, NaN, NaN, NaN, 0.0433376, "- N/A -   "
21.32, 894.6009, 0.03562295, NaN, NaN, NaN, 0.04577916, "- N/A -   "
21.38, 897.676, 0.03573124, NaN, NaN, NaN, 0.04211683, "- N/A -   "
21.44, 900.3966, 0.0358312, NaN, NaN, NaN, 0.04089605, "- N/A -   "
21.5, 903.235, 0.0359367, NaN, NaN, NaN, 0.0384545, "- N/A -   "
21.56, 906.547, 0.03605335, NaN, NaN, NaN, 0.03112983, "- N/A -   "
21.62, 909.386, 0.0361644, NaN, NaN, NaN, 0.0262467, "- N/A -   "
21.68, 912.343, 0.0362672, NaN, NaN, NaN, 0.0250259, "- N/A -   "
21.74, 914.59, 0.03635046, NaN, NaN, NaN, 0.0335714, "- N/A -   "
21.8, 916.956, 0.03644209, NaN, NaN, NaN, 0.0372337, "- N/A -   "
21.86, 919.558, 0.03653928, NaN, NaN, NaN, 0.0396753, "- N/A -   "
21.92, 922.515, 0.0366448, NaN, NaN, NaN, 0.0372337, "- N/A -   "
21.98, 924.7625, 0.0367281, NaN, NaN, NaN, 0.0433376, "- N/A -   "
22.04, 927.0098, 0.0368142, NaN, NaN, NaN, 0.0494415, "- N/A -   "
22.1, 930.2034, 0.03691969, NaN, NaN, NaN, 0.04699994, "- N/A -   "
22.16, 933.634, 0.0370446, NaN, NaN, NaN, 0.0372337, "- N/A -   "
22.22, 936.709, 0.0371585, NaN, NaN, NaN, 0.03112983, "- N/A -   "
22.28, 939.4293, 0.0372585, NaN, NaN, NaN, 0.0299091, "- N/A -   "
22.34, 941.7949, 0.0373473, NaN, NaN, NaN, 0.0347922, "- N/A -   "
22.4, 944.5154, 0.0374445, NaN, NaN, NaN, 0.03601294, "- N/A -   "
22.46, 947.3541, 0.03754724, NaN, NaN, NaN, 0.0347922, "- N/A -   "
22.52, 950.1929, 0.03765, NaN, NaN, NaN, 0.0335714, "- N/A -   "
22.58, 952.5585, 0.0377416, NaN, NaN, NaN, 0.0372337, "- N/A -   "
22.64, 954.9241, 0.03783047, NaN, NaN, NaN, 0.0433376, "- N/A -   "
22.7, 957.7628, 0.0379277, NaN, NaN, NaN, 0.0433376, "- N/A -   "
22.76, 960.602, 0.0380359, NaN, NaN, NaN, 0.04089605, "- N/A -   "
22.82, 963.322, 0.0381359, NaN, NaN, NaN, 0.0396753, "- N/A -   "
22.88, 966.5156, 0.03824698, NaN, NaN, NaN, 0.0347922, "- N/A -   "
22.94, 969.3544, 0.03834972, NaN, NaN, NaN, 0.0335714, "- N/A -   "
23, 971.72, 0.03844413, NaN, NaN, NaN, 0.03601294, "- N/A -   "
23.06, 974.677, 0.0385524, NaN, NaN, NaN, 0.0323506, "- N/A -   "
23.12, 977.516, 0.0386524, NaN, NaN, NaN, 0.0335714, "- N/A -   "
23.18, 979.881, 0.038744, NaN, NaN, NaN, 0.03601294, "- N/A -   "
23.24, 982.7201, 0.0388495, NaN, NaN, NaN, 0.0347922, "- N/A -   "
23.3, 985.6771, 0.0389523, NaN, NaN, NaN, 0.0323506, "- N/A -   "
23.36, 988.0427, 0.03904113, NaN, NaN, NaN, 0.0372337, "- N/A -   "
23.42, 990.4084, 0.0391328, NaN, NaN, NaN, 0.04089605, "- N/A -   "
23.48, 993.011, 0.0392272, NaN, NaN, NaN, 0.0445584, "- N/A -   "
23.54, 995.8493, 0.0393271, NaN, NaN, NaN, 0.0433376, "- N/A -   "
23.6, 999.043, 0.039441, NaN, NaN, NaN, 0.0372337, "- N/A -   "
23.66, 1002, 0.0395465, NaN, NaN, NaN, 0.0347922, "- N/A -   "
23.72, 1004.84, 0.03964646, NaN, NaN, NaN, 0.0347922, "- N/A -   "
23.78, 1007.559, 0.0397492, NaN, NaN, NaN, 0.0347922, "- N/A -   "
23.84, 1010.63, 0.0398575, NaN, NaN, NaN, 0.0299091, "- N/A -   "
23.9, 1013.24, 0.03995746, NaN, NaN, NaN, 0.0299091, "- N/A -   "
23.96, 1015.86, 0.0400463, NaN, NaN, NaN, 0.0347922, "- N/A -   "
24.02, 1018.01, 0.0401324, NaN, NaN, NaN, 0.04089605, "- N/A -   "
24.08, 1020.51, 0.040224, NaN, NaN, NaN, 0.04577916, "- N/A -   "
24.14, 1023.14, 0.0403212, NaN, NaN, NaN, 0.04577916, "- N/A -   "
24.2, 1026.24, 0.0404323, NaN, NaN, NaN, 0.04211683, "- N/A -   "
24.26, 1029.576, 0.0405461, NaN, NaN, NaN, 0.0347922, "- N/A -   "
24.32, 1032.56, 0.04065165, NaN, NaN, NaN, 0.0323506, "- N/A -   "
24.38, 1035.18, 0.04074883, NaN, NaN, NaN, 0.0335714, "- N/A -   "
24.44, 1038.16, 0.0408571, NaN, NaN, NaN, 0.0299091, "- N/A -   "
24.5, 1041.02, 0.04096542, NaN, NaN, NaN, 0.0274675, "- N/A -   "
24.56, 1043.65, 0.0410571, NaN, NaN, NaN, 0.0299091, "- N/A -   "
24.62, 1045.91, 0.04114313, NaN, NaN, NaN, 0.03601294, "- N/A -   "
24.68, 1048.3, 0.04123199, NaN, NaN, NaN, 0.04089605, "- N/A -   "
24.74, 1050.92, 0.0413264, NaN, NaN, NaN, 0.0433376, "- N/A -   "
24.8, 1053.66, 0.04142636, NaN, NaN, NaN, 0.0445584, "- N/A -   "
24.86, 1056.65, 0.0415263, NaN, NaN, NaN, 0.0433376, "- N/A -   "
24.92, 1059.63, 0.0416346, NaN, NaN, NaN, 0.0396753, "- N/A -   "
24.98, 1062.85, 0.0417512, NaN, NaN, NaN, 0.0323506, "- N/A -   "
25.04, 1065.83, 0.04185676, NaN, NaN, NaN, 0.0299091, "- N/A -   "
25.1, 1068.57, 0.0419539, NaN, NaN, NaN, 0.03112983, "- N/A -   "
25.16, 1071.08, 0.0420484, NaN, NaN, NaN, 0.0335714, "- N/A -   "
25.22, 1073.82, 0.0421428, NaN, NaN, NaN, 0.03601294, "- N/A -   "
25.28, 1076.442, 0.04223995, NaN, NaN, NaN, 0.0372337, "- N/A -   "
25.34, 1079.18, 0.0423399, NaN, NaN, NaN, 0.0384545, "- N/A -   "
25.4, 1081.69, 0.042426, NaN, NaN, NaN, 0.0433376, "- N/A -   "
25.46, 1084.19, 0.0425204, NaN, NaN, NaN, 0.04577916, "- N/A -   "
25.52, 1087.06, 0.0426231, NaN, NaN, NaN, 0.04577916, "- N/A -   "
25.58, 1090.51, 0.0427425, NaN, NaN, NaN, 0.03601294, "- N/A -   "
25.64, 1093.73, 0.04285639, NaN, NaN, NaN, 0.0299091, "- N/A -   "
25.7, 1096.48, 0.0429591, NaN, NaN, NaN, 0.0286883, "- N/A -   "
25.76, 1098.98, 0.0430452, NaN, NaN, NaN, 0.0347922, "- N/A -   "
25.82, 1101.6, 0.0431396, NaN, NaN, NaN, 0.0372337, "- N/A -   "
25.88, 1104.824, 0.04325624, NaN, NaN, NaN, 0.03112983, "- N/A -   "
25.94, 1107.686, 0.0433534, NaN, NaN, NaN, 0.03112983, "- N/A -   "
26, 1110.19, 0.0434423, NaN, NaN, NaN, 0.03601294, "- N/A -   "
26.06, 1112.69, 0.0435339, NaN, NaN, NaN, 0.0396753, "- N/A -   "
26.12, 1115.32, 0.04363388, NaN, NaN, NaN, 0.0396753, "- N/A -   "
26.18, 1118.3, 0.04373384, NaN, NaN, NaN, 0.0396753, "- N/A -   "
26.24, 1121.28, 0.0438394, NaN, NaN, NaN, 0.0372337, "- N/A -   "
26.3, 1124.26, 0.0439421, NaN, NaN, NaN, 0.0372337, "- N/A -   "
26.36, 1127, 0.0440393, NaN, NaN, NaN, 0.0384545, "- N/A -   "
26.42, 1129.75, 0.044142, NaN, NaN, NaN, 0.0372337, "- N/A -   "
26.48, 1132.61, 0.0442448, NaN, NaN, NaN, 0.03601294, "- N/A -   "
26.54, 1135.71, 0.0443475, NaN, NaN, NaN, 0.0347922, "- N/A -   "
26.6, 1138.45, 0.0444502, NaN, NaN, NaN, 0.0347922, "- N/A -   "
26.66, 1141.32, 0.0445502, NaN, NaN, NaN, 0.0335714, "- N/A -   "
26.72, 1143.94, 0.0446446, NaN, NaN, NaN, 0.03601294, "- N/A -   "
26.78, 1146.443, 0.044739, NaN, NaN, NaN, 0.0396753, "- N/A -   "
26.84, 1148.95, 0.04483066, NaN, NaN, NaN, 0.04211683, "- N/A -   "
26.9, 1151.93, 0.0449278, NaN, NaN, NaN, 0.0433376, "- N/A -   "
26.96, 1155.15, 0.0450417, NaN, NaN, NaN, 0.0384545, "- N/A -   "
27.02, 1158.49, 0.04516109, NaN, NaN, NaN, 0.0299091, "- N/A -   "
27.08, 1161.111, 0.0452555, NaN, NaN, NaN, 0.03112983, "- N/A -   "
27.14, 1163.62, 0.04534436, NaN, NaN, NaN, 0.03601294, "- N/A -   "
27.2, 1166.48, 0.0454499, NaN, NaN, NaN, 0.0335714, "- N/A -   "
27.26, 1170.17, 0.0455721, NaN, NaN, NaN, 0.0238052, "- N/A -   "
27.32, 1172.08, 0.0456526, NaN, NaN, NaN, 0.0323506, "- N/A -   "
27.38, 1174.11, 0.04572755, NaN, NaN, NaN, 0.0433376, "- N/A -   "
27.44, 1176.73, 0.04582196, NaN, NaN, NaN, 0.04699994, "- N/A -   "
27.5, 1179.6, 0.04592192, NaN, NaN, NaN, 0.04577916, "- N/A -   "
27.56, 1182.58, 0.04602466, NaN, NaN, NaN, 0.04577916, "- N/A -   "
27.62, 1185.56, 0.046133, NaN, NaN, NaN, 0.04211683, "- N/A -   "
27.68, 1188.78, 0.04624958, NaN, NaN, NaN, 0.0347922, "- N/A -   "
27.74, 1191.88, 0.0463551, NaN, NaN, NaN, 0.03112983, "- N/A -   "
27.8, 1194.62, 0.04645506, NaN, NaN, NaN, 0.0323506, "- N/A -   "
27.86, 1197.72, 0.046555, NaN, NaN, NaN, 0.03112983, "- N/A -   "
27.92, 1200.34, 0.0466578, NaN, NaN, NaN, 0.03112983, "- N/A -   "
27.98, 1202.97, 0.0467522, NaN, NaN, NaN, 0.0323506, "- N/A -   "
28.04, 1205.59, 0.0468438, NaN, NaN, NaN, 0.0372337, "- N/A -   "
28.1, 1207.86, 0.04692711, NaN, NaN, NaN, 0.0433376, "- N/A -   "
28.16, 1210.48, 0.04702707, NaN, NaN, NaN, 0.0433376, "- N/A -   "
28.22, 1213.34, 0.04712703, NaN, NaN, NaN, 0.0445584, "- N/A -   "
28.28, 1216.21, 0.0472325, NaN, NaN, NaN, 0.04211683, "- N/A -   "
28.34, 1219.31, 0.04733529, NaN, NaN, NaN, 0.0396753, "- N/A -   "
28.4, 1222.88, 0.0474602, NaN, NaN, NaN, 0.0299091, "- N/A -   "
28.46, 1225.75, 0.0475658, NaN, NaN, NaN, 0.0262467, "- N/A -   "
28.52, 1228.37, 0.04766017, NaN, NaN, NaN, 0.0299091, "- N/A -   "
28.58, 1230.75, 0.0477463, NaN, NaN, NaN, 0.0347922, "- N/A -   "
28.64, 1233.62, 0.0478462, NaN, NaN, NaN, 0.0347922, "- N/A -   "
28.7, 1236.6, 0.04794895, NaN, NaN, NaN, 0.0335714, "- N/A -   "
28.76, 1239.1, 0.0480434, NaN, NaN, NaN, 0.03601294, "- N/A -   "
28.82, 1241.37, 0.04812944, NaN, NaN, NaN, 0.0433376, "- N/A -   "
28.88, 1244.23, 0.0482239, NaN, NaN, NaN, 0.0445584, "- N/A -   "
28.94, 1247.09, 0.04832659, NaN, NaN, NaN, 0.0433376, "- N/A -   "
29, 1250.55, 0.04844599, NaN, NaN, NaN, 0.0347922, "- N/A -   "
29.06, 1253.65, 0.0485543, NaN, NaN, NaN, 0.0323506, "- N/A -   "
29.12, 1256.39, 0.0486487, NaN, NaN, NaN, 0.0335714, "- N/A -   "
29.18, 1258.78, 0.0487431, NaN, NaN, NaN, 0.0372337, "- N/A -   "
29.24, 1261.64, 0.0488431, NaN, NaN, NaN, 0.0372337, "- N/A -   "
29.3, 1264.86, 0.0489541, NaN, NaN, NaN, 0.03112983, "- N/A -   "
29.36, 1267.48, 0.0490485, NaN, NaN, NaN, 0.0347922, "- N/A -   "
29.42, 1269.99, 0.0491374, NaN, NaN, NaN, 0.0384545, "- N/A -   "
29.48, 1272.49, 0.049229, NaN, NaN, NaN, 0.04211683, "- N/A -   "
29.54, 1275.47, 0.04933455, NaN, NaN, NaN, 0.04089605, "- N/A -   "
29.6, 1278.34, 0.0494345, NaN, NaN, NaN, 0.0396753, "- N/A -   "
29.66, 1281.32, 0.04954003, NaN, NaN, NaN, 0.0372337, "- N/A -   "
29.72, 1284.06, 0.04964, NaN, NaN, NaN, 0.0372337, "- N/A -   "
29.78, 1287.041, 0.04974551, NaN, NaN, NaN, 0.0347922, "- N/A -   "
29.84, 1290.14, 0.049851, NaN, NaN, NaN, 0.0323506, "- N/A -   "
29.9, 1293, 0.04995654, NaN, NaN, NaN, 0.0299091, "- N/A -   "
29.96, 1295.75, 0.05005373, NaN, NaN, NaN, 0.03112983, "- N/A -   "
30.02, 1298.49, 0.0501509, NaN, NaN, NaN, 0.0335714, "- N/A -   "
30.08, 1301.47, 0.05025643, NaN, NaN, NaN, 0.03112983, "- N/A -   "
30.14, 1303.97, 0.0503481, NaN, NaN, NaN, 0.0347922, "- N/A -   "
30.2, 1306.36, 0.0504341, NaN, NaN, NaN, 0.0396753, "- N/A -   "
30.26, 1308.86, 0.0505258, NaN, NaN, NaN, 0.0433376, "- N/A -   "
30.32, 1311.61, 0.050623, NaN, NaN, NaN, 0.0445584, "- N/A -   "
30.38, 1314.946, 0.0507368, NaN, NaN, NaN, 0.0396753, "- N/A -   "
30.44, 1318.05, 0.0508423, NaN, NaN, NaN, 0.03601294, "- N/A -   "
30.5, 1320.91, 0.05094507, NaN, NaN, NaN, 0.03601294, "- N/A -   "
30.56, 1323.77, 0.05104503, NaN, NaN, NaN, 0.0347922, "- N/A -   "
30.62, 1326.752, 0.05114777, NaN, NaN, NaN, 0.0347922, "- N/A -   "
30.68, 1329.85, 0.05125884, NaN, NaN, NaN, 0.0286883, "- N/A -   "
30.74, 1332.36, 0.05135325, NaN, NaN, NaN, 0.0323506, "- N/A -   "
30.8, 1334.74, 0.05143933, NaN, NaN, NaN, 0.0384545, "- N/A -   "
30.86, 1337.25, 0.0515254, NaN, NaN, NaN, 0.0445584, "- N/A -   "
30.92, 1339.75, 0.05161982, NaN, NaN, NaN, 0.04699994, "- N/A -   "
30.98, 1342.73, 0.0517226, NaN, NaN, NaN, 0.04699994, "- N/A -   "
31.04, 1346.07, 0.0518364, NaN, NaN, NaN, 0.0396753, "- N/A -   "
31.1, 1349.29, 0.0519475, NaN, NaN, NaN, 0.0347922, "- N/A -   "
31.16, 1352.39, 0.0520585, NaN, NaN, NaN, 0.03112983, "- N/A -   "
31.22, 1355.25, 0.05216406, NaN, NaN, NaN, 0.0286883, "- N/A -   "
31.28, 1358.23, 0.0522668, NaN, NaN, NaN, 0.0274675, "- N/A -   "
31.34, 1360.74, 0.0523584, NaN, NaN, NaN, 0.0299091, "- N/A -   "
31.4, 1363.243, 0.05245007, NaN, NaN, NaN, 0.0335714, "- N/A -   "
31.46, 1365.87, 0.0525389, NaN, NaN, NaN, 0.0384545, "- N/A -   "
31.52, 1368.13, 0.052625, NaN, NaN, NaN, 0.0445584, "- N/A -   "
31.58, 1370.99, 0.05272496, NaN, NaN, NaN, 0.0445584, "- N/A -   "
31.64, 1373.86, 0.05282493, NaN, NaN, NaN, 0.04577916, "- N/A -   "
31.7, 1376.72, 0.05292767, NaN, NaN, NaN, 0.0445584, "- N/A -   "
31.76, 1379.94, 0.05303874, NaN, NaN, NaN, 0.0396753, "- N/A -   "
31.82, 1383.52, 0.0531526, NaN, NaN, NaN, 0.0323506, "- N/A -   "
31.88, 1386.26, 0.0532581, NaN, NaN, NaN, 0.0299091, "- N/A -   "
31.94, 1389, 0.0533553, NaN, NaN, NaN, 0.0323506, "- N/A -   "
32, 1391.51, 0.0534441, NaN, NaN, NaN, 0.03601294, "- N/A -   "
32.06, 1394.01, 0.0535358, NaN, NaN, NaN, 0.04089605, "- N/A -   "
32.12, 1396.87, 0.05363574, NaN, NaN, NaN, 0.0396753, "- N/A -   "
32.18, 1399.73, 0.0537357, NaN, NaN, NaN, 0.0396753, "- N/A -   "
32.24, 1402.24, 0.0538273, NaN, NaN, NaN, 0.0445584, "- N/A -   "
32.3, 1404.98, 0.0539217, NaN, NaN, NaN, 0.04577916, "- N/A -   "
32.36, 1408.08, 0.05403004, NaN, NaN, NaN, 0.04211683, "- N/A -   "
32.42, 1411.42, 0.05414666, NaN, NaN, NaN, 0.0347922, "- N/A -   "
32.48, 1414.64, 0.0542605, NaN, NaN, NaN, 0.0299091, "- N/A -   "
32.54, 1417.5, 0.0543605, NaN, NaN, NaN, 0.0286883, "- N/A -   "
32.6, 1420.13, 0.0544521, NaN, NaN, NaN, 0.0323506, "- N/A -   "
32.66, 1423.11, 0.05455207, NaN, NaN, NaN, 0.0323506, "- N/A -   "
32.72, 1425.85, 0.0546493, NaN, NaN, NaN, 0.0335714, "- N/A -   "
32.78, 1428.35, 0.0547437, NaN, NaN, NaN, 0.03601294, "- N/A -   "
32.84, 1431.1, 0.0548381, NaN, NaN, NaN, 0.0384545, "- N/A -   "
32.9, 1433.48, 0.0549297, NaN, NaN, NaN, 0.04211683, "- N/A -   "
32.96, 1436.46, 0.0550269, NaN, NaN, NaN, 0.0433376, "- N/A -   "
33.02, 1439.21, 0.0551296, NaN, NaN, NaN, 0.04211683, "- N/A -   "
33.08, 1442.31, 0.0552379, NaN, NaN, NaN, 0.0384545, "- N/A -   "
33.14, 1445.41, 0.0553462, NaN, NaN, NaN, 0.03601294, "- N/A -   "
33.2, 1448.15, 0.05544618, NaN, NaN, NaN, 0.03601294, "- N/A -   "
33.26, 1451.13, 0.0555489, NaN, NaN, NaN, 0.0335714, "- N/A -   "
33.32, 1453.87, 0.0556461, NaN, NaN, NaN, 0.0347922, "- N/A -   "
33.38, 1456.62, 0.0557488, NaN, NaN, NaN, 0.0335714, "- N/A -   "
33.44, 1459.48, 0.0558433, NaN, NaN, NaN, 0.03601294, "- N/A -   "
33.5, 1462.22, 0.055946, NaN, NaN, NaN, 0.0347922, "- N/A -   "
33.56, 1464.96, 0.0560432, NaN, NaN, NaN, 0.03601294, "- N/A -   "
33.62, 1467.59, 0.05613759, NaN, NaN, NaN, 0.0396753, "- N/A -   "
33.68, 1470.09, 0.0562292, NaN, NaN, NaN, 0.04211683, "- N/A -   "
33.74, 1472.95, 0.0563236, NaN, NaN, NaN, 0.0445584, "- N/A -   "
33.8, 1476.06, 0.0564347, NaN, NaN, NaN, 0.04089605, "- N/A -   "
33.86, 1479.51, 0.05655133, NaN, NaN, NaN, 0.0335714, "- N/A -   "
33.92, 1482.495, 0.0566568, NaN, NaN, NaN, 0.0299091, "- N/A -   "
33.98, 1485.12, 0.056754, NaN, NaN, NaN, 0.03112983, "- N/A -   "
34.04, 1488.22, 0.05686233, NaN, NaN, NaN, 0.0274675, "- N/A -   "
34.1, 1491.2, 0.05696229, NaN, NaN, NaN, 0.0274675, "- N/A -   "
34.16, 1493.59, 0.05705392, NaN, NaN, NaN, 0.03112983, "- N/A -   "
34.22, 1495.97, 0.05714, NaN, NaN, NaN, 0.0372337, "- N/A -   "
34.28, 1498.36, 0.0572316, NaN, NaN, NaN, 0.04211683, "- N/A -   "
34.34, 1500.74, 0.05731771, NaN, NaN, NaN, 0.0482207, "- N/A -   "
34.4, 1503.6, 0.0574149, NaN, NaN, NaN, 0.0482207, "- N/A -   "
34.46, 1507.06, 0.0575343, NaN, NaN, NaN, 0.0396753, "- N/A -   "
34.52, 1510.4, 0.0576481, NaN, NaN, NaN, 0.0335714, "- N/A -   "
34.58, 1512.9, 0.05774811, NaN, NaN, NaN, 0.0335714, "- N/A -   "
34.64, 1516.124, 0.0578536, NaN, NaN, NaN, 0.03112983, "- N/A -   "
34.7, 1518.99, 0.05795359, NaN, NaN, NaN, 0.03112983, "- N/A -   "
34.76, 1521.85, 0.0580591, NaN, NaN, NaN, 0.0299091, "- N/A -   "
34.82, 1524.35, 0.05815074, NaN, NaN, NaN, 0.0323506, "- N/A -   "
34.88, 1526.74, 0.0582396, NaN, NaN, NaN, 0.0372337, "- N/A -   "
34.94, 1528.884, 0.0583229, NaN, NaN, NaN, 0.0445584, "- N/A -   "
35, 1531.87, 0.05842286, NaN, NaN, NaN, 0.0445584, "- N/A -   "
35.06, 1534.73, 0.0585284, NaN, NaN, NaN, 0.04211683, "- N/A -   "
35.12, 1537.83, 0.0586339, NaN, NaN, NaN, 0.0396753, "- N/A -   "
35.18, 1540.81, 0.0587422, NaN, NaN, NaN, 0.0372337, "- N/A -   "
35.24, 1544.27, 0.0588588, NaN, NaN, NaN, 0.0299091, "- N/A -   "
35.3, 1547.368, 0.0589699, NaN, NaN, NaN, 0.0250259, "- N/A -   "
35.36, 1549.87, 0.0590615, NaN, NaN, NaN, 0.0286883, "- N/A -   "
35.42, 1552.62, 0.0591587, NaN, NaN, NaN, 0.0299091, "- N/A -   "
35.48, 1555.24, 0.05925033, NaN, NaN, NaN, 0.0335714, "- N/A -   "
35.54, 1557.5, 0.0593392, NaN, NaN, NaN, 0.0384545, "- N/A -   "
35.6, 1560.37, 0.0594392, NaN, NaN, NaN, 0.0384545, "- N/A -   "
35.66, 1562.87, 0.059528, NaN, NaN, NaN, 0.0445584, "- N/A -   "
35.72, 1565.38, 0.0596196, NaN, NaN, NaN, 0.0482207, "- N/A -   "
35.78, 1568.36, 0.0597252, NaN, NaN, NaN, 0.04577916, "- N/A -   "
35.84, 1571.81, 0.0598446, NaN, NaN, NaN, 0.03601294, "- N/A -   "
35.9, 1574.92, 0.0599556, NaN, NaN, NaN, 0.0323506, "- N/A -   "
35.96, 1577.54, 0.0600473, NaN, NaN, NaN, 0.0347922, "- N/A -   "
36.02, 1580.04, 0.0601361, NaN, NaN, NaN, 0.0396753, "- N/A -   "
36.08, 1583.02, 0.0602416, NaN, NaN, NaN, 0.0372337, "- N/A -   "
36.14, 1586.125, 0.0603527, NaN, NaN, NaN, 0.0323506, "- N/A -   "
36.2, 1588.63, 0.06044711, NaN, NaN, NaN, 0.0347922, "- N/A -   "
36.26, 1591.13, 0.0605387, NaN, NaN, NaN, 0.0396753, "- N/A -   "
36.32, 1593.76, 0.0606332, NaN, NaN, NaN, 0.04089605, "- N/A -   "
36.38, 1596.74, 0.0607359, NaN, NaN, NaN, 0.0396753, "- N/A -   "
36.44, 1599.6, 0.0608359, NaN, NaN, NaN, 0.0396753, "- N/A -   "
36.5, 1602.58, 0.0609414, NaN, NaN, NaN, 0.0372337, "- N/A -   "
36.56, 1605.32, 0.06104411, NaN, NaN, NaN, 0.03601294, "- N/A -   "
36.62, 1607.83, 0.0611385, NaN, NaN, NaN, 0.0396753, "- N/A -   "
36.68, 1611.17, 0.0612496, NaN, NaN, NaN, 0.0335714, "- N/A -   "
36.74, 1614.27, 0.06135511, NaN, NaN, NaN, 0.0323506, "- N/A -   "
36.8, 1616.77, 0.06145507, NaN, NaN, NaN, 0.03112983, "- N/A -   "
36.86, 1619.63, 0.06155504, NaN, NaN, NaN, 0.0323506, "- N/A -   "
36.92, 1622.26, 0.0616494, NaN, NaN, NaN, 0.0335714, "- N/A -   "
36.98, 1624.76, 0.0617411, NaN, NaN, NaN, 0.0372337, "- N/A -   "
37.04, 1627.267, 0.06183271, NaN, NaN, NaN, 0.04211683, "- N/A -   "
37.1, 1629.89, 0.0619243, NaN, NaN, NaN, 0.0445584, "- N/A -   "
37.16, 1632.51, 0.0620215, NaN, NaN, NaN, 0.04699994, "- N/A -   "
37.22, 1635.61, 0.062127, NaN, NaN, NaN, 0.0433376, "- N/A -   "
37.28, 1639.07, 0.06224645, NaN, NaN, NaN, 0.0347922, "- N/A -   "
37.34, 1641.7, 0.06234641, NaN, NaN, NaN, 0.0347922, "- N/A -   "
37.4, 1644.68, 0.0624436, NaN, NaN, NaN, 0.03601294, "- N/A -   "
37.46, 1647.42, 0.0625491, NaN, NaN, NaN, 0.0335714, "- N/A -   "
37.52, 1650.521, 0.06266018, NaN, NaN, NaN, 0.0299091, "- N/A -   "
37.58, 1653.26, 0.06275737, NaN, NaN, NaN, 0.0299091, "- N/A -   "
37.64, 1655.53, 0.06284067, NaN, NaN, NaN, 0.0372337, "- N/A -   "
37.7, 1657.8, 0.0629295, NaN, NaN, NaN, 0.04211683, "- N/A -   "
37.76, 1660.3, 0.06301838, NaN, NaN, NaN, 0.04699994, "- N/A -   "
37.82, 1663.281, 0.0631239, NaN, NaN, NaN, 0.0445584, "- N/A -   "
37.88, 1666.62, 0.06324053, NaN, NaN, NaN, 0.0372337, "- N/A -   "
37.94, 1669.72, 0.06334882, NaN, NaN, NaN, 0.0335714, "- N/A -   "
38, 1672.46, 0.06344878, NaN, NaN, NaN, 0.0335714, "- N/A -   "
38.06, 1675.564, 0.06355985, NaN, NaN, NaN, 0.0286883, "- N/A -   "
38.12, 1678.66, 0.06366537, NaN, NaN, NaN, 0.0262467, "- N/A -   "
38.18, 1681.288, 0.0637681, NaN, NaN, NaN, 0.0250259, "- N/A -   "
38.24, 1683.55, 0.06384586, NaN, NaN, NaN, 0.0347922, "- N/A -   "
38.3, 1685.82, 0.0639319, NaN, NaN, NaN, 0.04089605, "- N/A -   "
38.36, 1688.32, 0.06402357, NaN, NaN, NaN, 0.04577916, "- N/A -   "
38.42, 1691.19, 0.0641263, NaN, NaN, NaN, 0.0433376, "- N/A -   "
38.48, 1693.81, 0.06422072, NaN, NaN, NaN, 0.04577916, "- N/A -   "
38.54, 1696.55, 0.06432068, NaN, NaN, NaN, 0.04577916, "- N/A -   "
38.6, 1699.89, 0.0644373, NaN, NaN, NaN, 0.0396753, "- N/A -   "
38.66, 1703.23, 0.0645567, NaN, NaN, NaN, 0.03112983, "- N/A -   "
38.72, 1706.21, 0.06465945, NaN, NaN, NaN, 0.0286883, "- N/A -   "
38.78, 1708.84, 0.06475385, NaN, NaN, NaN, 0.03112983, "- N/A -   "
38.84, 1711.22, 0.06484271, NaN, NaN, NaN, 0.03601294, "- N/A -   "
38.9, 1713.963, 0.0649399, NaN, NaN, NaN, 0.0372337, "- N/A -   "
38.96, 1716.71, 0.06504264, NaN, NaN, NaN, 0.03601294, "- N/A -   "
39.02, 1719.21, 0.0651343, NaN, NaN, NaN, 0.0396753, "- N/A -   "
39.08, 1721.83, 0.06523146, NaN, NaN, NaN, 0.04089605, "- N/A -   "
39.14, 1724.58, 0.06532586, NaN, NaN, NaN, 0.0433376, "- N/A -   "
39.2, 1727.68, 0.06543971, NaN, NaN, NaN, 0.0372337, "- N/A -   "
39.26, 1731.02, 0.06555911, NaN, NaN, NaN, 0.0299091, "- N/A -   "
39.32, 1733.88, 0.0656563, NaN, NaN, NaN, 0.0299091, "- N/A -   "
39.38, 1736.144, 0.06574793, NaN, NaN, NaN, 0.0347922, "- N/A -   "
39.44, 1738.89, 0.06584512, NaN, NaN, NaN, 0.03601294, "- N/A -   "
39.5, 1741.75, 0.06595341, NaN, NaN, NaN, 0.0323506, "- N/A -   "
39.56, 1744.97, 0.06605893, NaN, NaN, NaN, 0.0286883, "- N/A -   "
39.62, 1747.23, 0.066145, NaN, NaN, NaN, 0.03601294, "- N/A -   "
39.68, 1749.38, 0.06623109, NaN, NaN, NaN, 0.04089605, "- N/A -   "
39.74, 1751.89, 0.06632549, NaN, NaN, NaN, 0.0433376, "- N/A -   "
39.8, 1755.105, 0.06643657, NaN, NaN, NaN, 0.0396753, "- N/A -   "
39.86, 1757.85, 0.06653375, NaN, NaN, NaN, 0.04089605, "- N/A -   "
39.92, 1760.47, 0.0666337, NaN, NaN, NaN, 0.04089605, "- N/A -   "
39.98, 1763.45, 0.06673923, NaN, NaN, NaN, 0.0384545, "- N/A -   "
40.04, 1766.2, 0.06684197, NaN, NaN, NaN, 0.0372337, "- N/A -   "
40.1, 1769.18, 0.06694749, NaN, NaN, NaN, 0.0347922, "- N/A -   "
40.16, 1771.8, 0.0670447, NaN, NaN, NaN, 0.03601294, "- N/A -   "
40.22, 1774.54, 0.06715019, NaN, NaN, NaN, 0.0347922, "- N/A -   "
40.28, 1777.17, 0.0672446, NaN, NaN, NaN, 0.03601294, "- N/A -   "
40.34, 1779.91, 0.06734456, NaN, NaN, NaN, 0.03601294, "- N/A -   "
40.4, 1782.41, 0.067439, NaN, NaN, NaN, 0.0396753, "- N/A -   "
40.46, 1785.04, 0.06753616, NaN, NaN, NaN, 0.04089605, "- N/A -   "
40.52, 1787.66, 0.06763057, NaN, NaN, NaN, 0.04211683, "- N/A -   "
40.58, 1790.4, 0.06773331, NaN, NaN, NaN, 0.04211683, "- N/A -   "
40.64, 1793.5, 0.0678416, NaN, NaN, NaN, 0.0372337, "- N/A -   "
40.7, 1796.6, 0.06795267, NaN, NaN, NaN, 0.0323506, "- N/A -   "
40.76, 1799.59, 0.06805819, NaN, NaN, NaN, 0.0299091, "- N/A -   "
40.82, 1801.85, 0.06815537, NaN, NaN, NaN, 0.03112983, "- N/A -   "
40.88, 1804.59, 0.06825256, NaN, NaN, NaN, 0.0323506, "- N/A -   "
40.94, 1807.22, 0.06835252, NaN, NaN, NaN, 0.0323506, "- N/A -   "
41, 1809.72, 0.0684469, NaN, NaN, NaN, 0.0347922, "- N/A -   "
41.06, 1811.99, 0.06853301, NaN, NaN, NaN, 0.04089605, "- N/A -   "
41.12, 1814.13, 0.06861354, NaN, NaN, NaN, 0.0494415, "- N/A -   "
41.18, 1816.88, 0.0687135, NaN, NaN, NaN, 0.0494415, "- N/A -   "
41.24, 1820.22, 0.0688357, NaN, NaN, NaN, 0.04089605, "- N/A -   "
41.3, 1823.2, 0.06894397, NaN, NaN, NaN, 0.03601294, "- N/A -   "
41.36, 1826.06, 0.0690523, NaN, NaN, NaN, 0.0335714, "- N/A -   "
41.373, 1826.66, 0.0690717, NaN, NaN, NaN, 0.0335714, "- N/A -   "