File: 2_Tensile_Data/Hamel_ForceTest_Bolt10_Test3.csv
Time, Load (lb), Position (in), AxialStrain (in), TransverseStrain (in), Auxiliary (), Control Out (V), Stress (psi)
0.0, 1.29742, 0.0, NaN, NaN, NaN, 0.105597, "- N/A -   "
0.01, 1.53332, 2.77675e-05, NaN, NaN, NaN, 0.100714, "- N/A -   "
0.02, 1.88716, 5.5535e-05, NaN, NaN, NaN, 0.095831, "- N/A -   "
0.03, 2.241, 8.05258E-5, NaN, NaN, NaN, 0.09338949, "- N/A -   "
0.04, 2.476897, 0.000105517, NaN, NaN, NaN, 0.0897272, "- N/A -   "
0.05, 2.712792, 0.000127731, NaN, NaN, NaN, 0.08606482, "- N/A -   "
0.06, 3.06663, 0.000152721, NaN, NaN, NaN, 0.08362327, "- N/A -   "
0.07, 3.30253, 0.000174935, NaN, NaN, NaN, 0.08118171, "- N/A -   "
0.08, 3.65637, 0.000197149, NaN, NaN, NaN, 0.07751938, "- N/A -   "
0.09, 4.010214, 0.00022214, NaN, NaN, NaN, 0.07385705, "- N/A -   "
0.1, 4.36406, 0.000244354, NaN, NaN, NaN, 0.07141549, "- N/A -   "
0.11, 4.59995, 0.000269345, NaN, NaN, NaN, 0.06775316, "- N/A -   "
0.12, 4.953794, 0.000291559, NaN, NaN, NaN, 0.0653116, "- N/A -   "
0.13, 5.307636, 3.165497E-4, NaN, NaN, NaN, 0.06164927, "- N/A -   "
0.14, 5.66148, 0.00034154, NaN, NaN, NaN, 0.0592077, "- N/A -   "
0.15, 6.01532, 3.637545E-4, NaN, NaN, NaN, 0.0555454, "- N/A -   "
0.16, 6.369163, 0.000388745, NaN, NaN, NaN, 0.0531038, "- N/A -   "
0.17, 6.60506, 4.081825E-4, NaN, NaN, NaN, 0.05066227, "- N/A -   "
0.18, 6.84095, 4.276198E-4, NaN, NaN, NaN, 0.0494415, "- N/A -   "
0.19, 7.1948, 0.000447057, NaN, NaN, NaN, 0.0482207, "- N/A -   "
0.2, 7.548638, 4.664943E-4, NaN, NaN, NaN, 0.04699994, "- N/A -   "
0.21, 7.784533, 0.000485932, NaN, NaN, NaN, 0.04577916, "- N/A -   "
0.22, 8.138375, 5.081456E-4, NaN, NaN, NaN, 0.0445584, "- N/A -   "
0.23, 8.37427, 5.248061E-4, NaN, NaN, NaN, 0.0433376, "- N/A -   "
0.24, 8.610166, 5.442434E-4, NaN, NaN, NaN, 0.04211683, "- N/A -   "
0.25, 8.728113, 0.000560904, NaN, NaN, NaN, 0.04211683, "- N/A -   "
0.26, 9.081955, 5.831179E-4, NaN, NaN, NaN, 0.04089605, "- N/A -   "
0.27, 9.31785, 0.000602555, NaN, NaN, NaN, 0.0396753, "- N/A -   "
0.28, 9.671693, 6.219924E-4, NaN, NaN, NaN, 0.0384545, "- N/A -   "
0.29, 9.907588, 0.000638653, NaN, NaN, NaN, 0.0372337, "- N/A -   "
0.3, 10.1435, 0.00065809, NaN, NaN, NaN, 0.03601294, "- N/A -   "
0.31, 10.4973, 6.803042E-4, NaN, NaN, NaN, 0.0335714, "- N/A -   "
0.32, 10.73322, 6.997415E-4, NaN, NaN, NaN, 0.0323506, "- N/A -   "
0.33, 10.9691, 7.219555E-4, NaN, NaN, NaN, 0.03112983, "- N/A -   "
0.34, 11.323, 7.38616E-4, NaN, NaN, NaN, 0.0299091, "- N/A -   "
0.35, 11.5589, 0.000758053, NaN, NaN, NaN, 0.0286883, "- N/A -   "
0.36, 11.9127, 0.000774714, NaN, NaN, NaN, 0.0286883, "- N/A -   "
0.37, 12.0306, 0.000791374, NaN, NaN, NaN, 0.0286883, "- N/A -   "
0.38, 12.2665, 8.080348E-4, NaN, NaN, NaN, 0.0286883, "- N/A -   "
0.39, 12.5024, 0.000821919, NaN, NaN, NaN, 0.0299091, "- N/A -   "
0.4, 12.6204, 8.38579E-4, NaN, NaN, NaN, 0.0299091, "- N/A -   "
0.41, 12.9742, 8.552396E-4, NaN, NaN, NaN, 0.0299091, "- N/A -   "
0.43, 13.3281, 8.885606E-4, NaN, NaN, NaN, 0.03112983, "- N/A -   "
0.45, 13.7999, 9.218816E-4, NaN, NaN, NaN, 0.03112983, "- N/A -   "
0.47, 14.1537, 0.000949649, NaN, NaN, NaN, 0.0323506, "- N/A -   "
0.49, 14.6255, 9.774166E-4, NaN, NaN, NaN, 0.0347922, "- N/A -   "
0.51, 14.9793, 0.00100796, NaN, NaN, NaN, 0.03601294, "- N/A -   "
0.53, 15.4511, 0.00103851, NaN, NaN, NaN, 0.0372337, "- N/A -   "
0.55, 15.9229, 0.00106905, NaN, NaN, NaN, 0.0396753, "- N/A -   "
0.57, 16.1588, 0.001096817, NaN, NaN, NaN, 0.04211683, "- N/A -   "
0.59, 16.5126, 0.00112458, NaN, NaN, NaN, 0.0433376, "- N/A -   "
0.61, 16.9844, 0.00115791, NaN, NaN, NaN, 0.0445584, "- N/A -   "
0.63, 17.4562, 0.00118845, NaN, NaN, NaN, 0.0445584, "- N/A -   "
0.65, 18.046, 0.00122177, NaN, NaN, NaN, 0.0445584, "- N/A -   "
0.67, 18.3998, 0.00125509, NaN, NaN, NaN, 0.0445584, "- N/A -   "
0.69, 18.9895, 0.00129119, NaN, NaN, NaN, 0.0445584, "- N/A -   "
0.71, 19.3434, 0.00132173, NaN, NaN, NaN, 0.0445584, "- N/A -   "
0.73, 19.6972, 0.00135228, NaN, NaN, NaN, 0.04577916, "- N/A -   "
0.75, 20.169, 0.00138838, NaN, NaN, NaN, 0.04577916, "- N/A -   "
0.77, 20.7588, 0.001421697, NaN, NaN, NaN, 0.0445584, "- N/A -   "
0.79, 21.3485, 0.00145779, NaN, NaN, NaN, 0.0433376, "- N/A -   "
0.81, 21.8203, 0.00149112, NaN, NaN, NaN, 0.0433376, "- N/A -   "
0.83, 22.41, 0.00152721, NaN, NaN, NaN, 0.04211683, "- N/A -   "
0.85, 22.88181, 0.00156886, NaN, NaN, NaN, 0.0396753, "- N/A -   "
0.87, 23.3536, 0.00161052, NaN, NaN, NaN, 0.0347922, "- N/A -   "
0.89, 23.9433, 0.00165217, NaN, NaN, NaN, 0.0323506, "- N/A -   "
0.91, 24.5331, 0.00168827, NaN, NaN, NaN, 0.0299091, "- N/A -   "
0.93, 25.0049, 0.00172436, NaN, NaN, NaN, 0.0299091, "- N/A -   "
0.95, 25.4767, 0.00175491, NaN, NaN, NaN, 0.03112983, "- N/A -   "
0.97, 25.8305, 0.00178823, NaN, NaN, NaN, 0.03112983, "- N/A -   "
0.99, 26.4202, 0.00182155, NaN, NaN, NaN, 0.03112983, "- N/A -   "
1.01, 26.7741, 0.00185487, NaN, NaN, NaN, 0.0299091, "- N/A -   "
1.03, 27.2459, 0.00188819, NaN, NaN, NaN, 0.0299091, "- N/A -   "
1.05, 27.7177, 0.00192151, NaN, NaN, NaN, 0.0299091, "- N/A -   "
1.07, 28.1894, 0.00195206, NaN, NaN, NaN, 0.03112983, "- N/A -   "
1.09, 28.54329, 0.001982601, NaN, NaN, NaN, 0.0335714, "- N/A -   "
1.11, 29.0151, 0.00201037, NaN, NaN, NaN, 0.0347922, "- N/A -   "
1.13, 29.4869, 0.00204091, NaN, NaN, NaN, 0.03601294, "- N/A -   "
1.15, 29.9587, 0.00207423, NaN, NaN, NaN, 0.03601294, "- N/A -   "
1.17, 30.4304, 0.00211033, NaN, NaN, NaN, 0.03601294, "- N/A -   "
1.19, 31.0202, 0.00214365, NaN, NaN, NaN, 0.0347922, "- N/A -   "
1.21, 31.2561, 0.0021742, NaN, NaN, NaN, 0.0372337, "- N/A -   "
1.23, 31.8458, 0.00220752, NaN, NaN, NaN, 0.03601294, "- N/A -   "
1.25, 32.3176, 0.002238062, NaN, NaN, NaN, 0.0372337, "- N/A -   "
1.27, 32.67145, 0.00226583, NaN, NaN, NaN, 0.0396753, "- N/A -   "
1.29, 32.9073, 0.0022936, NaN, NaN, NaN, 0.0433376, "- N/A -   "
1.31, 33.3791, 0.00232136, NaN, NaN, NaN, 0.0445584, "- N/A -   "
1.33, 33.9689, 0.00235746, NaN, NaN, NaN, 0.0445584, "- N/A -   "
1.35, 34.4407, 0.00239078, NaN, NaN, NaN, 0.0433376, "- N/A -   "
1.37, 34.9125, 0.00242133, NaN, NaN, NaN, 0.0445584, "- N/A -   "
1.39, 35.2663, 0.00245465, NaN, NaN, NaN, 0.0445584, "- N/A -   "
1.41, 35.85603, 0.00249075, NaN, NaN, NaN, 0.0445584, "- N/A -   "
1.43, 36.5637, 0.00252962, NaN, NaN, NaN, 0.04089605, "- N/A -   "
1.45, 36.9176, 0.0025685, NaN, NaN, NaN, 0.0396753, "- N/A -   "
1.47, 37.5073, 0.00260459, NaN, NaN, NaN, 0.0372337, "- N/A -   "
1.49, 38.097, 0.00264347, NaN, NaN, NaN, 0.0347922, "- N/A -   "
1.51, 38.5688, 0.00268234, NaN, NaN, NaN, 0.0335714, "- N/A -   "
1.53, 39.15856, 0.00271844, NaN, NaN, NaN, 0.03112983, "- N/A -   "
1.55, 39.7483, 0.00275454, NaN, NaN, NaN, 0.0299091, "- N/A -   "
1.57, 40.10214, 0.00279064, NaN, NaN, NaN, 0.0299091, "- N/A -   "
1.59, 40.57393, 0.00282396, NaN, NaN, NaN, 0.0299091, "- N/A -   "
1.61, 41.04572, 0.002854501, NaN, NaN, NaN, 0.03112983, "- N/A -   "
1.63, 41.51751, 0.00288227, NaN, NaN, NaN, 0.0323506, "- N/A -   "
1.65, 41.8714, 0.002910036, NaN, NaN, NaN, 0.0347922, "- N/A -   "
1.67, 42.3431, 0.002943357, NaN, NaN, NaN, 0.0347922, "- N/A -   "
1.69, 42.8149, 0.00297668, NaN, NaN, NaN, 0.03601294, "- N/A -   "
1.71, 43.40467, 0.003009999, NaN, NaN, NaN, 0.03601294, "- N/A -   "
1.73, 43.87646, 0.00304332, NaN, NaN, NaN, 0.0347922, "- N/A -   "
1.75, 44.4662, 0.00307942, NaN, NaN, NaN, 0.0335714, "- N/A -   "
1.77, 45.17388, 0.00311829, NaN, NaN, NaN, 0.03112983, "- N/A -   "
1.79, 45.76362, 0.00315439, NaN, NaN, NaN, 0.03112983, "- N/A -   "
1.81, 46.23541, 0.00318493, NaN, NaN, NaN, 0.03112983, "- N/A -   "
1.83, 46.7072, 0.003215479, NaN, NaN, NaN, 0.0323506, "- N/A -   "
1.85, 47.179, 0.003243246, NaN, NaN, NaN, 0.0347922, "- N/A -   "
1.87, 47.65078, 0.00327657, NaN, NaN, NaN, 0.03601294, "- N/A -   "
1.89, 48.2405, 0.00330711, NaN, NaN, NaN, 0.03601294, "- N/A -   "
1.91, 48.7123, 0.003337656, NaN, NaN, NaN, 0.0372337, "- N/A -   "
1.93, 49.1841, 0.00336542, NaN, NaN, NaN, 0.0396753, "- N/A -   "
1.95, 49.5379, 0.003393191, NaN, NaN, NaN, 0.04211683, "- N/A -   "
1.97, 50.2456, 0.003426512, NaN, NaN, NaN, 0.04211683, "- N/A -   "
1.99, 50.83536, 0.003459833, NaN, NaN, NaN, 0.04211683, "- N/A -   "
2.01, 51.543, 0.00349871, NaN, NaN, NaN, 0.0396753, "- N/A -   "
2.03, 52.25073, 0.00353481, NaN, NaN, NaN, 0.0384545, "- N/A -   "
2.05, 52.84047, 0.00356813, NaN, NaN, NaN, 0.0384545, "- N/A -   "
2.07, 53.3123, 0.00360145, NaN, NaN, NaN, 0.0396753, "- N/A -   "
2.09, 53.902, 0.00363199, NaN, NaN, NaN, 0.0396753, "- N/A -   "
2.11, 54.4917, 0.00366531, NaN, NaN, NaN, 0.0396753, "- N/A -   "
2.13, 55.1994, 0.00370141, NaN, NaN, NaN, 0.0384545, "- N/A -   "
2.15, 55.9071, 0.00373751, NaN, NaN, NaN, 0.0384545, "- N/A -   "
2.17, 56.4968, 0.00377361, NaN, NaN, NaN, 0.0372337, "- N/A -   "
2.19, 57.08658, 0.00380693, NaN, NaN, NaN, 0.03601294, "- N/A -   "
2.21, 57.6763, 0.00383747, NaN, NaN, NaN, 0.0372337, "- N/A -   "
2.23, 58.26605, 0.00387357, NaN, NaN, NaN, 0.0372337, "- N/A -   "
2.25, 58.9737, 0.00390689, NaN, NaN, NaN, 0.03601294, "- N/A -   "
2.27, 59.4455, 0.00394021, NaN, NaN, NaN, 0.0372337, "- N/A -   "
2.29, 60.0353, 0.00397076, NaN, NaN, NaN, 0.0372337, "- N/A -   "
2.31, 60.7429, 0.00400408, NaN, NaN, NaN, 0.0372337, "- N/A -   "
2.33, 61.2147, 0.0040374, NaN, NaN, NaN, 0.0372337, "- N/A -   "
2.35, 61.9224, 0.00407072, NaN, NaN, NaN, 0.0372337, "- N/A -   "
2.37, 62.6301, 0.004106816, NaN, NaN, NaN, 0.03601294, "- N/A -   "
2.39, 63.2198, 0.00414014, NaN, NaN, NaN, 0.03601294, "- N/A -   "
2.41, 63.80958, 0.004176235, NaN, NaN, NaN, 0.03601294, "- N/A -   "
2.43, 64.5173, 0.00420956, NaN, NaN, NaN, 0.0347922, "- N/A -   "
2.45, 65.107, 0.00424288, NaN, NaN, NaN, 0.0347922, "- N/A -   "
2.47, 65.81469, 0.004276198, NaN, NaN, NaN, 0.0347922, "- N/A -   "
2.49, 66.40443, 0.00430952, NaN, NaN, NaN, 0.0347922, "- N/A -   "
2.51, 66.99416, 0.004345617, NaN, NaN, NaN, 0.0335714, "- N/A -   "
2.53, 67.70185, 0.00437894, NaN, NaN, NaN, 0.0335714, "- N/A -   "
2.55, 68.29159, 0.00441504, NaN, NaN, NaN, 0.0323506, "- N/A -   "
2.57, 68.9993, 0.00444836, NaN, NaN, NaN, 0.0323506, "- N/A -   "
2.59, 69.589, 0.004481678, NaN, NaN, NaN, 0.0323506, "- N/A -   "
2.61, 70.29669, 0.004515, NaN, NaN, NaN, 0.0323506, "- N/A -   "
2.63, 70.88643, 0.004542766, NaN, NaN, NaN, 0.0347922, "- N/A -   "
2.65, 71.4762, 0.00457331, NaN, NaN, NaN, 0.03601294, "- N/A -   "
2.67, 72.06591, 0.004603855, NaN, NaN, NaN, 0.0384545, "- N/A -   "
2.69, 72.77359, 0.004634399, NaN, NaN, NaN, 0.0384545, "- N/A -   "
2.71, 73.36333, 0.004664943, NaN, NaN, NaN, 0.0396753, "- N/A -   "
2.73, 73.9531, 0.00469549, NaN, NaN, NaN, 0.04089605, "- N/A -   "
2.75, 74.5428, 0.00472881, NaN, NaN, NaN, 0.04211683, "- N/A -   "
2.77, 75.25049, 0.004759353, NaN, NaN, NaN, 0.04211683, "- N/A -   "
2.79, 75.95817, 0.004792674, NaN, NaN, NaN, 0.0433376, "- N/A -   "
2.81, 76.6659, 0.004825995, NaN, NaN, NaN, 0.04211683, "- N/A -   "
2.83, 77.49149, 0.004864869, NaN, NaN, NaN, 0.04089605, "- N/A -   "
2.85, 78.08122, 0.00489819, NaN, NaN, NaN, 0.0396753, "- N/A -   "
2.87, 78.90686, 0.004934288, NaN, NaN, NaN, 0.0384545, "- N/A -   "
2.89, 79.73249, 0.004973163, NaN, NaN, NaN, 0.03601294, "- N/A -   "
2.91, 80.44018, 0.005012037, NaN, NaN, NaN, 0.0335714, "- N/A -   "
2.93, 81.38376, 0.005050912, NaN, NaN, NaN, 0.0323506, "- N/A -   "
2.95, 81.8555, 0.005081456, NaN, NaN, NaN, 0.0323506, "- N/A -   "
2.97, 82.68118, 0.005114777, NaN, NaN, NaN, 0.0323506, "- N/A -   "
2.99, 83.27091, 0.005145321, NaN, NaN, NaN, 0.0335714, "- N/A -   "
3.01, 83.86065, 0.00517864, NaN, NaN, NaN, 0.0347922, "- N/A -   "
3.03, 84.56834, 0.00520919, NaN, NaN, NaN, 0.0347922, "- N/A -   "
3.05, 85.15807, 0.005239731, NaN, NaN, NaN, 0.03601294, "- N/A -   "
3.07, 85.86576, 0.00527583, NaN, NaN, NaN, 0.0347922, "- N/A -   "
3.09, 86.57345, 0.00531193, NaN, NaN, NaN, 0.0335714, "- N/A -   "
3.11, 87.39908, 0.005350801, NaN, NaN, NaN, 0.0323506, "- N/A -   "
3.13, 88.22471, 0.0053869, NaN, NaN, NaN, 0.03112983, "- N/A -   "
3.15, 88.9324, 0.005423, NaN, NaN, NaN, 0.0286883, "- N/A -   "
3.17, 89.6401, 0.00545632, NaN, NaN, NaN, 0.0286883, "- N/A -   "
3.19, 90.22981, 0.005486862, NaN, NaN, NaN, 0.0299091, "- N/A -   "
3.21, 90.81956, 0.00552018, NaN, NaN, NaN, 0.03112983, "- N/A -   "
3.23, 91.52724, 0.00555073, NaN, NaN, NaN, 0.03112983, "- N/A -   "
3.25, 92.117, 0.005586825, NaN, NaN, NaN, 0.03112983, "- N/A -   "
3.27, 92.82466, 0.005614592, NaN, NaN, NaN, 0.0323506, "- N/A -   "
3.29, 93.2965, 0.00564236, NaN, NaN, NaN, 0.0347922, "- N/A -   "
3.31, 94.0041, 0.005672904, NaN, NaN, NaN, 0.03601294, "- N/A -   "
3.33, 94.59387, 0.00570067, NaN, NaN, NaN, 0.0384545, "- N/A -   "
3.35, 95.06567, 0.00573122, NaN, NaN, NaN, 0.04089605, "- N/A -   "
3.37, 95.6554, 0.00575898, NaN, NaN, NaN, 0.04211683, "- N/A -   "
3.39, 96.24514, 0.00578953, NaN, NaN, NaN, 0.0433376, "- N/A -   "
3.41, 96.95282, 0.005820072, NaN, NaN, NaN, 0.0445584, "- N/A -   "
3.43, 97.54256, 0.00585339, NaN, NaN, NaN, 0.0445584, "- N/A -   "
3.45, 98.3682, 0.00588949, NaN, NaN, NaN, 0.0445584, "- N/A -   "
3.47, 98.9579, 0.00592281, NaN, NaN, NaN, 0.0445584, "- N/A -   "
3.49, 99.66561, 0.00595891, NaN, NaN, NaN, 0.0433376, "- N/A -   "
3.51, 100.3733, 0.00599501, NaN, NaN, NaN, 0.0433376, "- N/A -   "
3.53, 101.199, 0.006031105, NaN, NaN, NaN, 0.04211683, "- N/A -   "
3.55, 101.907, 0.006067203, NaN, NaN, NaN, 0.0396753, "- N/A -   "
3.57, 102.496, 0.006103301, NaN, NaN, NaN, 0.0384545, "- N/A -   "
3.59, 103.086, 0.006136622, NaN, NaN, NaN, 0.0384545, "- N/A -   "
3.61, 103.912, 0.006175496, NaN, NaN, NaN, 0.0372337, "- N/A -   "
3.63, 104.737, 0.00621159, NaN, NaN, NaN, 0.0347922, "- N/A -   "
3.65, 105.209, 0.006244915, NaN, NaN, NaN, 0.0347922, "- N/A -   "
3.67, 105.917, 0.006278236, NaN, NaN, NaN, 0.0347922, "- N/A -   "
3.69, 106.507, 0.006311557, NaN, NaN, NaN, 0.0347922, "- N/A -   "
3.71, 107.214, 0.006344878, NaN, NaN, NaN, 0.0347922, "- N/A -   "
3.73, 107.922, 0.006380976, NaN, NaN, NaN, 0.0335714, "- N/A -   "
3.75, 108.512, 0.00641985, NaN, NaN, NaN, 0.03112983, "- N/A -   "
3.77, 109.219, 0.00645317, NaN, NaN, NaN, 0.03112983, "- N/A -   "
3.79, 109.927, 0.00648649, NaN, NaN, NaN, 0.0323506, "- N/A -   "
3.81, 110.517, 0.00652259, NaN, NaN, NaN, 0.03112983, "- N/A -   "
3.83, 111.107, 0.006555911, NaN, NaN, NaN, 0.03112983, "- N/A -   "
3.85, 111.696, 0.00658646, NaN, NaN, NaN, 0.03112983, "- N/A -   "
3.87, 112.286, 0.006617, NaN, NaN, NaN, 0.0323506, "- N/A -   "
3.89, 112.876, 0.006650321, NaN, NaN, NaN, 0.0323506, "- N/A -   "
3.91, 113.465, 0.006678088, NaN, NaN, NaN, 0.0347922, "- N/A -   "
3.93, 113.937, 0.006705856, NaN, NaN, NaN, 0.0372337, "- N/A -   "
3.95, 114.527, 0.0067364, NaN, NaN, NaN, 0.0384545, "- N/A -   "
3.97, 115.117, 0.006766944, NaN, NaN, NaN, 0.04089605, "- N/A -   "
3.99, 115.471, 0.006794712, NaN, NaN, NaN, 0.0433376, "- N/A -   "
4.01, 116.06, 0.00682248, NaN, NaN, NaN, 0.0445584, "- N/A -   "
4.03, 116.65, 0.0068558, NaN, NaN, NaN, 0.0445584, "- N/A -   "
4.05, 117.358, 0.00688912, NaN, NaN, NaN, 0.0445584, "- N/A -   "
4.07, 117.947, 0.00692244, NaN, NaN, NaN, 0.0445584, "- N/A -   "
4.09, 118.537, 0.00695576, NaN, NaN, NaN, 0.0445584, "- N/A -   "
4.11, 119.245, 0.00698908, NaN, NaN, NaN, 0.04577916, "- N/A -   "
4.13, 119.717, 0.00701963, NaN, NaN, NaN, 0.04577916, "- N/A -   "
4.15, 120.424, 0.00705295, NaN, NaN, NaN, 0.04577916, "- N/A -   "
4.17, 121.014, 0.00708905, NaN, NaN, NaN, 0.0445584, "- N/A -   "
4.19, 121.84, 0.00712515, NaN, NaN, NaN, 0.0433376, "- N/A -   "
4.21, 122.547, 0.00716402, NaN, NaN, NaN, 0.04089605, "- N/A -   "
4.23, 123.255, 0.00720289, NaN, NaN, NaN, 0.0384545, "- N/A -   "
4.25, 123.845, 0.007241769, NaN, NaN, NaN, 0.03601294, "- N/A -   "
4.27, 124.788, 0.00728064, NaN, NaN, NaN, 0.0335714, "- N/A -   "
4.29, 125.496, 0.00731952, NaN, NaN, NaN, 0.03112983, "- N/A -   "
4.31, 126.086, 0.00735562, NaN, NaN, NaN, 0.0299091, "- N/A -   "
4.33, 126.794, 0.00739449, NaN, NaN, NaN, 0.0286883, "- N/A -   "
4.35, 127.501, 0.00742781, NaN, NaN, NaN, 0.0274675, "- N/A -   "
4.37, 127.973, 0.00746113, NaN, NaN, NaN, 0.0286883, "- N/A -   "
4.39, 128.563, 0.0074889, NaN, NaN, NaN, 0.0299091, "- N/A -   "
4.41, 129.152, 0.00751944, NaN, NaN, NaN, 0.03112983, "- N/A -   "
4.43, 129.742, 0.00754999, NaN, NaN, NaN, 0.0323506, "- N/A -   "
4.45, 130.096, 0.00758331, NaN, NaN, NaN, 0.0323506, "- N/A -   "
4.47, 130.804, 0.00761663, NaN, NaN, NaN, 0.0335714, "- N/A -   "
4.49, 131.393, 0.00764995, NaN, NaN, NaN, 0.0335714, "- N/A -   "
4.51, 132.101, 0.0076805, NaN, NaN, NaN, 0.0335714, "- N/A -   "
4.53, 132.455, 0.00771104, NaN, NaN, NaN, 0.0347922, "- N/A -   "
4.55, 133.045, 0.00774436, NaN, NaN, NaN, 0.0347922, "- N/A -   "
4.57, 133.634, 0.007774906, NaN, NaN, NaN, 0.0372337, "- N/A -   "
4.59, 134.224, 0.00780545, NaN, NaN, NaN, 0.0372337, "- N/A -   "
4.61, 134.814, 0.007838771, NaN, NaN, NaN, 0.0372337, "- N/A -   "
4.63, 135.522, 0.007872092, NaN, NaN, NaN, 0.0372337, "- N/A -   "
4.65, 136.111, 0.007905412, NaN, NaN, NaN, 0.0384545, "- N/A -   "
4.67, 136.583, 0.007935957, NaN, NaN, NaN, 0.0384545, "- N/A -   "
4.69, 137.055, 0.007966501, NaN, NaN, NaN, 0.04089605, "- N/A -   "
4.71, 137.6447, 0.007997046, NaN, NaN, NaN, 0.04089605, "- N/A -   "
4.73, 138.234, 0.008030367, NaN, NaN, NaN, 0.04089605, "- N/A -   "
4.75, 138.824, 0.008060911, NaN, NaN, NaN, 0.04211683, "- N/A -   "
4.77, 139.296, 0.008091455, NaN, NaN, NaN, 0.0433376, "- N/A -   "
4.79, 139.8857, 0.008121999, NaN, NaN, NaN, 0.0445584, "- N/A -   "
4.81, 140.593, 0.00815532, NaN, NaN, NaN, 0.0445584, "- N/A -   "
4.83, 141.183, 0.008191418, NaN, NaN, NaN, 0.0445584, "- N/A -   "
4.85, 141.891, 0.008227516, NaN, NaN, NaN, 0.04211683, "- N/A -   "
4.87, 142.5985, 0.00826639, NaN, NaN, NaN, 0.0396753, "- N/A -   "
4.89, 143.306, 0.008305265, NaN, NaN, NaN, 0.0384545, "- N/A -   "
4.91, 144.014, 0.008341363, NaN, NaN, NaN, 0.03601294, "- N/A -   "
4.93, 144.604, 0.008380237, NaN, NaN, NaN, 0.0347922, "- N/A -   "
4.95, 145.311, 0.008416335, NaN, NaN, NaN, 0.0335714, "- N/A -   "
4.97, 146.019, 0.008452433, NaN, NaN, NaN, 0.03112983, "- N/A -   "
4.99, 146.6087, 0.008485754, NaN, NaN, NaN, 0.03112983, "- N/A -   "
5.01, 147.0805, 0.008519075, NaN, NaN, NaN, 0.03112983, "- N/A -   "
5.03, 147.67, 0.008552396, NaN, NaN, NaN, 0.0323506, "- N/A -   "
5.05, 148.142, 0.00858294, NaN, NaN, NaN, 0.0335714, "- N/A -   "
5.07, 148.6138, 0.008613484, NaN, NaN, NaN, 0.0335714, "- N/A -   "
5.09, 149.204, 0.008644029, NaN, NaN, NaN, 0.0347922, "- N/A -   "
5.11, 149.793, 0.008674573, NaN, NaN, NaN, 0.03601294, "- N/A -   "
5.13, 150.265, 0.008707894, NaN, NaN, NaN, 0.03601294, "- N/A -   "
5.15, 150.973, 0.008741215, NaN, NaN, NaN, 0.0372337, "- N/A -   "
5.17, 151.68, 0.008777313, NaN, NaN, NaN, 0.0347922, "- N/A -   "
5.19, 152.27, 0.008813411, NaN, NaN, NaN, 0.0335714, "- N/A -   "
5.21, 152.978, 0.008849508, NaN, NaN, NaN, 0.0335714, "- N/A -   "
5.23, 153.45, 0.008880053, NaN, NaN, NaN, 0.0335714, "- N/A -   "
5.25, 154.0394, 0.008913374, NaN, NaN, NaN, 0.0335714, "- N/A -   "
5.27, 154.629, 0.008946694, NaN, NaN, NaN, 0.0335714, "- N/A -   "
5.29, 155.219, 0.008977239, NaN, NaN, NaN, 0.0347922, "- N/A -   "
5.31, 155.809, 0.009007784, NaN, NaN, NaN, 0.03601294, "- N/A -   "
5.33, 156.2804, 0.009038327, NaN, NaN, NaN, 0.0384545, "- N/A -   "
5.35, 156.634, 0.009063318, NaN, NaN, NaN, 0.04089605, "- N/A -   "
5.37, 157.224, 0.009093863, NaN, NaN, NaN, 0.04211683, "- N/A -   "
5.39, 157.814, 0.009124407, NaN, NaN, NaN, 0.0433376, "- N/A -   "
5.41, 158.403, 0.009160505, NaN, NaN, NaN, 0.04211683, "- N/A -   "
5.43, 158.9932, 0.009196603, NaN, NaN, NaN, 0.04089605, "- N/A -   "
5.45, 159.701, 0.009229924, NaN, NaN, NaN, 0.04089605, "- N/A -   "
5.47, 160.2906, 0.009266021, NaN, NaN, NaN, 0.0396753, "- N/A -   "
5.49, 160.88, 0.009299342, NaN, NaN, NaN, 0.0396753, "- N/A -   "
5.51, 161.588, 0.009329887, NaN, NaN, NaN, 0.04089605, "- N/A -   "
5.53, 162.178, 0.009363208, NaN, NaN, NaN, 0.04089605, "- N/A -   "
5.55, 162.885, 0.009402082, NaN, NaN, NaN, 0.0384545, "- N/A -   "
5.57, 163.475, 0.009438179, NaN, NaN, NaN, 0.0372337, "- N/A -   "
5.59, 164.065, 0.009471501, NaN, NaN, NaN, 0.0372337, "- N/A -   "
5.61, 164.773, 0.009507598, NaN, NaN, NaN, 0.03601294, "- N/A -   "
5.63, 165.4803, 0.00954092, NaN, NaN, NaN, 0.03601294, "- N/A -   "
5.65, 165.952, 0.00957424, NaN, NaN, NaN, 0.03601294, "- N/A -   "
5.67, 166.424, 0.009607562, NaN, NaN, NaN, 0.03601294, "- N/A -   "
5.69, 167.132, 0.009640883, NaN, NaN, NaN, 0.03601294, "- N/A -   "
5.71, 167.839, 0.009679758, NaN, NaN, NaN, 0.0335714, "- N/A -   "
5.73, 168.429, 0.009713078, NaN, NaN, NaN, 0.0335714, "- N/A -   "
5.75, 169.019, 0.009749176, NaN, NaN, NaN, 0.0335714, "- N/A -   "
5.77, 169.608, 0.009782497, NaN, NaN, NaN, 0.0323506, "- N/A -   "
5.79, 170.1982, 0.009815818, NaN, NaN, NaN, 0.0323506, "- N/A -   "
5.81, 170.788, 0.009849139, NaN, NaN, NaN, 0.0335714, "- N/A -   "
5.83, 171.378, 0.00988246, NaN, NaN, NaN, 0.0323506, "- N/A -   "
5.85, 171.9674, 0.009913004, NaN, NaN, NaN, 0.0335714, "- N/A -   "
5.87, 172.557, 0.009946326, NaN, NaN, NaN, 0.0335714, "- N/A -   "
5.89, 173.1469, 0.009979647, NaN, NaN, NaN, 0.0335714, "- N/A -   "
5.91, 173.737, 0.0100157, NaN, NaN, NaN, 0.0335714, "- N/A -   "
5.93, 174.4443, 0.0100518, NaN, NaN, NaN, 0.0323506, "- N/A -   "
5.95, 174.798, 0.01007961, NaN, NaN, NaN, 0.0335714, "- N/A -   "
5.97, 175.506, 0.01011293, NaN, NaN, NaN, 0.0335714, "- N/A -   "
5.99, 176.096, 0.0101463, NaN, NaN, NaN, 0.0335714, "- N/A -   "
6.01, 176.6853, 0.0101796, NaN, NaN, NaN, 0.0335714, "- N/A -   "
6.03, 177.275, 0.0102101, NaN, NaN, NaN, 0.03601294, "- N/A -   "
6.05, 177.747, 0.0102351, NaN, NaN, NaN, 0.0384545, "- N/A -   "
6.07, 178.219, 0.0102657, NaN, NaN, NaN, 0.0396753, "- N/A -   "
6.09, 178.808, 0.01030175, NaN, NaN, NaN, 0.0384545, "- N/A -   "
6.11, 179.3981, 0.01033507, NaN, NaN, NaN, 0.0384545, "- N/A -   "
6.13, 179.988, 0.0103684, NaN, NaN, NaN, 0.0384545, "- N/A -   "
6.15, 180.578, 0.0103989, NaN, NaN, NaN, 0.0396753, "- N/A -   "
6.17, 181.167, 0.01042948, NaN, NaN, NaN, 0.04089605, "- N/A -   "
6.19, 181.639, 0.01046, NaN, NaN, NaN, 0.04211683, "- N/A -   "
6.21, 182.1109, 0.0104906, NaN, NaN, NaN, 0.0433376, "- N/A -   "
6.23, 182.937, 0.01052389, NaN, NaN, NaN, 0.0433376, "- N/A -   "
6.25, 183.408, 0.0105572, NaN, NaN, NaN, 0.0433376, "- N/A -   "
6.27, 183.998, 0.0105933, NaN, NaN, NaN, 0.04211683, "- N/A -   "
6.29, 184.824, 0.0106294, NaN, NaN, NaN, 0.04089605, "- N/A -   "
6.31, 185.531, 0.0106683, NaN, NaN, NaN, 0.0384545, "- N/A -   "
6.33, 186.121, 0.0107072, NaN, NaN, NaN, 0.03601294, "- N/A -   "
6.35, 186.947, 0.01074603, NaN, NaN, NaN, 0.0335714, "- N/A -   "
6.37, 187.654, 0.0107821, NaN, NaN, NaN, 0.0323506, "- N/A -   "
6.39, 188.1262, 0.0108154, NaN, NaN, NaN, 0.0323506, "- N/A -   "
6.41, 188.716, 0.0108488, NaN, NaN, NaN, 0.0335714, "- N/A -   "
6.43, 189.3057, 0.0108821, NaN, NaN, NaN, 0.0335714, "- N/A -   "
6.45, 189.895, 0.0109126, NaN, NaN, NaN, 0.0335714, "- N/A -   "
6.47, 190.485, 0.010946, NaN, NaN, NaN, 0.0347922, "- N/A -   "
6.49, 190.957, 0.0109765, NaN, NaN, NaN, 0.0347922, "- N/A -   "
6.51, 191.547, 0.0110098, NaN, NaN, NaN, 0.0347922, "- N/A -   "
6.53, 192.254, 0.0110431, NaN, NaN, NaN, 0.0347922, "- N/A -   "
6.55, 192.844, 0.0110792, NaN, NaN, NaN, 0.0335714, "- N/A -   "
6.57, 193.67, 0.0111209, NaN, NaN, NaN, 0.03112983, "- N/A -   "
6.59, 194.377, 0.011157, NaN, NaN, NaN, 0.0286883, "- N/A -   "
6.61, 194.967, 0.0111903, NaN, NaN, NaN, 0.0286883, "- N/A -   "
6.63, 195.439, 0.0112209, NaN, NaN, NaN, 0.0299091, "- N/A -   "
6.65, 196.0287, 0.0112514, NaN, NaN, NaN, 0.03112983, "- N/A -   "
6.67, 196.618, 0.0112847, NaN, NaN, NaN, 0.0323506, "- N/A -   "
6.69, 197.09, 0.0113125, NaN, NaN, NaN, 0.0347922, "- N/A -   "
6.71, 197.68, 0.0113403, NaN, NaN, NaN, 0.0372337, "- N/A -   "
6.73, 198.152, 0.011368, NaN, NaN, NaN, 0.0384545, "- N/A -   "
6.75, 198.506, 0.01139579, NaN, NaN, NaN, 0.04089605, "- N/A -   "
6.77, 199.095, 0.0114236, NaN, NaN, NaN, 0.0445584, "- N/A -   "
6.79, 199.567, 0.0114513, NaN, NaN, NaN, 0.04577916, "- N/A -   "
6.81, 200.275, 0.0114846, NaN, NaN, NaN, 0.04577916, "- N/A -   "
6.83, 200.865, 0.011518, NaN, NaN, NaN, 0.04577916, "- N/A -   "
6.85, 201.454, 0.0115485, NaN, NaN, NaN, 0.04699994, "- N/A -   "
6.87, 202.162, 0.0115846, NaN, NaN, NaN, 0.04577916, "- N/A -   "
6.89, 202.7517, 0.01161793, NaN, NaN, NaN, 0.04577916, "- N/A -   "
6.91, 203.695, 0.0116568, NaN, NaN, NaN, 0.0433376, "- N/A -   "
6.93, 204.285, 0.0116985, NaN, NaN, NaN, 0.04089605, "- N/A -   "
6.95, 204.9927, 0.01173733, NaN, NaN, NaN, 0.0372337, "- N/A -   "
6.97, 205.818, 0.0117734, NaN, NaN, NaN, 0.03601294, "- N/A -   "
6.99, 206.29, 0.0118095, NaN, NaN, NaN, 0.0347922, "- N/A -   "
7.01, 207.116, 0.0118428, NaN, NaN, NaN, 0.0347922, "- N/A -   "
7.03, 207.705, 0.0118789, NaN, NaN, NaN, 0.0335714, "- N/A -   "
7.05, 208.295, 0.011915, NaN, NaN, NaN, 0.0323506, "- N/A -   "
7.07, 208.885, 0.01195114, NaN, NaN, NaN, 0.0323506, "- N/A -   "
7.09, 209.593, 0.0119817, NaN, NaN, NaN, 0.0323506, "- N/A -   "
7.11, 210.182, 0.0120178, NaN, NaN, NaN, 0.03112983, "- N/A -   "
7.13, 211.008, 0.0120567, NaN, NaN, NaN, 0.0286883, "- N/A -   "
7.15, 211.598, 0.0120872, NaN, NaN, NaN, 0.0299091, "- N/A -   "
7.17, 212.1875, 0.0121233, NaN, NaN, NaN, 0.0286883, "- N/A -   "
7.19, 212.777, 0.01215662, NaN, NaN, NaN, 0.0286883, "- N/A -   "
7.21, 213.367, 0.0121872, NaN, NaN, NaN, 0.0299091, "- N/A -   "
7.23, 213.839, 0.0122205, NaN, NaN, NaN, 0.0299091, "- N/A -   "
7.25, 214.546, 0.0122566, NaN, NaN, NaN, 0.0299091, "- N/A -   "
7.27, 215.136, 0.0122899, NaN, NaN, NaN, 0.0299091, "- N/A -   "
7.29, 215.844, 0.0123204, NaN, NaN, NaN, 0.03112983, "- N/A -   "
7.31, 216.434, 0.012351, NaN, NaN, NaN, 0.03112983, "- N/A -   "
7.33, 216.905, 0.0123815, NaN, NaN, NaN, 0.0323506, "- N/A -   "
7.35, 217.495, 0.0124093, NaN, NaN, NaN, 0.0347922, "- N/A -   "
7.37, 217.849, 0.0124371, NaN, NaN, NaN, 0.0372337, "- N/A -   "
7.39, 218.4387, 0.01246484, NaN, NaN, NaN, 0.0396753, "- N/A -   "
7.41, 218.9105, 0.01248983, NaN, NaN, NaN, 0.0433376, "- N/A -   "
7.43, 219.3823, 0.0125232, NaN, NaN, NaN, 0.0445584, "- N/A -   "
7.45, 220.09, 0.0125565, NaN, NaN, NaN, 0.0445584, "- N/A -   "
7.47, 220.798, 0.0125898, NaN, NaN, NaN, 0.0433376, "- N/A -   "
7.49, 221.387, 0.0126231, NaN, NaN, NaN, 0.0433376, "- N/A -   "
7.51, 222.095, 0.0126592, NaN, NaN, NaN, 0.0433376, "- N/A -   "
7.53, 222.803, 0.0126925, NaN, NaN, NaN, 0.0433376, "- N/A -   "
7.55, 223.3925, 0.0127231, NaN, NaN, NaN, 0.0433376, "- N/A -   "
7.57, 223.982, 0.0127592, NaN, NaN, NaN, 0.0433376, "- N/A -   "
7.59, 224.572, 0.0127925, NaN, NaN, NaN, 0.04211683, "- N/A -   "
7.61, 225.28, 0.0128286, NaN, NaN, NaN, 0.04089605, "- N/A -   "
7.63, 226.1053, 0.0128647, NaN, NaN, NaN, 0.0396753, "- N/A -   "
7.65, 226.813, 0.0129036, NaN, NaN, NaN, 0.0372337, "- N/A -   "
7.67, 227.639, 0.01294244, NaN, NaN, NaN, 0.0347922, "- N/A -   "
7.69, 228.228, 0.0129813, NaN, NaN, NaN, 0.0335714, "- N/A -   "
7.71, 229.172, 0.01302019, NaN, NaN, NaN, 0.0299091, "- N/A -   "
7.73, 229.998, 0.0130591, NaN, NaN, NaN, 0.0286883, "- N/A -   "
7.75, 230.469, 0.0130952, NaN, NaN, NaN, 0.0274675, "- N/A -   "
7.77, 230.941, 0.0131257, NaN, NaN, NaN, 0.0274675, "- N/A -   "
7.79, 231.649, 0.01315625, NaN, NaN, NaN, 0.0286883, "- N/A -   "
7.81, 232.357, 0.0131896, NaN, NaN, NaN, 0.0286883, "- N/A -   "
7.83, 232.946, 0.0132201, NaN, NaN, NaN, 0.0299091, "- N/A -   "
7.85, 233.418, 0.0132534, NaN, NaN, NaN, 0.03112983, "- N/A -   "
7.87, 234.008, 0.0132812, NaN, NaN, NaN, 0.0323506, "- N/A -   "
7.89, 234.48, 0.0133117, NaN, NaN, NaN, 0.0335714, "- N/A -   "
7.91, 235.3052, 0.01334507, NaN, NaN, NaN, 0.0347922, "- N/A -   "
7.93, 235.777, 0.0133756, NaN, NaN, NaN, 0.03601294, "- N/A -   "
7.95, 236.367, 0.0134062, NaN, NaN, NaN, 0.03601294, "- N/A -   "
7.97, 237.074, 0.0134423, NaN, NaN, NaN, 0.0347922, "- N/A -   "
7.99, 237.7821, 0.0134756, NaN, NaN, NaN, 0.0347922, "- N/A -   "
8, 238.136, 0.013495, NaN, NaN, NaN, 0.0347922, "- N/A -   "
8.01, 238.49, 0.0135117, NaN, NaN, NaN, 0.0347922, "- N/A -   "
8.04, 239.433, 0.01355888, NaN, NaN, NaN, 0.03601294, "- N/A -   "
8.07, 240.259, 0.0136033, NaN, NaN, NaN, 0.0384545, "- N/A -   "
8.1, 241.085, 0.0136477, NaN, NaN, NaN, 0.04089605, "- N/A -   "
8.13, 241.91, 0.0136922, NaN, NaN, NaN, 0.0433376, "- N/A -   "
8.16, 242.853, 0.0137421, NaN, NaN, NaN, 0.0445584, "- N/A -   "
8.19, 243.56, 0.0137866, NaN, NaN, NaN, 0.04577916, "- N/A -   "
8.22, 244.621, 0.0138338, NaN, NaN, NaN, 0.0482207, "- N/A -   "
8.25, 245.6813, 0.0138838, NaN, NaN, NaN, 0.04699994, "- N/A -   "
8.28, 246.86, 0.0139448, NaN, NaN, NaN, 0.04211683, "- N/A -   "
8.31, 248.156, 0.0140059, NaN, NaN, NaN, 0.0372337, "- N/A -   "
8.34, 249.334, 0.0140642, NaN, NaN, NaN, 0.0335714, "- N/A -   "
8.37, 250.512, 0.0141226, NaN, NaN, NaN, 0.0299091, "- N/A -   "
8.4, 251.455, 0.0141753, NaN, NaN, NaN, 0.0286883, "- N/A -   "
8.43, 252.397, 0.0142225, NaN, NaN, NaN, 0.0299091, "- N/A -   "
8.46, 253.222, 0.014267, NaN, NaN, NaN, 0.0323506, "- N/A -   "
8.49, 254.165, 0.0143169, NaN, NaN, NaN, 0.0323506, "- N/A -   "
8.52, 254.99, 0.0143614, NaN, NaN, NaN, 0.0347922, "- N/A -   "
8.55, 255.932, 0.0144113, NaN, NaN, NaN, 0.0347922, "- N/A -   "
8.58, 256.9926, 0.0144641, NaN, NaN, NaN, 0.0335714, "- N/A -   "
8.61, 258.053, 0.0145196, NaN, NaN, NaN, 0.0323506, "- N/A -   "
8.64, 259.231, 0.0145668, NaN, NaN, NaN, 0.0323506, "- N/A -   "
8.67, 260.0561, 0.014614, NaN, NaN, NaN, 0.0335714, "- N/A -   "
8.7, 260.9987, 0.01466125, NaN, NaN, NaN, 0.0347922, "- N/A -   "
8.73, 261.8235, 0.0147057, NaN, NaN, NaN, 0.0372337, "- N/A -   "
8.76, 262.648, 0.0147473, NaN, NaN, NaN, 0.04089605, "- N/A -   "
8.79, 263.591, 0.0147945, NaN, NaN, NaN, 0.04211683, "- N/A -   "
8.82, 264.533, 0.0148417, NaN, NaN, NaN, 0.0445584, "- N/A -   "
8.85, 265.5939, 0.0148973, NaN, NaN, NaN, 0.04089605, "- N/A -   "
8.88, 266.654, 0.01495, NaN, NaN, NaN, 0.04089605, "- N/A -   "
8.91, 267.597, 0.0149972, NaN, NaN, NaN, 0.04089605, "- N/A -   "
8.94, 268.657, 0.0150472, NaN, NaN, NaN, 0.04089605, "- N/A -   "
8.97, 269.7178, 0.0151028, NaN, NaN, NaN, 0.0384545, "- N/A -   "
9, 270.8961, 0.0151555, NaN, NaN, NaN, 0.0372337, "- N/A -   "
9.03, 271.9565, 0.015211, NaN, NaN, NaN, 0.03601294, "- N/A -   "
9.06, 272.899, 0.0152583, NaN, NaN, NaN, 0.03601294, "- N/A -   "
9.09, 273.842, 0.0153082, NaN, NaN, NaN, 0.03601294, "- N/A -   "
9.12, 274.9022, 0.015361, NaN, NaN, NaN, 0.0347922, "- N/A -   "
9.15, 275.963, 0.01541375, NaN, NaN, NaN, 0.0347922, "- N/A -   "
9.18, 277.023, 0.015461, NaN, NaN, NaN, 0.0347922, "- N/A -   "
9.21, 278.0835, 0.01551649, NaN, NaN, NaN, 0.0335714, "- N/A -   "
9.24, 279.0261, 0.0155637, NaN, NaN, NaN, 0.0335714, "- N/A -   "
9.27, 279.9687, 0.0156137, NaN, NaN, NaN, 0.0347922, "- N/A -   "
9.3, 280.911, 0.01566088, NaN, NaN, NaN, 0.0347922, "- N/A -   "
9.33, 282.09, 0.0157081, NaN, NaN, NaN, 0.03601294, "- N/A -   "
9.36, 283.032, 0.0157608, NaN, NaN, NaN, 0.0347922, "- N/A -   "
9.39, 284.093, 0.0158136, NaN, NaN, NaN, 0.0335714, "- N/A -   "
9.42, 285.035, 0.0158636, NaN, NaN, NaN, 0.0335714, "- N/A -   "
9.45, 285.978, 0.0159108, NaN, NaN, NaN, 0.0347922, "- N/A -   "
9.48, 286.8026, 0.01595244, NaN, NaN, NaN, 0.0384545, "- N/A -   "
9.51, 287.7452, 0.0159969, NaN, NaN, NaN, 0.04089605, "- N/A -   "
9.54, 288.688, 0.0160441, NaN, NaN, NaN, 0.04211683, "- N/A -   "
9.57, 289.63, 0.0160913, NaN, NaN, NaN, 0.0433376, "- N/A -   "
9.6, 290.573, 0.0161385, NaN, NaN, NaN, 0.0445584, "- N/A -   "
9.63, 291.633, 0.0161885, NaN, NaN, NaN, 0.0445584, "- N/A -   "
9.66, 292.812, 0.0162412, NaN, NaN, NaN, 0.0433376, "- N/A -   "
9.69, 293.872, 0.0162968, NaN, NaN, NaN, 0.04211683, "- N/A -   "
9.72, 295.05, 0.0163495, NaN, NaN, NaN, 0.0396753, "- N/A -   "
9.75, 296.2287, 0.0164078, NaN, NaN, NaN, 0.0372337, "- N/A -   "
9.78, 297.525, 0.0164661, NaN, NaN, NaN, 0.0323506, "- N/A -   "
9.81, 298.5852, 0.0165189, NaN, NaN, NaN, 0.03112983, "- N/A -   "
9.84, 299.528, 0.0165689, NaN, NaN, NaN, 0.03112983, "- N/A -   "
9.87, 300.47, 0.0166161, NaN, NaN, NaN, 0.0323506, "- N/A -   "
9.9, 301.413, 0.0166661, NaN, NaN, NaN, 0.0323506, "- N/A -   "
9.93, 302.473, 0.0167188, NaN, NaN, NaN, 0.0323506, "- N/A -   "
9.96, 303.652, 0.0167716, NaN, NaN, NaN, 0.0299091, "- N/A -   "
9.99, 304.7122, 0.01682434, NaN, NaN, NaN, 0.0286883, "- N/A -   "
10.02, 305.6548, 0.01687432, NaN, NaN, NaN, 0.0299091, "- N/A -   "
10.05, 306.597, 0.0169215, NaN, NaN, NaN, 0.0299091, "- N/A -   "
10.08, 307.422, 0.016966, NaN, NaN, NaN, 0.0323506, "- N/A -   "
10.11, 308.4826, 0.0170104, NaN, NaN, NaN, 0.0347922, "- N/A -   "
10.14, 309.425, 0.0170548, NaN, NaN, NaN, 0.0372337, "- N/A -   "
10.17, 310.014, 0.0170937, NaN, NaN, NaN, 0.04211683, "- N/A -   "
10.2, 310.957, 0.0171353, NaN, NaN, NaN, 0.04577916, "- N/A -   "
10.23, 311.9, 0.01718254, NaN, NaN, NaN, 0.04699994, "- N/A -   "
10.26, 312.96, 0.0172353, NaN, NaN, NaN, 0.04577916, "- N/A -   "
10.29, 314.138, 0.0172881, NaN, NaN, NaN, 0.04577916, "- N/A -   "
10.32, 315.317, 0.0173408, NaN, NaN, NaN, 0.0433376, "- N/A -   "
10.35, 316.495, 0.0173991, NaN, NaN, NaN, 0.0396753, "- N/A -   "
10.38, 317.5552, 0.0174547, NaN, NaN, NaN, 0.0372337, "- N/A -   "
10.41, 318.7335, 0.0175102, NaN, NaN, NaN, 0.0347922, "- N/A -   "
10.44, 319.912, 0.017563, NaN, NaN, NaN, 0.0335714, "- N/A -   "
10.47, 320.9722, 0.0176129, NaN, NaN, NaN, 0.0347922, "- N/A -   "
10.5, 321.915, 0.0176629, NaN, NaN, NaN, 0.0335714, "- N/A -   "
10.53, 323.211, 0.0177185, NaN, NaN, NaN, 0.0323506, "- N/A -   "
10.56, 324.389, 0.0177684, NaN, NaN, NaN, 0.03112983, "- N/A -   "
10.59, 325.2139, 0.0178184, NaN, NaN, NaN, 0.03112983, "- N/A -   "
10.62, 326.392, 0.0178712, NaN, NaN, NaN, 0.0299091, "- N/A -   "
10.65, 327.4526, 0.0179212, NaN, NaN, NaN, 0.0299091, "- N/A -   "
10.68, 328.395, 0.0179684, NaN, NaN, NaN, 0.03112983, "- N/A -   "
10.71, 329.338, 0.01801279, NaN, NaN, NaN, 0.0335714, "- N/A -   "
10.74, 330.398, 0.01806, NaN, NaN, NaN, 0.0347922, "- N/A -   "
10.77, 331.223, 0.0181072, NaN, NaN, NaN, 0.0372337, "- N/A -   "
10.8, 332.048, 0.0181516, NaN, NaN, NaN, 0.0384545, "- N/A -   "
10.83, 332.99, 0.0181988, NaN, NaN, NaN, 0.04089605, "- N/A -   "
10.86, 333.933, 0.0182433, NaN, NaN, NaN, 0.0433376, "- N/A -   "
10.89, 334.9935, 0.0182905, NaN, NaN, NaN, 0.0445584, "- N/A -   "
10.92, 335.936, 0.0183377, NaN, NaN, NaN, 0.0445584, "- N/A -   "
10.95, 337.114, 0.0183904, NaN, NaN, NaN, 0.0445584, "- N/A -   "
10.98, 338.175, 0.0184404, NaN, NaN, NaN, 0.0433376, "- N/A -   "
11.01, 339.353, 0.0184932, NaN, NaN, NaN, 0.04211683, "- N/A -   "
11.04, 340.413, 0.0185459, NaN, NaN, NaN, 0.04211683, "- N/A -   "
11.07, 341.592, 0.0186015, NaN, NaN, NaN, 0.0396753, "- N/A -   "
11.1, 342.888, 0.0186598, NaN, NaN, NaN, 0.03601294, "- N/A -   "
11.13, 344.1839, 0.0187209, NaN, NaN, NaN, 0.0299091, "- N/A -   "
11.16, 345.362, 0.0187708, NaN, NaN, NaN, 0.0299091, "- N/A -   "
11.19, 346.4226, 0.0188208, NaN, NaN, NaN, 0.0299091, "- N/A -   "
11.22, 347.483, 0.0188736, NaN, NaN, NaN, 0.0286883, "- N/A -   "
11.25, 348.426, 0.0189208, NaN, NaN, NaN, 0.0299091, "- N/A -   "
11.28, 349.6039, 0.0189735, NaN, NaN, NaN, 0.0286883, "- N/A -   "
11.31, 350.664, 0.0190235, NaN, NaN, NaN, 0.0286883, "- N/A -   "
11.34, 351.607, 0.019068, NaN, NaN, NaN, 0.03112983, "- N/A -   "
11.37, 352.3139, 0.0191096, NaN, NaN, NaN, 0.0347922, "- N/A -   "
11.4, 353.374, 0.019154, NaN, NaN, NaN, 0.0372337, "- N/A -   "
11.43, 354.5526, 0.01920957, NaN, NaN, NaN, 0.0347922, "- N/A -   "
11.46, 355.7309, 0.0192623, NaN, NaN, NaN, 0.0335714, "- N/A -   "
11.49, 356.673, 0.0193095, NaN, NaN, NaN, 0.03601294, "- N/A -   "
11.52, 357.6161, 0.0193512, NaN, NaN, NaN, 0.0384545, "- N/A -   "
11.55, 358.5587, 0.0193984, NaN, NaN, NaN, 0.0396753, "- N/A -   "
11.58, 359.6191, 0.01944837, NaN, NaN, NaN, 0.04089605, "- N/A -   "
11.61, 360.562, 0.0194956, NaN, NaN, NaN, 0.04211683, "- N/A -   "
11.64, 361.74, 0.0195483, NaN, NaN, NaN, 0.04089605, "- N/A -   "
11.67, 362.918, 0.0196039, NaN, NaN, NaN, 0.0372337, "- N/A -   "
11.7, 364.332, 0.0196594, NaN, NaN, NaN, 0.0347922, "- N/A -   "
11.73, 365.393, 0.0197094, NaN, NaN, NaN, 0.0347922, "- N/A -   "
11.76, 366.453, 0.0197621, NaN, NaN, NaN, 0.0335714, "- N/A -   "
11.79, 367.6313, 0.0198177, NaN, NaN, NaN, 0.0323506, "- N/A -   "
11.82, 368.9274, 0.0198677, NaN, NaN, NaN, 0.03112983, "- N/A -   "
11.85, 369.87, 0.0199176, NaN, NaN, NaN, 0.03112983, "- N/A -   "
11.88, 370.813, 0.0199621, NaN, NaN, NaN, 0.0335714, "- N/A -   "
11.91, 371.873, 0.0200093, NaN, NaN, NaN, 0.0347922, "- N/A -   "
11.94, 372.58, 0.0200509, NaN, NaN, NaN, 0.0384545, "- N/A -   "
11.97, 373.5226, 0.0200926, NaN, NaN, NaN, 0.04211683, "- N/A -   "
12, 374.465, 0.0201426, NaN, NaN, NaN, 0.04211683, "- N/A -   "
12.03, 375.643, 0.0201925, NaN, NaN, NaN, 0.04211683, "- N/A -   "
12.06, 376.822, 0.0202453, NaN, NaN, NaN, 0.04089605, "- N/A -   "
12.09, 378.0, 0.0203008, NaN, NaN, NaN, 0.0384545, "- N/A -   "
12.12, 379.178, 0.02035359, NaN, NaN, NaN, 0.0384545, "- N/A -   "
12.15, 380.3565, 0.0204063, NaN, NaN, NaN, 0.03601294, "- N/A -   "
12.18, 381.299, 0.0204508, NaN, NaN, NaN, 0.0396753, "- N/A -   "
12.21, 382.124, 0.0204952, NaN, NaN, NaN, 0.04089605, "- N/A -   "
12.24, 383.302, 0.0205452, NaN, NaN, NaN, 0.04089605, "- N/A -   "
12.27, 384.598, 0.0205979, NaN, NaN, NaN, 0.0396753, "- N/A -   "
12.3, 385.777, 0.0206535, NaN, NaN, NaN, 0.0384545, "- N/A -   "
12.33, 386.837, 0.0207035, NaN, NaN, NaN, 0.0372337, "- N/A -   "
12.36, 388.0152, 0.02075622, NaN, NaN, NaN, 0.03601294, "- N/A -   "
12.39, 389.193, 0.020809, NaN, NaN, NaN, 0.0347922, "- N/A -   "
12.42, 390.1361, 0.0208617, NaN, NaN, NaN, 0.0347922, "- N/A -   "
12.45, 391.314, 0.0209117, NaN, NaN, NaN, 0.0347922, "- N/A -   "
12.48, 392.3748, 0.0209617, NaN, NaN, NaN, 0.0335714, "- N/A -   "
12.51, 393.317, 0.0210089, NaN, NaN, NaN, 0.0347922, "- N/A -   "
12.54, 394.496, 0.0210589, NaN, NaN, NaN, 0.03601294, "- N/A -   "
12.57, 395.674, 0.0211116, NaN, NaN, NaN, 0.0347922, "- N/A -   "
12.6, 396.97, 0.02116718, NaN, NaN, NaN, 0.0323506, "- N/A -   "
12.63, 397.9126, 0.0212199, NaN, NaN, NaN, 0.0323506, "- N/A -   "
12.66, 399.091, 0.0212699, NaN, NaN, NaN, 0.0323506, "- N/A -   "
12.69, 400.387, 0.0213255, NaN, NaN, NaN, 0.0286883, "- N/A -   "
12.72, 401.447, 0.0213727, NaN, NaN, NaN, 0.0299091, "- N/A -   "
12.75, 402.2722, 0.0214199, NaN, NaN, NaN, 0.0323506, "- N/A -   "
12.78, 403.3326, 0.02146429, NaN, NaN, NaN, 0.0335714, "- N/A -   "
12.81, 404.393, 0.0215143, NaN, NaN, NaN, 0.0335714, "- N/A -   "
12.84, 405.453, 0.0215615, NaN, NaN, NaN, 0.0347922, "- N/A -   "
12.87, 406.514, 0.02161146, NaN, NaN, NaN, 0.0347922, "- N/A -   "
12.9, 407.574, 0.0216559, NaN, NaN, NaN, 0.0384545, "- N/A -   "
12.93, 408.517, 0.0217059, NaN, NaN, NaN, 0.0384545, "- N/A -   "
12.96, 409.695, 0.0217503, NaN, NaN, NaN, 0.0396753, "- N/A -   "
12.99, 410.52, 0.0217919, NaN, NaN, NaN, 0.0433376, "- N/A -   "
13.02, 411.58, 0.0218392, NaN, NaN, NaN, 0.0445584, "- N/A -   "
13.05, 412.641, 0.0218891, NaN, NaN, NaN, 0.0445584, "- N/A -   "
13.08, 413.819, 0.0219391, NaN, NaN, NaN, 0.0445584, "- N/A -   "
13.11, 415.1152, 0.02199465, NaN, NaN, NaN, 0.04211683, "- N/A -   "
13.14, 416.4113, 0.02205574, NaN, NaN, NaN, 0.0372337, "- N/A -   "
13.17, 417.7074, 0.0221168, NaN, NaN, NaN, 0.0335714, "- N/A -   "
13.2, 419.003, 0.0221668, NaN, NaN, NaN, 0.0323506, "- N/A -   "
13.23, 420.0639, 0.02221679, NaN, NaN, NaN, 0.0335714, "- N/A -   "
13.26, 421.007, 0.0222612, NaN, NaN, NaN, 0.0347922, "- N/A -   "
13.29, 422.067, 0.022314, NaN, NaN, NaN, 0.0347922, "- N/A -   "
13.32, 423.01, 0.0223584, NaN, NaN, NaN, 0.03601294, "- N/A -   "
[...]
20.31, 695.416, 0.03401521, NaN, NaN, NaN, 0.0323506, "- N/A -   "
20.34, 696.599, 0.0340596, NaN, NaN, NaN, 0.0347922, "- N/A -   "
20.37, 697.545, 0.0341041, NaN, NaN, NaN, 0.0372337, "- N/A -   "
20.4, 698.6095, 0.0341457, NaN, NaN, NaN, 0.04089605, "- N/A -   "
20.43, 699.674, 0.0341874, NaN, NaN, NaN, 0.0445584, "- N/A -   "
20.46, 700.6203, 0.0342318, NaN, NaN, NaN, 0.04699994, "- N/A -   "
20.49, 701.9214, 0.03428178, NaN, NaN, NaN, 0.0482207, "- N/A -   "
20.52, 703.2225, 0.0343345, NaN, NaN, NaN, 0.04577916, "- N/A -   "
20.55, 704.642, 0.03439285, NaN, NaN, NaN, 0.0433376, "- N/A -   "
20.58, 706.0612, 0.03444838, NaN, NaN, NaN, 0.0396753, "- N/A -   "
20.61, 707.3623, 0.03450114, NaN, NaN, NaN, 0.0384545, "- N/A -   "
20.64, 708.6634, 0.0345539, NaN, NaN, NaN, 0.0372337, "- N/A -   "
20.67, 710.083, 0.0346067, NaN, NaN, NaN, 0.03601294, "- N/A -   "
20.7, 711.502, 0.0346622, NaN, NaN, NaN, 0.0335714, "- N/A -   "
20.73, 712.685, 0.034715, NaN, NaN, NaN, 0.0323506, "- N/A -   "
20.76, 714.1043, 0.0347705, NaN, NaN, NaN, 0.0299091, "- N/A -   "
20.79, 715.2871, 0.0348232, NaN, NaN, NaN, 0.0299091, "- N/A -   "
20.82, 716.5882, 0.0348732, NaN, NaN, NaN, 0.0286883, "- N/A -   "
20.85, 718.008, 0.034926, NaN, NaN, NaN, 0.0274675, "- N/A -   "
20.88, 719.19, 0.03497874, NaN, NaN, NaN, 0.0274675, "- N/A -   "
20.91, 720.373, 0.0350259, NaN, NaN, NaN, 0.0274675, "- N/A -   "
20.94, 721.438, 0.0350732, NaN, NaN, NaN, 0.0286883, "- N/A -   "
20.97, 722.502, 0.03511758, NaN, NaN, NaN, 0.0323506, "- N/A -   "
21, 723.4485, 0.03516201, NaN, NaN, NaN, 0.0335714, "- N/A -   "
21.03, 724.6313, 0.0352064, NaN, NaN, NaN, 0.0372337, "- N/A -   "
21.06, 725.5775, 0.03524531, NaN, NaN, NaN, 0.04089605, "- N/A -   "
21.09, 726.5238, 0.03528974, NaN, NaN, NaN, 0.0433376, "- N/A -   "
21.12, 727.7066, 0.03533694, NaN, NaN, NaN, 0.0445584, "- N/A -   "
21.15, 729.008, 0.0353869, NaN, NaN, NaN, 0.0445584, "- N/A -   "
21.18, 730.0722, 0.0354369, NaN, NaN, NaN, 0.04577916, "- N/A -   "
21.21, 731.492, 0.0354897, NaN, NaN, NaN, 0.0445584, "- N/A -   "
21.24, 732.911, 0.0355452, NaN, NaN, NaN, 0.04211683, "- N/A -   "
21.27, 734.2121, 0.035598, NaN, NaN, NaN, 0.04089605, "- N/A -   "
21.3, 735.6314, 0.0356507, NaN, NaN, NaN, 0.0384545, "- N/A -   "
21.33, 737.051, 0.035709, NaN, NaN, NaN, 0.0347922, "- N/A -   "
21.36, 738.47, 0.0357646, NaN, NaN, NaN, 0.0323506, "- N/A -   "
21.39, 739.8895, 0.0358201, NaN, NaN, NaN, 0.0299091, "- N/A -   "
21.42, 741.0723, 0.03587008, NaN, NaN, NaN, 0.0299091, "- N/A -   "
21.45, 742.3735, 0.03592006, NaN, NaN, NaN, 0.0299091, "- N/A -   "
21.48, 743.6745, 0.03597, NaN, NaN, NaN, 0.0299091, "- N/A -   "
21.51, 744.6208, 0.0360172, NaN, NaN, NaN, 0.03112983, "- N/A -   "
21.54, 745.8036, 0.0360645, NaN, NaN, NaN, 0.0323506, "- N/A -   "
21.57, 747.1047, 0.03610888, NaN, NaN, NaN, 0.0347922, "- N/A -   "
21.6, 748.1692, 0.0361561, NaN, NaN, NaN, 0.03601294, "- N/A -   "
21.63, 749.2337, 0.0362061, NaN, NaN, NaN, 0.0384545, "- N/A -   "
21.66, 750.6531, 0.03625605, NaN, NaN, NaN, 0.0384545, "- N/A -   "
21.69, 751.8359, 0.03630603, NaN, NaN, NaN, 0.0384545, "- N/A -   "
21.72, 752.9, 0.03635046, NaN, NaN, NaN, 0.0396753, "- N/A -   "
21.75, 754.0832, 0.0363977, NaN, NaN, NaN, 0.04211683, "- N/A -   "
21.78, 755.266, 0.03644209, NaN, NaN, NaN, 0.0433376, "- N/A -   "
21.81, 756.331, 0.0364893, NaN, NaN, NaN, 0.0445584, "- N/A -   "
21.84, 757.5134, 0.0365365, NaN, NaN, NaN, 0.04577916, "- N/A -   "
21.87, 758.814, 0.0365893, NaN, NaN, NaN, 0.04577916, "- N/A -   "
21.9, 760.2339, 0.0366448, NaN, NaN, NaN, 0.04211683, "- N/A -   "
21.93, 761.6532, 0.03670033, NaN, NaN, NaN, 0.0396753, "- N/A -   "
21.96, 763.309, 0.0367614, NaN, NaN, NaN, 0.0347922, "- N/A -   "
21.99, 764.6102, 0.03681695, NaN, NaN, NaN, 0.0323506, "- N/A -   "
22.02, 766.0296, 0.0368725, NaN, NaN, NaN, 0.0299091, "- N/A -   "
22.05, 767.3307, 0.0369252, NaN, NaN, NaN, 0.0286883, "- N/A -   "
22.08, 768.395, 0.0369697, NaN, NaN, NaN, 0.03112983, "- N/A -   "
22.11, 769.341, 0.0370141, NaN, NaN, NaN, 0.0335714, "- N/A -   "
22.14, 770.5243, 0.03705853, NaN, NaN, NaN, 0.03601294, "- N/A -   "
22.17, 771.5888, 0.0371057, NaN, NaN, NaN, 0.0372337, "- N/A -   "
22.2, 772.89, 0.0371557, NaN, NaN, NaN, 0.0372337, "- N/A -   "
22.23, 774.309, 0.03721403, NaN, NaN, NaN, 0.0335714, "- N/A -   "
22.26, 775.8469, 0.0372696, NaN, NaN, NaN, 0.03112983, "- N/A -   "
22.29, 777.148, 0.03732232, NaN, NaN, NaN, 0.03112983, "- N/A -   "
22.32, 778.212, 0.0373695, NaN, NaN, NaN, 0.03112983, "- N/A -   "
22.35, 779.277, 0.03741673, NaN, NaN, NaN, 0.0335714, "- N/A -   "
22.38, 780.46, 0.0374584, NaN, NaN, NaN, 0.03601294, "- N/A -   "
22.41, 781.5244, 0.03750281, NaN, NaN, NaN, 0.0384545, "- N/A -   "
22.44, 782.5889, 0.03755, NaN, NaN, NaN, 0.04089605, "- N/A -   "
22.47, 783.6535, 0.03759444, NaN, NaN, NaN, 0.04211683, "- N/A -   "
22.5, 784.836, 0.0376444, NaN, NaN, NaN, 0.04211683, "- N/A -   "
22.53, 786.1374, 0.03769163, NaN, NaN, NaN, 0.0433376, "- N/A -   "
22.56, 787.3201, 0.03774161, NaN, NaN, NaN, 0.0433376, "- N/A -   "
22.59, 788.74, 0.0377944, NaN, NaN, NaN, 0.04211683, "- N/A -   "
22.62, 790.277, 0.0378527, NaN, NaN, NaN, 0.0384545, "- N/A -   "
22.65, 791.5783, 0.0379082, NaN, NaN, NaN, 0.0372337, "- N/A -   "
22.68, 792.761, 0.03795542, NaN, NaN, NaN, 0.0372337, "- N/A -   "
22.71, 794.0622, 0.0380054, NaN, NaN, NaN, 0.0372337, "- N/A -   "
22.74, 795.1267, 0.0380526, NaN, NaN, NaN, 0.0384545, "- N/A -   "
22.77, 796.309, 0.03810259, NaN, NaN, NaN, 0.0384545, "- N/A -   "
22.8, 797.6106, 0.0381526, NaN, NaN, NaN, 0.0384545, "- N/A -   "
22.83, 799.0299, 0.0382109, NaN, NaN, NaN, 0.03601294, "- N/A -   "
22.86, 800.331, 0.03826364, NaN, NaN, NaN, 0.0335714, "- N/A -   "
22.89, 801.5138, 0.03831362, NaN, NaN, NaN, 0.0335714, "- N/A -   "
22.92, 802.815, 0.0383608, NaN, NaN, NaN, 0.0347922, "- N/A -   "
22.95, 803.998, 0.0384136, NaN, NaN, NaN, 0.0347922, "- N/A -   "
22.98, 805.181, 0.03846079, NaN, NaN, NaN, 0.03601294, "- N/A -   "
23.01, 806.245, 0.038508, NaN, NaN, NaN, 0.0372337, "- N/A -   "
23.04, 807.6645, 0.0385608, NaN, NaN, NaN, 0.0347922, "- N/A -   "
23.07, 808.9655, 0.0386107, NaN, NaN, NaN, 0.0347922, "- N/A -   "
23.1, 810.0301, 0.03865794, NaN, NaN, NaN, 0.03601294, "- N/A -   "
23.13, 811.2129, 0.0387051, NaN, NaN, NaN, 0.0372337, "- N/A -   "
23.16, 812.3957, 0.03875235, NaN, NaN, NaN, 0.0396753, "- N/A -   "
23.19, 813.5785, 0.0387996, NaN, NaN, NaN, 0.04089605, "- N/A -   "
23.22, 814.5247, 0.038844, NaN, NaN, NaN, 0.04211683, "- N/A -   "
23.25, 815.826, 0.03889119, NaN, NaN, NaN, 0.0433376, "- N/A -   "
23.28, 817.1269, 0.0389412, NaN, NaN, NaN, 0.0433376, "- N/A -   "
23.31, 818.428, 0.0389967, NaN, NaN, NaN, 0.04211683, "- N/A -   "
23.34, 819.847, 0.03905224, NaN, NaN, NaN, 0.0396753, "- N/A -   "
23.37, 821.2667, 0.0391078, NaN, NaN, NaN, 0.0372337, "- N/A -   "
23.4, 822.804, 0.03916331, NaN, NaN, NaN, 0.0335714, "- N/A -   "
23.43, 824.105, 0.0392188, NaN, NaN, NaN, 0.03112983, "- N/A -   "
23.46, 825.4066, 0.03926883, NaN, NaN, NaN, 0.0323506, "- N/A -   "
23.49, 826.353, 0.039316, NaN, NaN, NaN, 0.0335714, "- N/A -   "
23.52, 827.6539, 0.0393632, NaN, NaN, NaN, 0.0335714, "- N/A -   "
23.55, 828.718, 0.0394132, NaN, NaN, NaN, 0.0335714, "- N/A -   "
23.58, 830.1378, 0.0394632, NaN, NaN, NaN, 0.0335714, "- N/A -   "
23.61, 831.5572, 0.03952151, NaN, NaN, NaN, 0.0299091, "- N/A -   "
23.64, 832.8582, 0.03957427, NaN, NaN, NaN, 0.0286883, "- N/A -   "
23.67, 834.159, 0.03962425, NaN, NaN, NaN, 0.0286883, "- N/A -   "
23.7, 835.342, 0.0396715, NaN, NaN, NaN, 0.0299091, "- N/A -   "
23.73, 836.407, 0.0397159, NaN, NaN, NaN, 0.0323506, "- N/A -   "
23.76, 837.5895, 0.03976309, NaN, NaN, NaN, 0.0335714, "- N/A -   "
23.79, 838.4175, 0.039802, NaN, NaN, NaN, 0.0384545, "- N/A -   "
23.82, 839.482, 0.03984639, NaN, NaN, NaN, 0.04089605, "- N/A -   "
23.85, 840.6648, 0.0398936, NaN, NaN, NaN, 0.04211683, "- N/A -   "
23.88, 841.6111, 0.0399352, NaN, NaN, NaN, 0.04577916, "- N/A -   "
23.91, 842.7938, 0.0399825, NaN, NaN, NaN, 0.0482207, "- N/A -   "
23.94, 844.095, 0.0400324, NaN, NaN, NaN, 0.0482207, "- N/A -   "
23.97, 845.5143, 0.040088, NaN, NaN, NaN, 0.04577916, "- N/A -   "
24, 847.052, 0.0401491, NaN, NaN, NaN, 0.04089605, "- N/A -   "
24.03, 848.4713, 0.0402046, NaN, NaN, NaN, 0.0372337, "- N/A -   "
24.06, 850.009, 0.0402629, NaN, NaN, NaN, 0.0335714, "- N/A -   "
24.09, 851.3101, 0.0403129, NaN, NaN, NaN, 0.0335714, "- N/A -   "
24.12, 852.138, 0.04035454, NaN, NaN, NaN, 0.0372337, "- N/A -   "
24.15, 853.5574, 0.04041007, NaN, NaN, NaN, 0.03601294, "- N/A -   "
24.18, 854.9768, 0.0404628, NaN, NaN, NaN, 0.0335714, "- N/A -   "
24.21, 856.278, 0.04051559, NaN, NaN, NaN, 0.0323506, "- N/A -   "
24.24, 857.934, 0.0405739, NaN, NaN, NaN, 0.0286883, "- N/A -   "
24.27, 859.117, 0.0406267, NaN, NaN, NaN, 0.0286883, "- N/A -   "
24.3, 860.299, 0.0406766, NaN, NaN, NaN, 0.0286883, "- N/A -   "
24.33, 861.482, 0.0407211, NaN, NaN, NaN, 0.0299091, "- N/A -   "
24.36, 862.4285, 0.04076272, NaN, NaN, NaN, 0.0335714, "- N/A -   "
24.39, 863.493, 0.0408071, NaN, NaN, NaN, 0.03601294, "- N/A -   "
24.42, 864.558, 0.0408516, NaN, NaN, NaN, 0.0384545, "- N/A -   "
24.45, 865.74, 0.0408988, NaN, NaN, NaN, 0.0396753, "- N/A -   "
24.48, 866.8049, 0.04094321, NaN, NaN, NaN, 0.0433376, "- N/A -   "
24.51, 867.9877, 0.0409876, NaN, NaN, NaN, 0.0445584, "- N/A -   "
24.54, 869.407, 0.04104317, NaN, NaN, NaN, 0.0433376, "- N/A -   "
24.57, 870.59, 0.0410932, NaN, NaN, NaN, 0.04211683, "- N/A -   "
24.6, 871.773, 0.04114313, NaN, NaN, NaN, 0.04211683, "- N/A -   "
24.63, 873.0738, 0.0411931, NaN, NaN, NaN, 0.04211683, "- N/A -   "
24.66, 874.3748, 0.0412459, NaN, NaN, NaN, 0.04211683, "- N/A -   "
24.69, 875.794, 0.0413014, NaN, NaN, NaN, 0.0396753, "- N/A -   "
24.72, 877.214, 0.0413542, NaN, NaN, NaN, 0.0372337, "- N/A -   "
24.75, 878.633, 0.0414125, NaN, NaN, NaN, 0.0335714, "- N/A -   "
24.78, 880.171, 0.0414736, NaN, NaN, NaN, 0.0286883, "- N/A -   "
24.81, 881.4717, 0.0415263, NaN, NaN, NaN, 0.0274675, "- N/A -   "
24.84, 882.7728, 0.0415791, NaN, NaN, NaN, 0.0262467, "- N/A -   "
24.87, 884.074, 0.0416291, NaN, NaN, NaN, 0.0262467, "- N/A -   "
24.9, 885.375, 0.0416763, NaN, NaN, NaN, 0.0286883, "- N/A -   "
24.93, 886.3212, 0.0417207, NaN, NaN, NaN, 0.03112983, "- N/A -   "
24.96, 887.504, 0.0417651, NaN, NaN, NaN, 0.0335714, "- N/A -   "
24.99, 888.6868, 0.0418123, NaN, NaN, NaN, 0.0335714, "- N/A -   "
25.02, 889.8696, 0.0418595, NaN, NaN, NaN, 0.0347922, "- N/A -   "
25.05, 891.0525, 0.04190674, NaN, NaN, NaN, 0.03601294, "- N/A -   "
25.08, 892.3535, 0.0419623, NaN, NaN, NaN, 0.0347922, "- N/A -   "
25.11, 893.655, 0.0420095, NaN, NaN, NaN, 0.0347922, "- N/A -   "
25.14, 894.7191, 0.0420539, NaN, NaN, NaN, 0.0372337, "- N/A -   "
25.17, 895.7837, 0.04209834, NaN, NaN, NaN, 0.04089605, "- N/A -   "
25.2, 896.9665, 0.0421455, NaN, NaN, NaN, 0.04211683, "- N/A -   "
25.23, 898.268, 0.0421927, NaN, NaN, NaN, 0.0433376, "- N/A -   "
25.26, 899.569, 0.0422427, NaN, NaN, NaN, 0.0433376, "- N/A -   "
25.29, 900.8698, 0.04229271, NaN, NaN, NaN, 0.04211683, "- N/A -   "
25.32, 902.171, 0.0423455, NaN, NaN, NaN, 0.04089605, "- N/A -   "
25.35, 903.8268, 0.0424038, NaN, NaN, NaN, 0.0372337, "- N/A -   "
25.38, 905.128, 0.0424621, NaN, NaN, NaN, 0.0347922, "- N/A -   "
25.41, 906.429, 0.04251207, NaN, NaN, NaN, 0.0335714, "- N/A -   "
25.44, 907.612, 0.0425621, NaN, NaN, NaN, 0.0335714, "- N/A -   "
25.47, 908.9129, 0.04260926, NaN, NaN, NaN, 0.0347922, "- N/A -   "
25.5, 909.859, 0.0426537, NaN, NaN, NaN, 0.0372337, "- N/A -   "
25.53, 910.9236, 0.0426981, NaN, NaN, NaN, 0.0396753, "- N/A -   "
25.56, 912.106, 0.04274532, NaN, NaN, NaN, 0.04089605, "- N/A -   "
25.59, 913.408, 0.0427981, NaN, NaN, NaN, 0.0396753, "- N/A -   "
25.62, 914.8269, 0.0428508, NaN, NaN, NaN, 0.0396753, "- N/A -   "
25.65, 916.2462, 0.04290637, NaN, NaN, NaN, 0.03601294, "- N/A -   "
25.68, 917.666, 0.0429619, NaN, NaN, NaN, 0.0347922, "- N/A -   "
25.71, 918.9667, 0.0430147, NaN, NaN, NaN, 0.0323506, "- N/A -   "
25.74, 920.15, 0.0430646, NaN, NaN, NaN, 0.0335714, "- N/A -   "
25.77, 921.332, 0.0431091, NaN, NaN, NaN, 0.0347922, "- N/A -   "
25.8, 922.515, 0.0431591, NaN, NaN, NaN, 0.03601294, "- N/A -   "
25.83, 923.698, 0.04320348, NaN, NaN, NaN, 0.0372337, "- N/A -   "
25.86, 924.8808, 0.0432479, NaN, NaN, NaN, 0.0396753, "- N/A -   "
25.89, 926.1818, 0.0432979, NaN, NaN, NaN, 0.0396753, "- N/A -   "
25.92, 927.601, 0.0433534, NaN, NaN, NaN, 0.0372337, "- N/A -   "
25.95, 928.784, 0.04340341, NaN, NaN, NaN, 0.0384545, "- N/A -   "
25.98, 930.085, 0.0434506, NaN, NaN, NaN, 0.0384545, "- N/A -   "
26.01, 931.3862, 0.0435034, NaN, NaN, NaN, 0.0384545, "- N/A -   "
26.04, 932.6873, 0.04355613, NaN, NaN, NaN, 0.0372337, "- N/A -   "
26.07, 933.8701, 0.0436061, NaN, NaN, NaN, 0.0372337, "- N/A -   "
26.1, 935.1712, 0.0436561, NaN, NaN, NaN, 0.0372337, "- N/A -   "
26.13, 936.5906, 0.0437089, NaN, NaN, NaN, 0.0347922, "- N/A -   "
26.16, 937.7734, 0.04376161, NaN, NaN, NaN, 0.03601294, "- N/A -   "
26.19, 939.074, 0.0438116, NaN, NaN, NaN, 0.03601294, "- N/A -   "
26.22, 940.3756, 0.04386157, NaN, NaN, NaN, 0.0347922, "- N/A -   "
26.25, 941.9132, 0.0439227, NaN, NaN, NaN, 0.03112983, "- N/A -   "
26.28, 943.2143, 0.0439699, NaN, NaN, NaN, 0.03112983, "- N/A -   "
26.31, 944.2788, 0.0440171, NaN, NaN, NaN, 0.0323506, "- N/A -   "
26.34, 945.4617, 0.0440643, NaN, NaN, NaN, 0.0347922, "- N/A -   "
26.37, 946.7627, 0.04411426, NaN, NaN, NaN, 0.0347922, "- N/A -   "
26.4, 948.064, 0.0441642, NaN, NaN, NaN, 0.0335714, "- N/A -   "
26.43, 949.365, 0.044217, NaN, NaN, NaN, 0.0323506, "- N/A -   "
26.46, 950.666, 0.04426698, NaN, NaN, NaN, 0.0323506, "- N/A -   "
26.49, 952.0853, 0.04431974, NaN, NaN, NaN, 0.0323506, "- N/A -   "
26.52, 953.0316, 0.0443614, NaN, NaN, NaN, 0.0347922, "- N/A -   "
26.55, 953.86, 0.0444003, NaN, NaN, NaN, 0.0396753, "- N/A -   "
26.58, 955.042, 0.0444447, NaN, NaN, NaN, 0.04211683, "- N/A -   "
26.61, 956.2252, 0.0444947, NaN, NaN, NaN, 0.0433376, "- N/A -   "
26.64, 957.526, 0.0445419, NaN, NaN, NaN, 0.0433376, "- N/A -   "
26.67, 958.5908, 0.04458908, NaN, NaN, NaN, 0.04577916, "- N/A -   "
26.7, 959.8919, 0.04463351, NaN, NaN, NaN, 0.04699994, "- N/A -   "
26.73, 961.0747, 0.0446835, NaN, NaN, NaN, 0.04699994, "- N/A -   "
26.76, 962.612, 0.044739, NaN, NaN, NaN, 0.0445584, "- N/A -   "
26.79, 964.2683, 0.0448001, NaN, NaN, NaN, 0.0396753, "- N/A -   "
26.82, 965.8059, 0.0448612, NaN, NaN, NaN, 0.03601294, "- N/A -   "
26.85, 967.107, 0.044914, NaN, NaN, NaN, 0.0335714, "- N/A -   "
26.88, 968.2898, 0.0449612, NaN, NaN, NaN, 0.0347922, "- N/A -   "
26.91, 969.473, 0.0450084, NaN, NaN, NaN, 0.03601294, "- N/A -   "
26.94, 970.655, 0.0450584, NaN, NaN, NaN, 0.03601294, "- N/A -   "
26.97, 972.0748, 0.0451111, NaN, NaN, NaN, 0.03601294, "- N/A -   "
27, 973.4942, 0.04516665, NaN, NaN, NaN, 0.0335714, "- N/A -   "
27.03, 974.9136, 0.04522218, NaN, NaN, NaN, 0.03112983, "- N/A -   "
27.06, 976.2146, 0.0452749, NaN, NaN, NaN, 0.0286883, "- N/A -   "
27.09, 977.516, 0.0453221, NaN, NaN, NaN, 0.0299091, "- N/A -   "
27.12, 978.699, 0.0453694, NaN, NaN, NaN, 0.0323506, "- N/A -   "
27.15, 979.527, 0.045411, NaN, NaN, NaN, 0.0347922, "- N/A -   "
27.18, 980.7093, 0.04545543, NaN, NaN, NaN, 0.0372337, "- N/A -   "
27.21, 981.892, 0.0454999, NaN, NaN, NaN, 0.04089605, "- N/A -   "
27.24, 982.957, 0.04553873, NaN, NaN, NaN, 0.0445584, "- N/A -   "
27.27, 984.0212, 0.0455859, NaN, NaN, NaN, 0.04577916, "- N/A -   "
27.3, 985.204, 0.0456331, NaN, NaN, NaN, 0.04699994, "- N/A -   "
27.33, 986.505, 0.0456859, NaN, NaN, NaN, 0.04577916, "- N/A -   "
27.36, 987.924, 0.04573866, NaN, NaN, NaN, 0.0445584, "- N/A -   "
27.39, 989.462, 0.0457942, NaN, NaN, NaN, 0.04211683, "- N/A -   "
27.42, 990.8815, 0.0458525, NaN, NaN, NaN, 0.0396753, "- N/A -   "
27.45, 992.5374, 0.045908, NaN, NaN, NaN, 0.03601294, "- N/A -   "
27.48, 993.9568, 0.0459636, NaN, NaN, NaN, 0.0335714, "- N/A -   "
27.51, 995.2579, 0.04601911, NaN, NaN, NaN, 0.03112983, "- N/A -   "
27.54, 996.559, 0.04606909, NaN, NaN, NaN, 0.03112983, "- N/A -   "
27.57, 997.86, 0.04612185, NaN, NaN, NaN, 0.0299091, "- N/A -   "
27.6, 999.161, 0.0461774, NaN, NaN, NaN, 0.0286883, "- N/A -   "
27.63, 1000.46, 0.0462246, NaN, NaN, NaN, 0.0286883, "- N/A -   "
27.66, 1001.645, 0.0462718, NaN, NaN, NaN, 0.0299091, "- N/A -   "
27.69, 1002.95, 0.0463246, NaN, NaN, NaN, 0.0299091, "- N/A -   "
27.72, 1004.13, 0.0463718, NaN, NaN, NaN, 0.0299091, "- N/A -   "
27.75, 1005.31, 0.04641896, NaN, NaN, NaN, 0.03112983, "- N/A -   "
27.78, 1006.49, 0.0464662, NaN, NaN, NaN, 0.0323506, "- N/A -   "
27.81, 1007.559, 0.0465078, NaN, NaN, NaN, 0.03601294, "- N/A -   "
27.84, 1008.62, 0.04654947, NaN, NaN, NaN, 0.0396753, "- N/A -   "
27.87, 1009.57, 0.04659112, NaN, NaN, NaN, 0.0433376, "- N/A -   "
27.9, 1010.871, 0.04664388, NaN, NaN, NaN, 0.0433376, "- N/A -   "
27.93, 1012.172, 0.04669386, NaN, NaN, NaN, 0.0433376, "- N/A -   "
27.96, 1013.477, 0.04674384, NaN, NaN, NaN, 0.0433376, "- N/A -   "
27.99, 1014.79, 0.04679105, NaN, NaN, NaN, 0.0445584, "- N/A -   "
28.02, 1016.1, 0.04684103, NaN, NaN, NaN, 0.0433376, "- N/A -   "
28.05, 1017.29, 0.04689101, NaN, NaN, NaN, 0.0433376, "- N/A -   "
28.08, 1018.6, 0.04694377, NaN, NaN, NaN, 0.0433376, "- N/A -   "
28.11, 1020.04, 0.04699375, NaN, NaN, NaN, 0.04211683, "- N/A -   "
28.14, 1021.47, 0.0470521, NaN, NaN, NaN, 0.0396753, "- N/A -   "
28.17, 1023.26, 0.0471131, NaN, NaN, NaN, 0.0335714, "- N/A -   "
28.2, 1024.81, 0.0471742, NaN, NaN, NaN, 0.0299091, "- N/A -   "
28.23, 1026.12, 0.04722422, NaN, NaN, NaN, 0.0286883, "- N/A -   "
28.26, 1027.31, 0.0472742, NaN, NaN, NaN, 0.0299091, "- N/A -   "
28.29, 1028.5, 0.04732141, NaN, NaN, NaN, 0.0299091, "- N/A -   "
28.32, 1029.576, 0.0473658, NaN, NaN, NaN, 0.0323506, "- N/A -   "
28.35, 1030.65, 0.0474103, NaN, NaN, NaN, 0.0347922, "- N/A -   "
28.38, 1031.961, 0.0474602, NaN, NaN, NaN, 0.0347922, "- N/A -   "
28.41, 1033.27, 0.0475074, NaN, NaN, NaN, 0.03601294, "- N/A -   "
28.44, 1034.58, 0.0475602, NaN, NaN, NaN, 0.0347922, "- N/A -   "
28.47, 1035.9, 0.0476102, NaN, NaN, NaN, 0.0347922, "- N/A -   "
28.5, 1037.21, 0.0476602, NaN, NaN, NaN, 0.03601294, "- N/A -   "
28.53, 1038.28, 0.0477046, NaN, NaN, NaN, 0.0372337, "- N/A -   "
28.56, 1039.71, 0.04775458, NaN, NaN, NaN, 0.0384545, "- N/A -   "
28.59, 1040.79, 0.04779623, NaN, NaN, NaN, 0.04089605, "- N/A -   "
28.62, 1041.859, 0.0478434, NaN, NaN, NaN, 0.0433376, "- N/A -   "
28.65, 1042.93, 0.0478879, NaN, NaN, NaN, 0.0445584, "- N/A -   "
28.68, 1044.12, 0.04793507, NaN, NaN, NaN, 0.04577916, "- N/A -   "
28.71, 1045.44, 0.0479878, NaN, NaN, NaN, 0.0445584, "- N/A -   "
28.74, 1046.99, 0.0480434, NaN, NaN, NaN, 0.04211683, "- N/A -   "
28.77, 1048.54, 0.0481017, NaN, NaN, NaN, 0.0384545, "- N/A -   "
28.8, 1050.09, 0.04816, NaN, NaN, NaN, 0.0347922, "- N/A -   "
28.83, 1051.64, 0.04821552, NaN, NaN, NaN, 0.0323506, "- N/A -   "
28.86, 1053.07, 0.04827661, NaN, NaN, NaN, 0.0286883, "- N/A -   "
28.89, 1054.38, 0.04832659, NaN, NaN, NaN, 0.0286883, "- N/A -   "
28.92, 1055.573, 0.0483738, NaN, NaN, NaN, 0.0299091, "- N/A -   "
28.95, 1056.65, 0.0484182, NaN, NaN, NaN, 0.0323506, "- N/A -   "
28.98, 1057.84, 0.0484626, NaN, NaN, NaN, 0.0335714, "- N/A -   "
29.01, 1059.03, 0.0485126, NaN, NaN, NaN, 0.0347922, "- N/A -   "
29.04, 1060.343, 0.0485626, NaN, NaN, NaN, 0.0335714, "- N/A -   "
29.07, 1061.65, 0.0486126, NaN, NaN, NaN, 0.0335714, "- N/A -   "
29.1, 1063.09, 0.04866813, NaN, NaN, NaN, 0.0323506, "- N/A -   "
29.13, 1064.159, 0.0487153, NaN, NaN, NaN, 0.0335714, "- N/A -   "
29.16, 1065.35, 0.0487598, NaN, NaN, NaN, 0.0347922, "- N/A -   "
29.19, 1066.66, 0.04880697, NaN, NaN, NaN, 0.03601294, "- N/A -   "
29.22, 1067.74, 0.0488514, NaN, NaN, NaN, 0.0384545, "- N/A -   "
29.237, 1068.33, 0.0488792, NaN, NaN, NaN, 0.0396753, "- N/A -   "