File: 2_Tensile_Data/Hamel_ForceTest_Bolt5_Test2.csv
Time, Load (lb), Position (in), AxialStrain (in), TransverseStrain (in), Auxiliary (), Control Out (V), Stress (psi)
0.0, 1.29742, 0.0, NaN, NaN, NaN, 0.09461027, "- N/A -   "
0.01, 1.76921, 3.054427E-5, NaN, NaN, NaN, 0.09461027, "- N/A -   "
0.02, 2.241, 6.6642e-05, NaN, NaN, NaN, 0.0872856, "- N/A -   "
0.03, 2.712792, 9.718631E-5, NaN, NaN, NaN, 0.08118171, "- N/A -   "
0.04, 3.06663, 0.000127731, NaN, NaN, NaN, 0.0750778, "- N/A -   "
0.05, 3.42048, 0.000152721, NaN, NaN, NaN, 0.0701947, "- N/A -   "
0.06, 3.774319, 0.000177712, NaN, NaN, NaN, 0.06653238, "- N/A -   "
0.07, 4.246109, 0.00020548, NaN, NaN, NaN, 0.06287005, "- N/A -   "
0.08, 4.482, 0.000227694, NaN, NaN, NaN, 0.0592077, "- N/A -   "
0.09, 4.717899, 0.000249908, NaN, NaN, NaN, 0.05676616, "- N/A -   "
0.1, 5.18969, 2.721217E-4, NaN, NaN, NaN, 0.0543246, "- N/A -   "
0.11, 5.425584, 0.000297112, NaN, NaN, NaN, 0.05188305, "- N/A -   "
0.12, 5.779426, 3.165497E-4, NaN, NaN, NaN, 0.0494415, "- N/A -   "
0.13, 6.01532, 0.000335987, NaN, NaN, NaN, 0.0482207, "- N/A -   "
0.14, 6.251216, 0.000355424, NaN, NaN, NaN, 0.0482207, "- N/A -   "
0.15, 6.369163, 3.69308E-4, NaN, NaN, NaN, 0.0482207, "- N/A -   "
0.16, 6.723006, 0.000388745, NaN, NaN, NaN, 0.0482207, "- N/A -   "
0.17, 6.84095, 0.000402629, NaN, NaN, NaN, 0.0482207, "- N/A -   "
0.18, 7.07685, 4.192895E-4, NaN, NaN, NaN, 0.0482207, "- N/A -   "
0.19, 7.312743, 0.00043595, NaN, NaN, NaN, 0.0494415, "- N/A -   "
0.2, 7.548638, 0.000449834, NaN, NaN, NaN, 0.0494415, "- N/A -   "
0.21, 7.666586, 4.664943E-4, NaN, NaN, NaN, 0.05066227, "- N/A -   "
0.22, 7.784533, 0.000480378, NaN, NaN, NaN, 0.05188305, "- N/A -   "
0.23, 8.020428, 4.942618E-4, NaN, NaN, NaN, 0.05188305, "- N/A -   "
0.24, 8.37427, 0.000510922, NaN, NaN, NaN, 0.05188305, "- N/A -   "
0.25, 8.610166, 0.00053036, NaN, NaN, NaN, 0.05066227, "- N/A -   "
0.26, 8.728113, 5.470201E-4, NaN, NaN, NaN, 0.05066227, "- N/A -   "
0.27, 9.081955, 5.664574E-4, NaN, NaN, NaN, 0.0494415, "- N/A -   "
0.28, 9.31785, 5.858946E-4, NaN, NaN, NaN, 0.0494415, "- N/A -   "
0.29, 9.553744, 0.000602555, NaN, NaN, NaN, 0.0482207, "- N/A -   "
0.3, 9.78964, 6.219924E-4, NaN, NaN, NaN, 0.0482207, "- N/A -   "
0.31, 10.1435, 0.000638653, NaN, NaN, NaN, 0.04699994, "- N/A -   "
0.32, 10.26143, 0.000655313, NaN, NaN, NaN, 0.0482207, "- N/A -   "
0.33, 10.4973, 6.719739E-4, NaN, NaN, NaN, 0.04699994, "- N/A -   "
0.34, 10.73322, 0.000688634, NaN, NaN, NaN, 0.04699994, "- N/A -   "
0.35, 10.9691, 0.000705295, NaN, NaN, NaN, 0.04699994, "- N/A -   "
0.36, 11.0871, 7.219555E-4, NaN, NaN, NaN, 0.04699994, "- N/A -   "
0.37, 11.4409, 7.413927E-4, NaN, NaN, NaN, 0.04577916, "- N/A -   "
0.38, 11.6768, 0.000758053, NaN, NaN, NaN, 0.04577916, "- N/A -   "
0.39, 11.9127, 7.774905E-4, NaN, NaN, NaN, 0.0445584, "- N/A -   "
0.4, 12.0306, 0.000794151, NaN, NaN, NaN, 0.0445584, "- N/A -   "
0.41, 12.3845, 8.108115E-4, NaN, NaN, NaN, 0.0445584, "- N/A -   "
0.42, 12.6204, 8.27472E-4, NaN, NaN, NaN, 0.0445584, "- N/A -   "
0.43, 12.7383, 8.469093E-4, NaN, NaN, NaN, 0.0433376, "- N/A -   "
0.44, 13.09217, 8.663466E-4, NaN, NaN, NaN, 0.0433376, "- N/A -   "
0.45, 13.2101, 8.830071E-4, NaN, NaN, NaN, 0.04211683, "- N/A -   "
0.46, 13.6819, 9.052211E-4, NaN, NaN, NaN, 0.04089605, "- N/A -   "
0.47, 13.7999, 9.246584E-4, NaN, NaN, NaN, 0.0384545, "- N/A -   "
0.48, 14.1537, 0.000946872, NaN, NaN, NaN, 0.0372337, "- N/A -   "
0.49, 14.3896, 9.635329E-4, NaN, NaN, NaN, 0.03601294, "- N/A -   "
0.5, 14.6255, 9.857469E-4, NaN, NaN, NaN, 0.0335714, "- N/A -   "
0.51, 14.8614, 0.00100518, NaN, NaN, NaN, 0.0335714, "- N/A -   "
0.52, 15.0973, 0.00102462, NaN, NaN, NaN, 0.0323506, "- N/A -   "
0.53, 15.3332, 0.001041282, NaN, NaN, NaN, 0.03112983, "- N/A -   "
0.54, 15.5691, 0.00106072, NaN, NaN, NaN, 0.03112983, "- N/A -   "
0.55, 15.805, 0.00107738, NaN, NaN, NaN, 0.0299091, "- N/A -   "
0.56, 16.0409, 0.00109404, NaN, NaN, NaN, 0.0299091, "- N/A -   "
0.57, 16.27675, 0.0011107, NaN, NaN, NaN, 0.0299091, "- N/A -   "
0.58, 16.3947, 0.00112736, NaN, NaN, NaN, 0.0299091, "- N/A -   "
0.59, 16.6306, 0.00114402, NaN, NaN, NaN, 0.0299091, "- N/A -   "
0.6, 16.9844, 0.00116068, NaN, NaN, NaN, 0.0299091, "- N/A -   "
0.61, 17.1024, 0.001174566, NaN, NaN, NaN, 0.03112983, "- N/A -   "
0.62, 17.3383, 0.00119123, NaN, NaN, NaN, 0.03112983, "- N/A -   "
0.63, 17.4562, 0.00120511, NaN, NaN, NaN, 0.0323506, "- N/A -   "
0.64, 17.6921, 0.00122177, NaN, NaN, NaN, 0.0323506, "- N/A -   "
0.65, 17.928, 0.00123843, NaN, NaN, NaN, 0.0335714, "- N/A -   "
0.66, 18.046, 0.00125232, NaN, NaN, NaN, 0.0335714, "- N/A -   "
0.67, 18.3998, 0.00126898, NaN, NaN, NaN, 0.0335714, "- N/A -   "
0.68, 18.5178, 0.00128286, NaN, NaN, NaN, 0.0347922, "- N/A -   "
0.69, 18.8716, 0.00129952, NaN, NaN, NaN, 0.0347922, "- N/A -   "
0.7, 18.9895, 0.00131618, NaN, NaN, NaN, 0.0347922, "- N/A -   "
0.71, 19.3434, 0.00133284, NaN, NaN, NaN, 0.0347922, "- N/A -   "
0.72, 19.3434, 0.0013495, NaN, NaN, NaN, 0.0347922, "- N/A -   "
0.73, 19.6972, 0.00136339, NaN, NaN, NaN, 0.03601294, "- N/A -   "
0.74, 19.8152, 0.00137727, NaN, NaN, NaN, 0.0372337, "- N/A -   "
0.75, 20.05107, 0.00139393, NaN, NaN, NaN, 0.0372337, "- N/A -   "
0.76, 20.287, 0.00141059, NaN, NaN, NaN, 0.0384545, "- N/A -   "
0.77, 20.4049, 0.00142447, NaN, NaN, NaN, 0.0384545, "- N/A -   "
0.78, 20.6408, 0.00144113, NaN, NaN, NaN, 0.0384545, "- N/A -   "
0.79, 20.8767, 0.00145779, NaN, NaN, NaN, 0.0384545, "- N/A -   "
0.8, 21.1126, 0.00147446, NaN, NaN, NaN, 0.0396753, "- N/A -   "
0.81, 21.3485, 0.00149112, NaN, NaN, NaN, 0.0384545, "- N/A -   "
0.82, 21.46644, 0.00150778, NaN, NaN, NaN, 0.0384545, "- N/A -   "
0.83, 21.8203, 0.00152721, NaN, NaN, NaN, 0.0372337, "- N/A -   "
0.84, 22.0562, 0.001543874, NaN, NaN, NaN, 0.0372337, "- N/A -   "
0.85, 22.29207, 0.00156053, NaN, NaN, NaN, 0.0384545, "- N/A -   "
0.86, 22.41, 0.00157442, NaN, NaN, NaN, 0.0384545, "- N/A -   "
0.87, 22.7639, 0.00159108, NaN, NaN, NaN, 0.0396753, "- N/A -   "
0.88, 22.7639, 0.00160496, NaN, NaN, NaN, 0.0396753, "- N/A -   "
0.89, 22.9998, 0.00161885, NaN, NaN, NaN, 0.04089605, "- N/A -   "
0.9, 23.1177, 0.00163273, NaN, NaN, NaN, 0.04211683, "- N/A -   "
0.91, 23.3536, 0.00164661, NaN, NaN, NaN, 0.0433376, "- N/A -   "
0.92, 23.5895, 0.00166327, NaN, NaN, NaN, 0.0433376, "- N/A -   "
0.93, 23.7074, 0.00167993, NaN, NaN, NaN, 0.0433376, "- N/A -   "
0.94, 23.9433, 0.0016966, NaN, NaN, NaN, 0.0433376, "- N/A -   "
0.95, 24.29718, 0.00171326, NaN, NaN, NaN, 0.0433376, "- N/A -   "
0.96, 24.4151, 0.00172992, NaN, NaN, NaN, 0.0433376, "- N/A -   "
0.97, 24.65102, 0.0017438, NaN, NaN, NaN, 0.0445584, "- N/A -   "
0.98, 24.8869, 0.00176046, NaN, NaN, NaN, 0.0445584, "- N/A -   "
0.99, 25.0049, 0.00177712, NaN, NaN, NaN, 0.0445584, "- N/A -   "
1, 25.3587, 0.00179378, NaN, NaN, NaN, 0.0445584, "- N/A -   "
1.01, 25.4767, 0.00181322, NaN, NaN, NaN, 0.0445584, "- N/A -   "
1.02, 25.8305, 0.00182988, NaN, NaN, NaN, 0.0433376, "- N/A -   "
1.03, 25.9484, 0.00184932, NaN, NaN, NaN, 0.04211683, "- N/A -   "
1.04, 26.3023, 0.00186875, NaN, NaN, NaN, 0.04089605, "- N/A -   "
1.05, 26.5382, 0.00188819, NaN, NaN, NaN, 0.0396753, "- N/A -   "
1.06, 26.7741, 0.00191041, NaN, NaN, NaN, 0.0372337, "- N/A -   "
1.07, 27.01, 0.00193262, NaN, NaN, NaN, 0.03601294, "- N/A -   "
1.08, 27.3638, 0.00194928, NaN, NaN, NaN, 0.0347922, "- N/A -   "
1.09, 27.5997, 0.001968717, NaN, NaN, NaN, 0.0347922, "- N/A -   "
1.1, 27.8356, 0.00198538, NaN, NaN, NaN, 0.0335714, "- N/A -   "
1.11, 27.95355, 0.00200481, NaN, NaN, NaN, 0.0335714, "- N/A -   "
1.12, 28.42534, 0.00202148, NaN, NaN, NaN, 0.0323506, "- N/A -   "
1.13, 28.54329, 0.002038136, NaN, NaN, NaN, 0.0323506, "- N/A -   "
1.14, 28.7792, 0.0020548, NaN, NaN, NaN, 0.0323506, "- N/A -   "
1.15, 28.89713, 0.00207423, NaN, NaN, NaN, 0.03112983, "- N/A -   "
1.16, 29.133, 0.002093671, NaN, NaN, NaN, 0.0299091, "- N/A -   "
1.17, 29.3689, 0.00211033, NaN, NaN, NaN, 0.0299091, "- N/A -   "
1.18, 29.6048, 0.002126992, NaN, NaN, NaN, 0.0299091, "- N/A -   "
1.19, 29.84071, 0.00214643, NaN, NaN, NaN, 0.0299091, "- N/A -   "
1.2, 30.0766, 0.00216031, NaN, NaN, NaN, 0.0299091, "- N/A -   "
1.21, 30.1946, 0.00217697, NaN, NaN, NaN, 0.03112983, "- N/A -   "
1.22, 30.4304, 0.00219086, NaN, NaN, NaN, 0.03112983, "- N/A -   "
1.23, 30.6663, 0.00220752, NaN, NaN, NaN, 0.03112983, "- N/A -   "
1.24, 30.78429, 0.0022214, NaN, NaN, NaN, 0.0323506, "- N/A -   "
1.25, 31.0202, 0.002238062, NaN, NaN, NaN, 0.0335714, "- N/A -   "
1.26, 31.1381, 0.002249169, NaN, NaN, NaN, 0.0347922, "- N/A -   "
1.27, 31.2561, 0.00226583, NaN, NaN, NaN, 0.03601294, "- N/A -   "
1.28, 31.6099, 0.00228249, NaN, NaN, NaN, 0.03601294, "- N/A -   "
1.29, 31.8458, 0.00229915, NaN, NaN, NaN, 0.03601294, "- N/A -   "
1.3, 32.08171, 0.00231303, NaN, NaN, NaN, 0.03601294, "- N/A -   "
1.31, 32.1997, 0.00232969, NaN, NaN, NaN, 0.03601294, "- N/A -   "
1.32, 32.5535, 0.00234636, NaN, NaN, NaN, 0.03601294, "- N/A -   "
1.33, 32.67145, 0.002363016, NaN, NaN, NaN, 0.03601294, "- N/A -   "
1.34, 32.9073, 0.00238245, NaN, NaN, NaN, 0.0347922, "- N/A -   "
1.35, 33.02529, 0.00239911, NaN, NaN, NaN, 0.03601294, "- N/A -   "
1.36, 33.3791, 0.00241577, NaN, NaN, NaN, 0.0347922, "- N/A -   "
1.37, 33.49708, 0.00243521, NaN, NaN, NaN, 0.0347922, "- N/A -   "
1.38, 33.73298, 0.00245187, NaN, NaN, NaN, 0.0335714, "- N/A -   "
1.39, 34.08682, 0.00247131, NaN, NaN, NaN, 0.0335714, "- N/A -   "
1.4, 34.3227, 0.00248797, NaN, NaN, NaN, 0.0323506, "- N/A -   "
1.41, 34.55861, 0.00250741, NaN, NaN, NaN, 0.0323506, "- N/A -   "
1.42, 34.6766, 0.00252129, NaN, NaN, NaN, 0.0323506, "- N/A -   "
1.43, 34.7945, 0.00253795, NaN, NaN, NaN, 0.0335714, "- N/A -   "
1.44, 35.1483, 0.00255461, NaN, NaN, NaN, 0.0323506, "- N/A -   "
1.45, 35.2663, 0.00257127, NaN, NaN, NaN, 0.0335714, "- N/A -   "
1.46, 35.50219, 0.002585156, NaN, NaN, NaN, 0.0335714, "- N/A -   "
1.47, 35.6201, 0.00260182, NaN, NaN, NaN, 0.0335714, "- N/A -   "
1.48, 35.85603, 0.00261848, NaN, NaN, NaN, 0.0335714, "- N/A -   "
1.49, 36.0919, 0.00263514, NaN, NaN, NaN, 0.0335714, "- N/A -   "
1.5, 36.32782, 0.00264902, NaN, NaN, NaN, 0.0347922, "- N/A -   "
1.51, 36.44577, 0.00266568, NaN, NaN, NaN, 0.0347922, "- N/A -   "
1.52, 36.5637, 0.00267957, NaN, NaN, NaN, 0.03601294, "- N/A -   "
1.53, 36.79961, 0.00269345, NaN, NaN, NaN, 0.0372337, "- N/A -   "
1.54, 36.9176, 0.00271011, NaN, NaN, NaN, 0.0384545, "- N/A -   "
1.55, 37.15345, 0.00272122, NaN, NaN, NaN, 0.0396753, "- N/A -   "
1.56, 37.15345, 0.0027351, NaN, NaN, NaN, 0.04211683, "- N/A -   "
1.57, 37.3893, 0.00274898, NaN, NaN, NaN, 0.04211683, "- N/A -   "
1.58, 37.6252, 0.00276287, NaN, NaN, NaN, 0.0433376, "- N/A -   "
1.59, 37.6252, 0.00277675, NaN, NaN, NaN, 0.0445584, "- N/A -   "
1.6, 37.9791, 0.00279341, NaN, NaN, NaN, 0.04577916, "- N/A -   "
1.61, 38.215, 0.0028073, NaN, NaN, NaN, 0.04577916, "- N/A -   "
1.62, 38.4509, 0.00282396, NaN, NaN, NaN, 0.04577916, "- N/A -   "
1.63, 38.5688, 0.002843394, NaN, NaN, NaN, 0.0445584, "- N/A -   "
1.64, 38.8047, 0.00286005, NaN, NaN, NaN, 0.0445584, "- N/A -   "
1.65, 39.15856, 0.00287949, NaN, NaN, NaN, 0.0445584, "- N/A -   "
1.66, 39.2765, 0.002898929, NaN, NaN, NaN, 0.0433376, "- N/A -   "
1.67, 39.6304, 0.00291559, NaN, NaN, NaN, 0.04211683, "- N/A -   "
1.68, 39.7483, 0.00293503, NaN, NaN, NaN, 0.04089605, "- N/A -   "
1.69, 39.98419, 0.002951687, NaN, NaN, NaN, 0.04089605, "- N/A -   "
1.7, 40.22009, 0.00296835, NaN, NaN, NaN, 0.04211683, "- N/A -   "
1.71, 40.456, 0.002985008, NaN, NaN, NaN, 0.04089605, "- N/A -   "
1.72, 40.8098, 0.00300445, NaN, NaN, NaN, 0.0396753, "- N/A -   "
1.73, 41.04572, 0.003021106, NaN, NaN, NaN, 0.0396753, "- N/A -   "
1.74, 41.16367, 0.00304332, NaN, NaN, NaN, 0.0372337, "- N/A -   "
1.75, 41.39956, 0.00306276, NaN, NaN, NaN, 0.0372337, "- N/A -   "
1.76, 41.6355, 0.00307942, NaN, NaN, NaN, 0.0372337, "- N/A -   "
1.77, 41.8714, 0.003096078, NaN, NaN, NaN, 0.0372337, "- N/A -   "
1.78, 42.1072, 0.003112739, NaN, NaN, NaN, 0.03601294, "- N/A -   "
1.79, 42.3431, 0.00312662, NaN, NaN, NaN, 0.0372337, "- N/A -   "
1.8, 42.579, 0.00314606, NaN, NaN, NaN, 0.0372337, "- N/A -   "
1.81, 42.8149, 0.00316272, NaN, NaN, NaN, 0.03601294, "- N/A -   "
1.82, 43.0508, 0.003179381, NaN, NaN, NaN, 0.03601294, "- N/A -   "
1.83, 43.2867, 0.003196041, NaN, NaN, NaN, 0.03601294, "- N/A -   "
1.84, 43.5226, 0.003212702, NaN, NaN, NaN, 0.03601294, "- N/A -   "
1.85, 43.6406, 0.00323214, NaN, NaN, NaN, 0.03601294, "- N/A -   "
1.86, 43.87646, 0.0032488, NaN, NaN, NaN, 0.0347922, "- N/A -   "
1.87, 44.1124, 0.00326546, NaN, NaN, NaN, 0.0347922, "- N/A -   "
1.88, 44.34825, 0.003282121, NaN, NaN, NaN, 0.0347922, "- N/A -   "
1.89, 44.58414, 0.003298781, NaN, NaN, NaN, 0.0347922, "- N/A -   "
1.9, 44.70209, 0.00331822, NaN, NaN, NaN, 0.0347922, "- N/A -   "
1.91, 44.93799, 0.00333488, NaN, NaN, NaN, 0.0335714, "- N/A -   "
1.92, 45.17388, 0.003354316, NaN, NaN, NaN, 0.0335714, "- N/A -   "
1.93, 45.29183, 0.003370977, NaN, NaN, NaN, 0.0335714, "- N/A -   "
1.94, 45.6457, 0.00338486, NaN, NaN, NaN, 0.0335714, "- N/A -   "
1.95, 45.8816, 0.003404298, NaN, NaN, NaN, 0.0335714, "- N/A -   "
1.96, 45.9995, 0.00342096, NaN, NaN, NaN, 0.0323506, "- N/A -   "
1.97, 46.23541, 0.0034404, NaN, NaN, NaN, 0.0323506, "- N/A -   "
1.98, 46.4713, 0.00345428, NaN, NaN, NaN, 0.0323506, "- N/A -   "
1.99, 46.7072, 0.00347094, NaN, NaN, NaN, 0.0323506, "- N/A -   "
2, 46.9431, 0.0034876, NaN, NaN, NaN, 0.0323506, "- N/A -   "
2.01, 47.061, 0.00350148, NaN, NaN, NaN, 0.0335714, "- N/A -   "
2.02, 47.2969, 0.00351814, NaN, NaN, NaN, 0.0335714, "- N/A -   "
2.03, 47.4149, 0.00353481, NaN, NaN, NaN, 0.0335714, "- N/A -   "
2.04, 47.65078, 0.00355147, NaN, NaN, NaN, 0.0347922, "- N/A -   "
2.05, 47.8867, 0.00356813, NaN, NaN, NaN, 0.0347922, "- N/A -   "
2.06, 48.12257, 0.00358201, NaN, NaN, NaN, 0.0347922, "- N/A -   "
2.07, 48.3585, 0.00359867, NaN, NaN, NaN, 0.0347922, "- N/A -   "
2.08, 48.47641, 0.00361533, NaN, NaN, NaN, 0.0347922, "- N/A -   "
2.09, 48.7123, 0.00363199, NaN, NaN, NaN, 0.0347922, "- N/A -   "
2.1, 48.9482, 0.00364865, NaN, NaN, NaN, 0.0347922, "- N/A -   "
2.11, 49.30204, 0.00366809, NaN, NaN, NaN, 0.0335714, "- N/A -   "
2.12, 49.41999, 0.00368475, NaN, NaN, NaN, 0.0335714, "- N/A -   "
2.13, 49.5379, 0.00370141, NaN, NaN, NaN, 0.0347922, "- N/A -   "
2.14, 49.7738, 0.00371807, NaN, NaN, NaN, 0.0347922, "- N/A -   "
2.15, 50.0097, 0.00373195, NaN, NaN, NaN, 0.0347922, "- N/A -   "
2.16, 50.3636, 0.00375139, NaN, NaN, NaN, 0.0347922, "- N/A -   "
2.17, 50.4815, 0.00376805, NaN, NaN, NaN, 0.0335714, "- N/A -   "
2.18, 50.7174, 0.00378749, NaN, NaN, NaN, 0.0335714, "- N/A -   "
2.19, 50.9533, 0.00380415, NaN, NaN, NaN, 0.0323506, "- N/A -   "
2.2, 51.1892, 0.00382081, NaN, NaN, NaN, 0.0323506, "- N/A -   "
2.21, 51.4251, 0.00383747, NaN, NaN, NaN, 0.0323506, "- N/A -   "
2.22, 51.543, 0.00385135, NaN, NaN, NaN, 0.0335714, "- N/A -   "
2.23, 51.7789, 0.00386524, NaN, NaN, NaN, 0.0347922, "- N/A -   "
2.24, 52.01483, 0.00387912, NaN, NaN, NaN, 0.03601294, "- N/A -   "
2.25, 52.25073, 0.00389578, NaN, NaN, NaN, 0.0372337, "- N/A -   "
2.26, 52.25073, 0.00390967, NaN, NaN, NaN, 0.0384545, "- N/A -   "
2.27, 52.6046, 0.00392355, NaN, NaN, NaN, 0.0384545, "- N/A -   "
2.28, 52.72252, 0.00393743, NaN, NaN, NaN, 0.0396753, "- N/A -   "
2.29, 52.84047, 0.00395409, NaN, NaN, NaN, 0.0396753, "- N/A -   "
2.3, 53.0764, 0.00397076, NaN, NaN, NaN, 0.0396753, "- N/A -   "
2.31, 53.3123, 0.00398742, NaN, NaN, NaN, 0.0396753, "- N/A -   "
2.32, 53.6661, 0.00400408, NaN, NaN, NaN, 0.0396753, "- N/A -   "
2.33, 53.902, 0.00402074, NaN, NaN, NaN, 0.0396753, "- N/A -   "
2.34, 54.13789, 0.0040374, NaN, NaN, NaN, 0.0396753, "- N/A -   "
2.35, 54.3738, 0.00405406, NaN, NaN, NaN, 0.04089605, "- N/A -   "
2.36, 54.4917, 0.00406794, NaN, NaN, NaN, 0.04089605, "- N/A -   "
2.37, 54.7276, 0.004084602, NaN, NaN, NaN, 0.04089605, "- N/A -   "
2.38, 54.9635, 0.00410126, NaN, NaN, NaN, 0.04211683, "- N/A -   "
2.39, 55.1994, 0.004117923, NaN, NaN, NaN, 0.04211683, "- N/A -   "
2.4, 55.43531, 0.00413181, NaN, NaN, NaN, 0.04211683, "- N/A -   "
2.41, 55.55326, 0.00414847, NaN, NaN, NaN, 0.04211683, "- N/A -   "
2.42, 55.7892, 0.004165128, NaN, NaN, NaN, 0.0433376, "- N/A -   "
2.43, 56.02505, 0.00418179, NaN, NaN, NaN, 0.0433376, "- N/A -   "
2.44, 56.143, 0.00419845, NaN, NaN, NaN, 0.0433376, "- N/A -   "
2.45, 56.4968, 0.00421511, NaN, NaN, NaN, 0.04211683, "- N/A -   "
2.46, 56.73273, 0.004234547, NaN, NaN, NaN, 0.04211683, "- N/A -   "
2.47, 56.9686, 0.00425121, NaN, NaN, NaN, 0.04089605, "- N/A -   "
2.48, 57.32247, 0.00427064, NaN, NaN, NaN, 0.0396753, "- N/A -   "
2.49, 57.5584, 0.004287305, NaN, NaN, NaN, 0.0396753, "- N/A -   "
2.5, 57.79426, 0.004306742, NaN, NaN, NaN, 0.0384545, "- N/A -   "
2.51, 58.0302, 0.004328956, NaN, NaN, NaN, 0.0372337, "- N/A -   "
2.52, 58.384, 0.00434839, NaN, NaN, NaN, 0.0347922, "- N/A -   "
2.53, 58.6199, 0.00437061, NaN, NaN, NaN, 0.0323506, "- N/A -   "
2.54, 58.9737, 0.00439004, NaN, NaN, NaN, 0.0323506, "- N/A -   "
2.55, 59.2096, 0.004406705, NaN, NaN, NaN, 0.03112983, "- N/A -   "
2.56, 59.3276, 0.004423366, NaN, NaN, NaN, 0.03112983, "- N/A -   "
2.57, 59.5635, 0.004440026, NaN, NaN, NaN, 0.0323506, "- N/A -   "
2.58, 59.79937, 0.004456687, NaN, NaN, NaN, 0.0323506, "- N/A -   "
2.59, 59.9173, 0.00447057, NaN, NaN, NaN, 0.0323506, "- N/A -   "
2.6, 60.15321, 0.004487231, NaN, NaN, NaN, 0.0323506, "- N/A -   "
2.61, 60.3891, 0.004503892, NaN, NaN, NaN, 0.0323506, "- N/A -   "
2.62, 60.5071, 0.004520552, NaN, NaN, NaN, 0.0335714, "- N/A -   "
2.63, 60.7429, 0.004534436, NaN, NaN, NaN, 0.0335714, "- N/A -   "
2.64, 60.97884, 0.004553873, NaN, NaN, NaN, 0.0335714, "- N/A -   "
2.65, 61.2147, 0.004567757, NaN, NaN, NaN, 0.0335714, "- N/A -   "
2.66, 61.3327, 0.004584417, NaN, NaN, NaN, 0.0335714, "- N/A -   "
2.67, 61.6865, 0.004601078, NaN, NaN, NaN, 0.0335714, "- N/A -   "
2.68, 61.9224, 0.004617738, NaN, NaN, NaN, 0.0335714, "- N/A -   "
2.69, 62.0404, 0.00463718, NaN, NaN, NaN, 0.0335714, "- N/A -   "
2.7, 62.2763, 0.004651059, NaN, NaN, NaN, 0.0335714, "- N/A -   "
2.71, 62.5122, 0.004670497, NaN, NaN, NaN, 0.0323506, "- N/A -   "
2.72, 62.866, 0.00468993, NaN, NaN, NaN, 0.0323506, "- N/A -   "
2.73, 63.1019, 0.004706594, NaN, NaN, NaN, 0.03112983, "- N/A -   "
2.74, 63.2198, 0.00472603, NaN, NaN, NaN, 0.0299091, "- N/A -   "
2.75, 63.5737, 0.004745469, NaN, NaN, NaN, 0.0286883, "- N/A -   "
2.76, 63.6916, 0.00476213, NaN, NaN, NaN, 0.0286883, "- N/A -   "
2.77, 63.92753, 0.00477879, NaN, NaN, NaN, 0.0286883, "- N/A -   "
2.78, 64.16342, 0.00479545, NaN, NaN, NaN, 0.0286883, "- N/A -   "
2.79, 64.5173, 0.004812111, NaN, NaN, NaN, 0.0299091, "- N/A -   "
2.8, 64.6352, 0.004828771, NaN, NaN, NaN, 0.0299091, "- N/A -   "
2.81, 64.87111, 0.00484266, NaN, NaN, NaN, 0.0299091, "- N/A -   "
2.82, 65.107, 0.004859315, NaN, NaN, NaN, 0.03112983, "- N/A -   "
2.83, 65.22495, 0.0048732, NaN, NaN, NaN, 0.03112983, "- N/A -   "
2.84, 65.4608, 0.004887083, NaN, NaN, NaN, 0.0323506, "- N/A -   "
2.85, 65.69674, 0.00490374, NaN, NaN, NaN, 0.0323506, "- N/A -   "
2.86, 65.81469, 0.0049204, NaN, NaN, NaN, 0.0335714, "- N/A -   "
2.87, 66.16853, 0.00493706, NaN, NaN, NaN, 0.0323506, "- N/A -   "
2.88, 66.2865, 0.00495373, NaN, NaN, NaN, 0.0323506, "- N/A -   "
2.89, 66.52237, 0.004970385, NaN, NaN, NaN, 0.0323506, "- N/A -   "
2.9, 66.75827, 0.004987046, NaN, NaN, NaN, 0.0323506, "- N/A -   "
2.91, 66.87622, 0.00500093, NaN, NaN, NaN, 0.0335714, "- N/A -   "
2.92, 66.99416, 0.00501481, NaN, NaN, NaN, 0.03601294, "- N/A -   "
2.93, 67.1121, 0.00502592, NaN, NaN, NaN, 0.0372337, "- N/A -   "
2.94, 67.23006, 0.0050398, NaN, NaN, NaN, 0.0396753, "- N/A -   "
2.95, 67.34801, 0.00505369, NaN, NaN, NaN, 0.04089605, "- N/A -   "
2.96, 67.5839, 0.005067572, NaN, NaN, NaN, 0.04211683, "- N/A -   "
2.97, 67.81979, 0.00508146, NaN, NaN, NaN, 0.04211683, "- N/A -   "
2.98, 67.9377, 0.00509534, NaN, NaN, NaN, 0.0445584, "- N/A -   "
2.99, 68.29159, 0.00510922, NaN, NaN, NaN, 0.0445584, "- N/A -   "
3, 68.40953, 0.00512588, NaN, NaN, NaN, 0.04577916, "- N/A -   "
3.01, 68.6454, 0.00513977, NaN, NaN, NaN, 0.04577916, "- N/A -   "
3.02, 68.8813, 0.005156428, NaN, NaN, NaN, 0.04577916, "- N/A -   "
3.03, 68.9993, 0.00517309, NaN, NaN, NaN, 0.04577916, "- N/A -   "
3.04, 69.23517, 0.005186972, NaN, NaN, NaN, 0.04699994, "- N/A -   "
3.05, 69.47106, 0.00520363, NaN, NaN, NaN, 0.04699994, "- N/A -   "
3.06, 69.707, 0.00522029, NaN, NaN, NaN, 0.04699994, "- N/A -   "
3.07, 70.0608, 0.00523695, NaN, NaN, NaN, 0.04699994, "- N/A -   "
3.08, 70.29669, 0.005259168, NaN, NaN, NaN, 0.04577916, "- N/A -   "
3.09, 70.5326, 0.00527583, NaN, NaN, NaN, 0.0445584, "- N/A -   "
3.1, 70.7685, 0.00529527, NaN, NaN, NaN, 0.0433376, "- N/A -   "
3.11, 71.12233, 0.00531748, NaN, NaN, NaN, 0.04211683, "- N/A -   "
3.12, 71.4762, 0.00533692, NaN, NaN, NaN, 0.0396753, "- N/A -   "
3.13, 71.71206, 0.005356354, NaN, NaN, NaN, 0.0384545, "- N/A -   "
3.14, 71.94796, 0.00537579, NaN, NaN, NaN, 0.0384545, "- N/A -   "
3.15, 72.1838, 0.005392452, NaN, NaN, NaN, 0.0372337, "- N/A -   "
3.16, 72.41975, 0.00541189, NaN, NaN, NaN, 0.03601294, "- N/A -   "
3.17, 72.65564, 0.00542855, NaN, NaN, NaN, 0.03601294, "- N/A -   "
3.18, 72.89154, 0.00544521, NaN, NaN, NaN, 0.03601294, "- N/A -   "
3.19, 73.00948, 0.00546465, NaN, NaN, NaN, 0.03601294, "- N/A -   "
3.2, 73.2454, 0.005481308, NaN, NaN, NaN, 0.03601294, "- N/A -   "
3.21, 73.59922, 0.00549797, NaN, NaN, NaN, 0.0347922, "- N/A -   "
3.22, 73.71717, 0.00551463, NaN, NaN, NaN, 0.0347922, "- N/A -   "
3.23, 74.071, 0.00553129, NaN, NaN, NaN, 0.0347922, "- N/A -   "
3.24, 74.189, 0.00554795, NaN, NaN, NaN, 0.0347922, "- N/A -   "
3.25, 74.42485, 0.00556461, NaN, NaN, NaN, 0.0347922, "- N/A -   "
3.26, 74.66075, 0.005581271, NaN, NaN, NaN, 0.0347922, "- N/A -   "
3.27, 74.8966, 0.005597932, NaN, NaN, NaN, 0.0347922, "- N/A -   "
3.28, 75.13254, 0.00562015, NaN, NaN, NaN, 0.0335714, "- N/A -   "
3.29, 75.48638, 0.005639583, NaN, NaN, NaN, 0.0323506, "- N/A -   "
3.3, 75.7223, 0.00565902, NaN, NaN, NaN, 0.03112983, "- N/A -   "
3.31, 75.95817, 0.00567846, NaN, NaN, NaN, 0.0299091, "- N/A -   "
3.32, 76.19407, 0.00569512, NaN, NaN, NaN, 0.0286883, "- N/A -   "
3.33, 76.43, 0.00571178, NaN, NaN, NaN, 0.0286883, "- N/A -   "
3.34, 76.6659, 0.005728439, NaN, NaN, NaN, 0.0286883, "- N/A -   "
3.35, 76.90175, 0.0057451, NaN, NaN, NaN, 0.0286883, "- N/A -   "
3.36, 77.25559, 0.00576176, NaN, NaN, NaN, 0.0286883, "- N/A -   "
3.37, 77.49149, 0.00577842, NaN, NaN, NaN, 0.0286883, "- N/A -   "
3.38, 77.6094, 0.00579508, NaN, NaN, NaN, 0.0286883, "- N/A -   "
3.39, 77.84533, 0.00581174, NaN, NaN, NaN, 0.0286883, "- N/A -   "
3.4, 78.08122, 0.005828402, NaN, NaN, NaN, 0.0286883, "- N/A -   "
3.41, 78.31712, 0.005847839, NaN, NaN, NaN, 0.0274675, "- N/A -   "
3.42, 78.55301, 0.0058645, NaN, NaN, NaN, 0.0286883, "- N/A -   "
3.43, 78.78891, 0.00588116, NaN, NaN, NaN, 0.0274675, "- N/A -   "
3.44, 79.0248, 0.005897821, NaN, NaN, NaN, 0.0274675, "- N/A -   "
3.45, 79.2607, 0.0059117, NaN, NaN, NaN, 0.0286883, "- N/A -   "
3.46, 79.37865, 0.005928365, NaN, NaN, NaN, 0.0286883, "- N/A -   "
3.47, 79.61454, 0.005945026, NaN, NaN, NaN, 0.0286883, "- N/A -   "
3.48, 79.73249, 0.005958909, NaN, NaN, NaN, 0.0299091, "- N/A -   "
3.49, 80.0863, 0.005972793, NaN, NaN, NaN, 0.03112983, "- N/A -   "
3.5, 80.32223, 0.00598945, NaN, NaN, NaN, 0.0323506, "- N/A -   "
3.51, 80.32223, 0.006003337, NaN, NaN, NaN, 0.0335714, "- N/A -   "
3.52, 80.67606, 0.006017221, NaN, NaN, NaN, 0.0335714, "- N/A -   "
3.53, 80.912, 0.006031105, NaN, NaN, NaN, 0.03601294, "- N/A -   "
3.54, 81.0299, 0.006044989, NaN, NaN, NaN, 0.0372337, "- N/A -   "
3.55, 81.26581, 0.006058872, NaN, NaN, NaN, 0.0384545, "- N/A -   "
3.56, 81.5017, 0.006072756, NaN, NaN, NaN, 0.0396753, "- N/A -   "
3.57, 81.61965, 0.006089417, NaN, NaN, NaN, 0.0396753, "- N/A -   "
3.58, 81.97349, 0.006106077, NaN, NaN, NaN, 0.0396753, "- N/A -   "
3.59, 82.09144, 0.006119961, NaN, NaN, NaN, 0.04089605, "- N/A -   "
3.6, 82.20939, 0.006133845, NaN, NaN, NaN, 0.04211683, "- N/A -   "
3.61, 82.44528, 0.00614773, NaN, NaN, NaN, 0.0433376, "- N/A -   "
3.62, 82.56323, 0.006161612, NaN, NaN, NaN, 0.0445584, "- N/A -   "
3.63, 82.68118, 0.006175496, NaN, NaN, NaN, 0.04577916, "- N/A -   "
3.64, 83.03502, 0.006192156, NaN, NaN, NaN, 0.04577916, "- N/A -   "
3.65, 83.27091, 0.006208817, NaN, NaN, NaN, 0.04577916, "- N/A -   "
3.66, 83.50681, 0.00622548, NaN, NaN, NaN, 0.04699994, "- N/A -   "
3.67, 83.86065, 0.006242138, NaN, NaN, NaN, 0.04577916, "- N/A -   "
3.68, 84.09654, 0.006261575, NaN, NaN, NaN, 0.04577916, "- N/A -   "
3.69, 84.45039, 0.006278236, NaN, NaN, NaN, 0.0445584, "- N/A -   "
3.7, 84.56834, 0.0062949, NaN, NaN, NaN, 0.04577916, "- N/A -   "
3.71, 84.80424, 0.00630878, NaN, NaN, NaN, 0.04577916, "- N/A -   "
3.72, 85.15807, 0.00632544, NaN, NaN, NaN, 0.04577916, "- N/A -   "
3.73, 85.39397, 0.006344878, NaN, NaN, NaN, 0.04577916, "- N/A -   "
3.74, 85.51192, 0.00635876, NaN, NaN, NaN, 0.04577916, "- N/A -   "
3.75, 85.86576, 0.00637542, NaN, NaN, NaN, 0.04577916, "- N/A -   "
3.76, 86.1017, 0.00639486, NaN, NaN, NaN, 0.04577916, "- N/A -   "
3.77, 86.33755, 0.00641152, NaN, NaN, NaN, 0.0445584, "- N/A -   "
3.78, 86.57345, 0.006430957, NaN, NaN, NaN, 0.0445584, "- N/A -   "
3.79, 86.92729, 0.00644762, NaN, NaN, NaN, 0.0433376, "- N/A -   "
3.8, 87.16318, 0.00646428, NaN, NaN, NaN, 0.0433376, "- N/A -   "
3.81, 87.39908, 0.00648372, NaN, NaN, NaN, 0.04211683, "- N/A -   "
3.82, 87.75292, 0.006500376, NaN, NaN, NaN, 0.04211683, "- N/A -   "
3.83, 87.9888, 0.006519813, NaN, NaN, NaN, 0.04089605, "- N/A -   "
3.84, 88.34265, 0.00654203, NaN, NaN, NaN, 0.0396753, "- N/A -   "
3.85, 88.4606, 0.006558688, NaN, NaN, NaN, 0.0384545, "- N/A -   "
3.86, 88.8144, 0.006578125, NaN, NaN, NaN, 0.0372337, "- N/A -   "
3.87, 89.16828, 0.006597562, NaN, NaN, NaN, 0.03601294, "- N/A -   "
3.88, 89.52213, 0.006619776, NaN, NaN, NaN, 0.0347922, "- N/A -   "
3.89, 89.758, 0.00663921, NaN, NaN, NaN, 0.0323506, "- N/A -   "
3.9, 90.22981, 0.006658651, NaN, NaN, NaN, 0.03112983, "- N/A -   "
3.91, 90.34776, 0.006678088, NaN, NaN, NaN, 0.0299091, "- N/A -   "
3.92, 90.70161, 0.00669475, NaN, NaN, NaN, 0.0299091, "- N/A -   "
3.93, 90.9375, 0.006714186, NaN, NaN, NaN, 0.0299091, "- N/A -   "
3.94, 91.1734, 0.00673085, NaN, NaN, NaN, 0.0286883, "- N/A -   "
3.95, 91.40929, 0.006747507, NaN, NaN, NaN, 0.0286883, "- N/A -   "
3.96, 91.76313, 0.006766944, NaN, NaN, NaN, 0.0286883, "- N/A -   "
3.97, 91.76313, 0.00678083, NaN, NaN, NaN, 0.0286883, "- N/A -   "
3.98, 92.117, 0.00679749, NaN, NaN, NaN, 0.0299091, "- N/A -   "
3.99, 92.23492, 0.00681137, NaN, NaN, NaN, 0.0299091, "- N/A -   "
4, 92.58876, 0.00682803, NaN, NaN, NaN, 0.0299091, "- N/A -   "
4.01, 92.82466, 0.00684469, NaN, NaN, NaN, 0.03112983, "- N/A -   "
4.02, 93.0606, 0.00685858, NaN, NaN, NaN, 0.03112983, "- N/A -   "
4.03, 93.2965, 0.006878014, NaN, NaN, NaN, 0.03112983, "- N/A -   "
4.04, 93.53234, 0.0068919, NaN, NaN, NaN, 0.03112983, "- N/A -   "
4.05, 93.65029, 0.00690856, NaN, NaN, NaN, 0.03112983, "- N/A -   "
4.06, 94.0041, 0.00692244, NaN, NaN, NaN, 0.0323506, "- N/A -   "
4.07, 94.24, 0.0069391, NaN, NaN, NaN, 0.0335714, "- N/A -   "
4.08, 94.35797, 0.00695299, NaN, NaN, NaN, 0.0335714, "- N/A -   "
4.09, 94.59387, 0.00696687, NaN, NaN, NaN, 0.0347922, "- N/A -   "
4.1, 94.8298, 0.00698631, NaN, NaN, NaN, 0.0347922, "- N/A -   "
4.11, 95.06567, 0.00700019, NaN, NaN, NaN, 0.0347922, "- N/A -   "
4.12, 95.41951, 0.00701685, NaN, NaN, NaN, 0.0347922, "- N/A -   "
4.13, 95.7733, 0.00703351, NaN, NaN, NaN, 0.0347922, "- N/A -   "
4.14, 95.8913, 0.007050173, NaN, NaN, NaN, 0.0347922, "- N/A -   "
4.15, 96.24514, 0.00706683, NaN, NaN, NaN, 0.0347922, "- N/A -   "
4.16, 96.481, 0.00708349, NaN, NaN, NaN, 0.0347922, "- N/A -   "
4.17, 96.71693, 0.00710015, NaN, NaN, NaN, 0.0347922, "- N/A -   "
4.18, 96.95282, 0.00711681, NaN, NaN, NaN, 0.03601294, "- N/A -   "
4.19, 97.18872, 0.0071307, NaN, NaN, NaN, 0.03601294, "- N/A -   "
4.2, 97.4246, 0.00714736, NaN, NaN, NaN, 0.03601294, "- N/A -   "
4.21, 97.6605, 0.00716402, NaN, NaN, NaN, 0.03601294, "- N/A -   "
4.22, 97.8964, 0.007183457, NaN, NaN, NaN, 0.0347922, "- N/A -   "
4.23, 98.13229, 0.00720012, NaN, NaN, NaN, 0.0347922, "- N/A -   "
4.24, 98.4861, 0.007214, NaN, NaN, NaN, 0.03601294, "- N/A -   "
4.25, 98.72203, 0.00723344, NaN, NaN, NaN, 0.03601294, "- N/A -   "
4.26, 98.9579, 0.007250099, NaN, NaN, NaN, 0.03601294, "- N/A -   "
4.27, 99.1938, 0.00726398, NaN, NaN, NaN, 0.03601294, "- N/A -   "
4.28, 99.42972, 0.00728064, NaN, NaN, NaN, 0.03601294, "- N/A -   "
4.29, 99.66561, 0.007294527, NaN, NaN, NaN, 0.0372337, "- N/A -   "
4.3, 99.9015, 0.007308411, NaN, NaN, NaN, 0.0384545, "- N/A -   "
4.31, 100.019, 0.00732229, NaN, NaN, NaN, 0.0396753, "- N/A -   "
4.32, 100.255, 0.007336179, NaN, NaN, NaN, 0.04089605, "- N/A -   "
4.33, 100.491, 0.007350062, NaN, NaN, NaN, 0.04211683, "- N/A -   "
4.34, 100.727, 0.00736395, NaN, NaN, NaN, 0.0433376, "- N/A -   "
4.35, 100.963, 0.00738061, NaN, NaN, NaN, 0.0433376, "- N/A -   "
4.36, 101.199, 0.007397267, NaN, NaN, NaN, 0.0433376, "- N/A -   "
4.37, 101.317, 0.00741393, NaN, NaN, NaN, 0.0445584, "- N/A -   "
4.38, 101.671, 0.007427811, NaN, NaN, NaN, 0.04577916, "- N/A -   "
4.39, 101.789, 0.007441695, NaN, NaN, NaN, 0.04577916, "- N/A -   "
4.4, 102.143, 0.00745836, NaN, NaN, NaN, 0.04699994, "- N/A -   "
4.41, 102.3784, 0.007472239, NaN, NaN, NaN, 0.04699994, "- N/A -   "
4.42, 102.6143, 0.00749168, NaN, NaN, NaN, 0.04699994, "- N/A -   "
4.43, 102.85, 0.007508337, NaN, NaN, NaN, 0.04699994, "- N/A -   "
4.44, 103.204, 0.007525, NaN, NaN, NaN, 0.04577916, "- N/A -   "
4.45, 103.558, 0.00754443, NaN, NaN, NaN, 0.04577916, "- N/A -   "
4.46, 103.912, 0.007563872, NaN, NaN, NaN, 0.0445584, "- N/A -   "
4.47, 104.266, 0.00758053, NaN, NaN, NaN, 0.0433376, "- N/A -   "
4.48, 104.619, 0.00760275, NaN, NaN, NaN, 0.04089605, "- N/A -   "
4.49, 104.855, 0.007624961, NaN, NaN, NaN, 0.0396753, "- N/A -   "
4.5, 105.209, 0.0076444, NaN, NaN, NaN, 0.0372337, "- N/A -   "
4.51, 105.563, 0.007663835, NaN, NaN, NaN, 0.03601294, "- N/A -   "
4.52, 105.917, 0.007683272, NaN, NaN, NaN, 0.0347922, "- N/A -   "
4.53, 106.271, 0.00770271, NaN, NaN, NaN, 0.0335714, "- N/A -   "
4.54, 106.507, 0.00771937, NaN, NaN, NaN, 0.0335714, "- N/A -   "
4.55, 106.742, 0.007736031, NaN, NaN, NaN, 0.0335714, "- N/A -   "
4.56, 107.0963, 0.007752691, NaN, NaN, NaN, 0.0335714, "- N/A -   "
4.57, 107.3322, 0.007772128, NaN, NaN, NaN, 0.0335714, "- N/A -   "
4.58, 107.45, 0.007788789, NaN, NaN, NaN, 0.0335714, "- N/A -   "
4.59, 107.804, 0.00780267, NaN, NaN, NaN, 0.0335714, "- N/A -   "
4.6, 108.158, 0.00782211, NaN, NaN, NaN, 0.0335714, "- N/A -   "
4.61, 108.276, 0.00783877, NaN, NaN, NaN, 0.0323506, "- N/A -   "
4.62, 108.63, 0.007855431, NaN, NaN, NaN, 0.0335714, "- N/A -   "
4.63, 108.866, 0.007872092, NaN, NaN, NaN, 0.0335714, "- N/A -   "
4.64, 109.101, 0.007888752, NaN, NaN, NaN, 0.0335714, "- N/A -   "
4.65, 109.455, 0.007905412, NaN, NaN, NaN, 0.0335714, "- N/A -   "
4.66, 109.5732, 0.007919297, NaN, NaN, NaN, 0.0335714, "- N/A -   "
4.67, 109.927, 0.007935957, NaN, NaN, NaN, 0.0335714, "- N/A -   "
4.68, 110.163, 0.00795262, NaN, NaN, NaN, 0.0347922, "- N/A -   "
4.69, 110.399, 0.007966501, NaN, NaN, NaN, 0.0347922, "- N/A -   "
4.7, 110.635, 0.007983161, NaN, NaN, NaN, 0.03601294, "- N/A -   "
4.71, 110.871, 0.007997045, NaN, NaN, NaN, 0.03601294, "- N/A -   "
4.72, 111.224, 0.008016482, NaN, NaN, NaN, 0.03601294, "- N/A -   "
4.73, 111.46, 0.008033143, NaN, NaN, NaN, 0.0347922, "- N/A -   "
4.74, 111.696, 0.008049804, NaN, NaN, NaN, 0.0347922, "- N/A -   "
4.75, 112.0501, 0.008069241, NaN, NaN, NaN, 0.0347922, "- N/A -   "
4.76, 112.404, 0.008085901, NaN, NaN, NaN, 0.0335714, "- N/A -   "
4.77, 112.758, 0.008105339, NaN, NaN, NaN, 0.0335714, "- N/A -   "
4.78, 112.994, 0.008121999, NaN, NaN, NaN, 0.0323506, "- N/A -   "
4.79, 113.348, 0.008138659, NaN, NaN, NaN, 0.0323506, "- N/A -   "
4.8, 113.583, 0.00815532, NaN, NaN, NaN, 0.0323506, "- N/A -   "
4.81, 113.819, 0.00817476, NaN, NaN, NaN, 0.0323506, "- N/A -   "
4.82, 114.173, 0.008191418, NaN, NaN, NaN, 0.0323506, "- N/A -   "
4.83, 114.2911, 0.008208078, NaN, NaN, NaN, 0.0323506, "- N/A -   "
4.84, 114.645, 0.00822196, NaN, NaN, NaN, 0.0323506, "- N/A -   "
4.85, 114.881, 0.008235846, NaN, NaN, NaN, 0.0335714, "- N/A -   "
4.86, 115.117, 0.008252506, NaN, NaN, NaN, 0.0335714, "- N/A -   "
4.87, 115.235, 0.00826917, NaN, NaN, NaN, 0.0335714, "- N/A -   "
4.88, 115.706, 0.008283051, NaN, NaN, NaN, 0.0347922, "- N/A -   "
4.89, 115.824, 0.008296934, NaN, NaN, NaN, 0.03601294, "- N/A -   "
4.9, 116.06, 0.008313595, NaN, NaN, NaN, 0.03601294, "- N/A -   "
4.91, 116.414, 0.008327479, NaN, NaN, NaN, 0.0372337, "- N/A -   "
4.92, 116.5321, 0.008344139, NaN, NaN, NaN, 0.0372337, "- N/A -   "
4.93, 116.768, 0.008358023, NaN, NaN, NaN, 0.0384545, "- N/A -   "
4.94, 117.122, 0.008374684, NaN, NaN, NaN, 0.0396753, "- N/A -   "
4.95, 117.358, 0.008388568, NaN, NaN, NaN, 0.0396753, "- N/A -   "
4.96, 117.476, 0.008402451, NaN, NaN, NaN, 0.04089605, "- N/A -   "
4.97, 117.83, 0.008419111, NaN, NaN, NaN, 0.04089605, "- N/A -   "
4.98, 118.065, 0.008435773, NaN, NaN, NaN, 0.04089605, "- N/A -   "
4.99, 118.419, 0.008452432, NaN, NaN, NaN, 0.04211683, "- N/A -   "
5, 118.655, 0.008466316, NaN, NaN, NaN, 0.04211683, "- N/A -   "
5.01, 119.009, 0.008480201, NaN, NaN, NaN, 0.0433376, "- N/A -   "
5.02, 119.127, 0.008499637, NaN, NaN, NaN, 0.0433376, "- N/A -   "
5.03, 119.481, 0.008516298, NaN, NaN, NaN, 0.04211683, "- N/A -   "
5.04, 119.717, 0.008535735, NaN, NaN, NaN, 0.04211683, "- N/A -   "
5.05, 120.071, 0.008552396, NaN, NaN, NaN, 0.04211683, "- N/A -   "
5.06, 120.424, 0.008569056, NaN, NaN, NaN, 0.04089605, "- N/A -   "
5.07, 120.66, 0.008585717, NaN, NaN, NaN, 0.04089605, "- N/A -   "
5.08, 120.896, 0.008602377, NaN, NaN, NaN, 0.04089605, "- N/A -   "
5.09, 121.25, 0.008619037, NaN, NaN, NaN, 0.04211683, "- N/A -   "
5.1, 121.604, 0.008632922, NaN, NaN, NaN, 0.04211683, "- N/A -   "
5.11, 121.84, 0.008652358, NaN, NaN, NaN, 0.04211683, "- N/A -   "
5.12, 122.076, 0.00866902, NaN, NaN, NaN, 0.04211683, "- N/A -   "
5.13, 122.429, 0.008688456, NaN, NaN, NaN, 0.04089605, "- N/A -   "
5.14, 122.665, 0.008705117, NaN, NaN, NaN, 0.0396753, "- N/A -   "
5.15, 123.019, 0.008724554, NaN, NaN, NaN, 0.0384545, "- N/A -   "
5.16, 123.373, 0.008743991, NaN, NaN, NaN, 0.0384545, "- N/A -   "
5.17, 123.609, 0.008760652, NaN, NaN, NaN, 0.0372337, "- N/A -   "
5.18, 124.081, 0.008780089, NaN, NaN, NaN, 0.03601294, "- N/A -   "
5.19, 124.317, 0.008799527, NaN, NaN, NaN, 0.03601294, "- N/A -   "
5.2, 124.67, 0.008816187, NaN, NaN, NaN, 0.0347922, "- N/A -   "
5.21, 125.024, 0.008835625, NaN, NaN, NaN, 0.0335714, "- N/A -   "
5.22, 125.26, 0.008852284, NaN, NaN, NaN, 0.0335714, "- N/A -   "
5.23, 125.496, 0.008866169, NaN, NaN, NaN, 0.0347922, "- N/A -   "
5.24, 125.732, 0.008882829, NaN, NaN, NaN, 0.03601294, "- N/A -   "
5.25, 126.086, 0.008896713, NaN, NaN, NaN, 0.03601294, "- N/A -   "
5.26, 126.322, 0.008913374, NaN, NaN, NaN, 0.03601294, "- N/A -   "
5.27, 126.558, 0.008930034, NaN, NaN, NaN, 0.03601294, "- N/A -   "
5.28, 126.794, 0.008946694, NaN, NaN, NaN, 0.03601294, "- N/A -   "
5.29, 127.265, 0.008963355, NaN, NaN, NaN, 0.03601294, "- N/A -   "
5.3, 127.383, 0.008980015, NaN, NaN, NaN, 0.03601294, "- N/A -   "
5.31, 127.619, 0.008996676, NaN, NaN, NaN, 0.03601294, "- N/A -   "
5.32, 127.973, 0.009013337, NaN, NaN, NaN, 0.03601294, "- N/A -   "
5.33, 128.327, 0.009029997, NaN, NaN, NaN, 0.03601294, "- N/A -   "
5.34, 128.563, 0.009046658, NaN, NaN, NaN, 0.03601294, "- N/A -   "
5.35, 128.799, 0.009066095, NaN, NaN, NaN, 0.0347922, "- N/A -   "
5.36, 129.27, 0.009082755, NaN, NaN, NaN, 0.0347922, "- N/A -   "
5.37, 129.506, 0.00909942, NaN, NaN, NaN, 0.0347922, "- N/A -   "
5.38, 129.86, 0.009116076, NaN, NaN, NaN, 0.0347922, "- N/A -   "
5.39, 130.214, 0.009135514, NaN, NaN, NaN, 0.0335714, "- N/A -   "
5.4, 130.568, 0.009154951, NaN, NaN, NaN, 0.0335714, "- N/A -   "
5.41, 130.6858, 0.009171611, NaN, NaN, NaN, 0.0323506, "- N/A -   "
5.42, 131.1576, 0.009188272, NaN, NaN, NaN, 0.0323506, "- N/A -   "
5.43, 131.276, 0.00920493, NaN, NaN, NaN, 0.0323506, "- N/A -   "
5.44, 131.629, 0.009221593, NaN, NaN, NaN, 0.0323506, "- N/A -   "
5.45, 131.865, 0.00924103, NaN, NaN, NaN, 0.03112983, "- N/A -   "
5.46, 132.337, 0.009257691, NaN, NaN, NaN, 0.03112983, "- N/A -   "
5.47, 132.573, 0.009274351, NaN, NaN, NaN, 0.03112983, "- N/A -   "
5.48, 132.9268, 0.009293788, NaN, NaN, NaN, 0.0299091, "- N/A -   "
5.49, 133.281, 0.009310449, NaN, NaN, NaN, 0.0299091, "- N/A -   "
5.5, 133.517, 0.009327109, NaN, NaN, NaN, 0.0299091, "- N/A -   "
5.51, 133.87, 0.00934377, NaN, NaN, NaN, 0.0299091, "- N/A -   "
5.52, 134.224, 0.00936043, NaN, NaN, NaN, 0.0299091, "- N/A -   "
5.53, 134.342, 0.009377091, NaN, NaN, NaN, 0.03112983, "- N/A -   "
5.54, 134.696, 0.009390975, NaN, NaN, NaN, 0.03112983, "- N/A -   "
5.55, 134.932, 0.009404859, NaN, NaN, NaN, 0.0323506, "- N/A -   "
5.56, 135.05, 0.009421519, NaN, NaN, NaN, 0.0335714, "- N/A -   "
5.57, 135.4037, 0.009435403, NaN, NaN, NaN, 0.0335714, "- N/A -   "
5.58, 135.64, 0.009452064, NaN, NaN, NaN, 0.0335714, "- N/A -   "
5.59, 135.993, 0.009468724, NaN, NaN, NaN, 0.0347922, "- N/A -   "
5.6, 136.229, 0.009485384, NaN, NaN, NaN, 0.0347922, "- N/A -   "
5.61, 136.465, 0.009502045, NaN, NaN, NaN, 0.0335714, "- N/A -   "
5.62, 136.937, 0.009518706, NaN, NaN, NaN, 0.0335714, "- N/A -   "
5.63, 137.173, 0.009535366, NaN, NaN, NaN, 0.0335714, "- N/A -   "
5.64, 137.527, 0.009552026, NaN, NaN, NaN, 0.0335714, "- N/A -   "
5.65, 137.763, 0.00956591, NaN, NaN, NaN, 0.0347922, "- N/A -   "
5.66, 137.999, 0.00957979, NaN, NaN, NaN, 0.03601294, "- N/A -   "
5.67, 138.234, 0.009596454, NaN, NaN, NaN, 0.03601294, "- N/A -   "
5.68, 138.47, 0.009610338, NaN, NaN, NaN, 0.0372337, "- N/A -   "
5.69, 138.706, 0.009626999, NaN, NaN, NaN, 0.0384545, "- N/A -   "
5.7, 139.06, 0.009640883, NaN, NaN, NaN, 0.0384545, "- N/A -   "
5.71, 139.296, 0.009657542, NaN, NaN, NaN, 0.0384545, "- N/A -   "
5.72, 139.65, 0.009671426, NaN, NaN, NaN, 0.0396753, "- N/A -   "
5.73, 139.768, 0.009688087, NaN, NaN, NaN, 0.0396753, "- N/A -   "
5.74, 140.004, 0.009701971, NaN, NaN, NaN, 0.04089605, "- N/A -   "
5.75, 140.24, 0.009715854, NaN, NaN, NaN, 0.04211683, "- N/A -   "
5.76, 140.475, 0.009729738, NaN, NaN, NaN, 0.0433376, "- N/A -   "
5.77, 140.711, 0.00974362, NaN, NaN, NaN, 0.0445584, "- N/A -   "
5.78, 141.065, 0.009757506, NaN, NaN, NaN, 0.04577916, "- N/A -   "
5.79, 141.301, 0.009774166, NaN, NaN, NaN, 0.04577916, "- N/A -   "
5.8, 141.537, 0.009790827, NaN, NaN, NaN, 0.04699994, "- N/A -   "
5.81, 141.891, 0.009804711, NaN, NaN, NaN, 0.04699994, "- N/A -   "
5.82, 142.245, 0.009821371, NaN, NaN, NaN, 0.04699994, "- N/A -   "
5.83, 142.481, 0.009838033, NaN, NaN, NaN, 0.04699994, "- N/A -   "
5.84, 142.8344, 0.009857468, NaN, NaN, NaN, 0.04699994, "- N/A -   "
5.85, 143.188, 0.00987413, NaN, NaN, NaN, 0.04577916, "- N/A -   "
5.86, 143.542, 0.009893566, NaN, NaN, NaN, 0.04577916, "- N/A -   "
5.87, 144.014, 0.009910227, NaN, NaN, NaN, 0.0445584, "- N/A -   "
5.88, 144.368, 0.009932441, NaN, NaN, NaN, 0.0433376, "- N/A -   "
5.89, 144.722, 0.009951878, NaN, NaN, NaN, 0.04211683, "- N/A -   "
5.9, 145.0754, 0.009971316, NaN, NaN, NaN, 0.04089605, "- N/A -   "
5.91, 145.311, 0.009987976, NaN, NaN, NaN, 0.0396753, "- N/A -   "
5.92, 145.783, 0.0100074, NaN, NaN, NaN, 0.0384545, "- N/A -   "
5.93, 146.019, 0.0100269, NaN, NaN, NaN, 0.0384545, "- N/A -   "
5.94, 146.255, 0.0100435, NaN, NaN, NaN, 0.0372337, "- N/A -   "
5.95, 146.727, 0.0100629, NaN, NaN, NaN, 0.03601294, "- N/A -   "
[...]
18.55, 619.8345, 0.0310635, NaN, NaN, NaN, 0.03601294, "- N/A -   "
18.58, 620.899, 0.031108, NaN, NaN, NaN, 0.0396753, "- N/A -   "
18.61, 622.082, 0.0311552, NaN, NaN, NaN, 0.0396753, "- N/A -   "
18.64, 623.2646, 0.0312024, NaN, NaN, NaN, 0.04089605, "- N/A -   "
18.67, 624.684, 0.03125512, NaN, NaN, NaN, 0.0396753, "- N/A -   "
18.7, 626.103, 0.0313107, NaN, NaN, NaN, 0.0372337, "- N/A -   "
18.73, 627.2862, 0.0313606, NaN, NaN, NaN, 0.0372337, "- N/A -   "
18.76, 628.469, 0.03140784, NaN, NaN, NaN, 0.0396753, "- N/A -   "
18.79, 629.6518, 0.031455, NaN, NaN, NaN, 0.0396753, "- N/A -   "
18.82, 630.9529, 0.0315078, NaN, NaN, NaN, 0.0384545, "- N/A -   "
18.85, 632.254, 0.0315606, NaN, NaN, NaN, 0.0372337, "- N/A -   "
18.88, 633.555, 0.0316105, NaN, NaN, NaN, 0.0372337, "- N/A -   "
18.91, 634.738, 0.0316605, NaN, NaN, NaN, 0.0372337, "- N/A -   "
18.94, 636.039, 0.0317133, NaN, NaN, NaN, 0.0372337, "- N/A -   "
18.97, 637.34, 0.0317633, NaN, NaN, NaN, 0.0372337, "- N/A -   "
19, 638.6411, 0.031816, NaN, NaN, NaN, 0.03601294, "- N/A -   "
19.03, 640.179, 0.03187156, NaN, NaN, NaN, 0.0323506, "- N/A -   "
19.06, 641.3616, 0.03192154, NaN, NaN, NaN, 0.0323506, "- N/A -   "
19.09, 642.6627, 0.0319743, NaN, NaN, NaN, 0.03112983, "- N/A -   "
19.12, 643.964, 0.03202428, NaN, NaN, NaN, 0.0323506, "- N/A -   "
19.15, 645.2649, 0.03207704, NaN, NaN, NaN, 0.03112983, "- N/A -   "
19.18, 646.4477, 0.0321242, NaN, NaN, NaN, 0.0323506, "- N/A -   "
19.21, 647.63, 0.0321714, NaN, NaN, NaN, 0.0323506, "- N/A -   "
19.24, 648.9316, 0.03222143, NaN, NaN, NaN, 0.0323506, "- N/A -   "
19.27, 649.9961, 0.03227141, NaN, NaN, NaN, 0.0335714, "- N/A -   "
19.3, 651.061, 0.0323131, NaN, NaN, NaN, 0.03601294, "- N/A -   "
19.33, 652.2434, 0.03235749, NaN, NaN, NaN, 0.0384545, "- N/A -   "
19.36, 653.4263, 0.0324047, NaN, NaN, NaN, 0.0396753, "- N/A -   "
19.39, 654.6091, 0.0324519, NaN, NaN, NaN, 0.04089605, "- N/A -   "
19.42, 655.6735, 0.03249633, NaN, NaN, NaN, 0.0433376, "- N/A -   "
19.45, 656.9747, 0.0325435, NaN, NaN, NaN, 0.0445584, "- N/A -   "
19.48, 658.2757, 0.0325935, NaN, NaN, NaN, 0.0445584, "- N/A -   "
19.51, 659.6951, 0.0326463, NaN, NaN, NaN, 0.0445584, "- N/A -   "
19.54, 660.9962, 0.0327018, NaN, NaN, NaN, 0.04211683, "- N/A -   "
19.57, 662.5339, 0.03276012, NaN, NaN, NaN, 0.0372337, "- N/A -   "
19.6, 664.072, 0.03281843, NaN, NaN, NaN, 0.0335714, "- N/A -   "
19.63, 665.373, 0.0328684, NaN, NaN, NaN, 0.0335714, "- N/A -   "
19.66, 666.5554, 0.0329184, NaN, NaN, NaN, 0.0347922, "- N/A -   "
19.69, 667.62, 0.03296282, NaN, NaN, NaN, 0.03601294, "- N/A -   "
19.72, 668.8028, 0.03301003, NaN, NaN, NaN, 0.0372337, "- N/A -   "
19.75, 670.2221, 0.0330628, NaN, NaN, NaN, 0.03601294, "- N/A -   "
19.78, 671.523, 0.0331183, NaN, NaN, NaN, 0.0347922, "- N/A -   "
19.81, 673.061, 0.03317663, NaN, NaN, NaN, 0.03112983, "- N/A -   "
19.84, 674.4802, 0.0332266, NaN, NaN, NaN, 0.0299091, "- N/A -   "
19.87, 675.545, 0.03327382, NaN, NaN, NaN, 0.03112983, "- N/A -   "
19.9, 676.7276, 0.0333238, NaN, NaN, NaN, 0.0323506, "- N/A -   "
19.93, 677.9104, 0.033371, NaN, NaN, NaN, 0.0323506, "- N/A -   "
19.96, 679.093, 0.0334154, NaN, NaN, NaN, 0.0347922, "- N/A -   "
19.99, 680.0394, 0.03345708, NaN, NaN, NaN, 0.0384545, "- N/A -   "
20.02, 681.104, 0.03350151, NaN, NaN, NaN, 0.04211683, "- N/A -   "
20.05, 682.2868, 0.03354594, NaN, NaN, NaN, 0.0433376, "- N/A -   "
20.08, 683.47, 0.0335931, NaN, NaN, NaN, 0.0445584, "- N/A -   "
20.11, 684.7707, 0.0336431, NaN, NaN, NaN, 0.04577916, "- N/A -   "
20.14, 686.19, 0.0336959, NaN, NaN, NaN, 0.0445584, "- N/A -   "
20.17, 687.609, 0.03375142, NaN, NaN, NaN, 0.04089605, "- N/A -   "
20.2, 689.029, 0.033807, NaN, NaN, NaN, 0.0396753, "- N/A -   "
20.23, 690.4482, 0.0338597, NaN, NaN, NaN, 0.0384545, "- N/A -   "
20.26, 691.7492, 0.0339152, NaN, NaN, NaN, 0.03601294, "- N/A -   "
20.29, 693.1686, 0.033968, NaN, NaN, NaN, 0.0347922, "- N/A -   "
20.32, 694.47, 0.0340208, NaN, NaN, NaN, 0.0335714, "- N/A -   "
20.35, 695.7708, 0.0340735, NaN, NaN, NaN, 0.0323506, "- N/A -   "
20.38, 697.1901, 0.0341235, NaN, NaN, NaN, 0.03112983, "- N/A -   "
20.41, 698.4913, 0.03417904, NaN, NaN, NaN, 0.0299091, "- N/A -   "
20.44, 699.7923, 0.03422902, NaN, NaN, NaN, 0.0286883, "- N/A -   "
20.47, 701.093, 0.03428178, NaN, NaN, NaN, 0.0274675, "- N/A -   "
20.5, 702.3945, 0.03433176, NaN, NaN, NaN, 0.0274675, "- N/A -   "
20.53, 703.459, 0.03437619, NaN, NaN, NaN, 0.0299091, "- N/A -   "
20.56, 704.524, 0.0344206, NaN, NaN, NaN, 0.0335714, "- N/A -   "
20.59, 705.7064, 0.034465, NaN, NaN, NaN, 0.0347922, "- N/A -   "
20.62, 706.7709, 0.0345095, NaN, NaN, NaN, 0.0372337, "- N/A -   "
20.65, 707.835, 0.0345539, NaN, NaN, NaN, 0.0396753, "- N/A -   "
20.68, 708.9, 0.03459833, NaN, NaN, NaN, 0.04211683, "- N/A -   "
20.71, 710.083, 0.0346428, NaN, NaN, NaN, 0.0445584, "- N/A -   "
20.74, 711.502, 0.03469274, NaN, NaN, NaN, 0.0445584, "- N/A -   "
20.77, 712.685, 0.03474272, NaN, NaN, NaN, 0.0445584, "- N/A -   "
20.8, 713.986, 0.0347927, NaN, NaN, NaN, 0.0445584, "- N/A -   "
20.83, 715.4054, 0.03484546, NaN, NaN, NaN, 0.0433376, "- N/A -   "
20.86, 716.825, 0.0349038, NaN, NaN, NaN, 0.04089605, "- N/A -   "
20.89, 718.2441, 0.03495653, NaN, NaN, NaN, 0.0384545, "- N/A -   "
20.92, 719.6635, 0.0350121, NaN, NaN, NaN, 0.03601294, "- N/A -   "
20.95, 721.319, 0.0350732, NaN, NaN, NaN, 0.0323506, "- N/A -   "
20.98, 722.7388, 0.0351287, NaN, NaN, NaN, 0.0286883, "- N/A -   "
21.01, 723.922, 0.0351787, NaN, NaN, NaN, 0.0286883, "- N/A -   "
21.04, 725.2227, 0.0352259, NaN, NaN, NaN, 0.0299091, "- N/A -   "
21.07, 726.169, 0.03527308, NaN, NaN, NaN, 0.03112983, "- N/A -   "
21.1, 727.47, 0.0353203, NaN, NaN, NaN, 0.0323506, "- N/A -   "
21.13, 728.653, 0.03536749, NaN, NaN, NaN, 0.0335714, "- N/A -   "
21.16, 730.0722, 0.03541747, NaN, NaN, NaN, 0.0347922, "- N/A -   "
21.19, 731.255, 0.0354647, NaN, NaN, NaN, 0.0347922, "- N/A -   "
21.22, 732.3196, 0.03551188, NaN, NaN, NaN, 0.03601294, "- N/A -   "
21.25, 733.6206, 0.0355591, NaN, NaN, NaN, 0.0372337, "- N/A -   "
21.28, 734.922, 0.03560629, NaN, NaN, NaN, 0.0384545, "- N/A -   "
21.31, 736.2228, 0.0356563, NaN, NaN, NaN, 0.0384545, "- N/A -   "
21.34, 737.406, 0.03570625, NaN, NaN, NaN, 0.0384545, "- N/A -   "
21.37, 738.47, 0.03575068, NaN, NaN, NaN, 0.04089605, "- N/A -   "
21.4, 739.653, 0.0357951, NaN, NaN, NaN, 0.0433376, "- N/A -   "
21.43, 740.836, 0.03584509, NaN, NaN, NaN, 0.0445584, "- N/A -   "
21.46, 742.1369, 0.0358923, NaN, NaN, NaN, 0.0445584, "- N/A -   "
21.49, 743.4379, 0.0359451, NaN, NaN, NaN, 0.0445584, "- N/A -   "
21.52, 744.857, 0.0360034, NaN, NaN, NaN, 0.04089605, "- N/A -   "
21.55, 746.632, 0.0360645, NaN, NaN, NaN, 0.03601294, "- N/A -   "
21.58, 748.0509, 0.03611999, NaN, NaN, NaN, 0.0323506, "- N/A -   "
21.61, 749.4703, 0.0361755, NaN, NaN, NaN, 0.0299091, "- N/A -   "
21.64, 750.6531, 0.0362283, NaN, NaN, NaN, 0.0299091, "- N/A -   "
21.67, 752.1908, 0.03628104, NaN, NaN, NaN, 0.0286883, "- N/A -   "
21.7, 753.255, 0.0363282, NaN, NaN, NaN, 0.03112983, "- N/A -   "
21.73, 754.438, 0.0363727, NaN, NaN, NaN, 0.0335714, "- N/A -   "
21.76, 755.6209, 0.03641988, NaN, NaN, NaN, 0.0347922, "- N/A -   "
21.79, 756.6854, 0.0364643, NaN, NaN, NaN, 0.03601294, "- N/A -   "
21.82, 757.9865, 0.0365143, NaN, NaN, NaN, 0.03601294, "- N/A -   "
21.85, 759.5241, 0.0365698, NaN, NaN, NaN, 0.0335714, "- N/A -   "
21.88, 760.825, 0.0366198, NaN, NaN, NaN, 0.0335714, "- N/A -   "
21.91, 762.1263, 0.0366726, NaN, NaN, NaN, 0.0335714, "- N/A -   "
21.94, 763.0726, 0.0367142, NaN, NaN, NaN, 0.03601294, "- N/A -   "
21.97, 764.374, 0.03676142, NaN, NaN, NaN, 0.0372337, "- N/A -   "
22, 765.5565, 0.0368086, NaN, NaN, NaN, 0.0384545, "- N/A -   "
22.03, 766.621, 0.0368531, NaN, NaN, NaN, 0.04089605, "- N/A -   "
22.06, 767.5672, 0.0368947, NaN, NaN, NaN, 0.04577916, "- N/A -   "
22.09, 768.868, 0.0369447, NaN, NaN, NaN, 0.0445584, "- N/A -   "
22.12, 770.288, 0.03700022, NaN, NaN, NaN, 0.0433376, "- N/A -   "
22.15, 771.7071, 0.037053, NaN, NaN, NaN, 0.04211683, "- N/A -   "
22.18, 773.126, 0.03710296, NaN, NaN, NaN, 0.04089605, "- N/A -   "
22.21, 774.309, 0.0371529, NaN, NaN, NaN, 0.04089605, "- N/A -   "
22.24, 775.729, 0.0372085, NaN, NaN, NaN, 0.0396753, "- N/A -   "
22.27, 777.148, 0.0372585, NaN, NaN, NaN, 0.0384545, "- N/A -   "
22.3, 778.5674, 0.03731399, NaN, NaN, NaN, 0.03601294, "- N/A -   "
22.33, 779.7502, 0.037364, NaN, NaN, NaN, 0.03601294, "- N/A -   "
22.36, 781.0513, 0.037414, NaN, NaN, NaN, 0.03601294, "- N/A -   "
22.39, 782.471, 0.0374667, NaN, NaN, NaN, 0.0347922, "- N/A -   "
22.42, 783.6535, 0.03751947, NaN, NaN, NaN, 0.0335714, "- N/A -   "
22.45, 785.0728, 0.0375667, NaN, NaN, NaN, 0.0347922, "- N/A -   "
22.48, 786.2557, 0.03761666, NaN, NaN, NaN, 0.0347922, "- N/A -   "
22.51, 787.5567, 0.03766664, NaN, NaN, NaN, 0.0347922, "- N/A -   "
22.54, 788.6212, 0.03771662, NaN, NaN, NaN, 0.03601294, "- N/A -   "
22.57, 789.9223, 0.0377638, NaN, NaN, NaN, 0.03601294, "- N/A -   "
22.6, 791.342, 0.0378194, NaN, NaN, NaN, 0.0335714, "- N/A -   "
22.63, 792.525, 0.0378666, NaN, NaN, NaN, 0.0347922, "- N/A -   "
22.66, 793.826, 0.03791655, NaN, NaN, NaN, 0.0347922, "- N/A -   "
22.69, 795.0084, 0.03796653, NaN, NaN, NaN, 0.03601294, "- N/A -   "
22.72, 796.073, 0.03801096, NaN, NaN, NaN, 0.0372337, "- N/A -   "
22.75, 797.374, 0.03805816, NaN, NaN, NaN, 0.0384545, "- N/A -   "
22.78, 798.5568, 0.0381054, NaN, NaN, NaN, 0.04089605, "- N/A -   "
22.81, 799.7397, 0.03815257, NaN, NaN, NaN, 0.04089605, "- N/A -   "
22.84, 800.804, 0.03819978, NaN, NaN, NaN, 0.04211683, "- N/A -   "
22.87, 802.1053, 0.03824698, NaN, NaN, NaN, 0.0433376, "- N/A -   "
22.9, 803.4063, 0.03829974, NaN, NaN, NaN, 0.04211683, "- N/A -   "
22.93, 804.707, 0.0383525, NaN, NaN, NaN, 0.04211683, "- N/A -   "
22.96, 806.1268, 0.0384053, NaN, NaN, NaN, 0.0396753, "- N/A -   "
22.99, 807.7828, 0.0384663, NaN, NaN, NaN, 0.0347922, "- N/A -   "
23.02, 809.0838, 0.0385191, NaN, NaN, NaN, 0.0335714, "- N/A -   "
23.05, 810.503, 0.03857186, NaN, NaN, NaN, 0.0335714, "- N/A -   "
23.08, 811.804, 0.03862462, NaN, NaN, NaN, 0.0323506, "- N/A -   "
23.11, 813.224, 0.03867738, NaN, NaN, NaN, 0.03112983, "- N/A -   "
23.14, 814.288, 0.0387218, NaN, NaN, NaN, 0.0323506, "- N/A -   "
23.17, 815.471, 0.03876901, NaN, NaN, NaN, 0.0335714, "- N/A -   "
23.2, 816.772, 0.0388245, NaN, NaN, NaN, 0.0323506, "- N/A -   "
23.23, 818.31, 0.0388801, NaN, NaN, NaN, 0.0286883, "- N/A -   "
23.26, 819.6108, 0.03893284, NaN, NaN, NaN, 0.0274675, "- N/A -   "
23.29, 820.794, 0.03898, NaN, NaN, NaN, 0.0286883, "- N/A -   "
23.32, 821.976, 0.03902447, NaN, NaN, NaN, 0.03112983, "- N/A -   "
23.35, 823.041, 0.0390689, NaN, NaN, NaN, 0.0335714, "- N/A -   "
23.38, 824.224, 0.0391133, NaN, NaN, NaN, 0.03601294, "- N/A -   "
23.41, 824.9334, 0.0391522, NaN, NaN, NaN, 0.04089605, "- N/A -   "
23.44, 826.1163, 0.0391966, NaN, NaN, NaN, 0.0445584, "- N/A -   "
23.47, 827.2991, 0.0392411, NaN, NaN, NaN, 0.04577916, "- N/A -   "
23.5, 828.364, 0.03928549, NaN, NaN, NaN, 0.0482207, "- N/A -   "
23.53, 829.5464, 0.03933269, NaN, NaN, NaN, 0.0494415, "- N/A -   "
23.56, 831.0841, 0.0393882, NaN, NaN, NaN, 0.04699994, "- N/A -   "
23.59, 832.6217, 0.0394493, NaN, NaN, NaN, 0.0433376, "- N/A -   "
23.62, 834.159, 0.0395076, NaN, NaN, NaN, 0.0396753, "- N/A -   "
23.65, 835.697, 0.03956316, NaN, NaN, NaN, 0.03601294, "- N/A -   "
23.68, 836.9981, 0.0396159, NaN, NaN, NaN, 0.0347922, "- N/A -   "
23.71, 838.299, 0.0396687, NaN, NaN, NaN, 0.0335714, "- N/A -   "
23.74, 839.6003, 0.0397187, NaN, NaN, NaN, 0.0335714, "- N/A -   "
23.77, 841.02, 0.03977697, NaN, NaN, NaN, 0.03112983, "- N/A -   "
23.8, 842.439, 0.0398297, NaN, NaN, NaN, 0.0286883, "- N/A -   "
23.83, 843.5036, 0.0398769, NaN, NaN, NaN, 0.0299091, "- N/A -   "
23.86, 844.8046, 0.03992414, NaN, NaN, NaN, 0.03112983, "- N/A -   "
23.89, 845.9874, 0.03997412, NaN, NaN, NaN, 0.03112983, "- N/A -   "
23.92, 847.1703, 0.0400241, NaN, NaN, NaN, 0.03112983, "- N/A -   "
23.95, 848.4713, 0.0400741, NaN, NaN, NaN, 0.03112983, "- N/A -   "
23.98, 849.6542, 0.04012129, NaN, NaN, NaN, 0.0323506, "- N/A -   "
24.01, 850.7187, 0.0401657, NaN, NaN, NaN, 0.03601294, "- N/A -   "
24.04, 851.7832, 0.0402074, NaN, NaN, NaN, 0.0396753, "- N/A -   "
24.07, 852.611, 0.0402462, NaN, NaN, NaN, 0.0433376, "- N/A -   "
24.1, 853.794, 0.04029067, NaN, NaN, NaN, 0.04577916, "- N/A -   "
24.13, 855.0951, 0.0403434, NaN, NaN, NaN, 0.04577916, "- N/A -   "
24.16, 856.633, 0.040399, NaN, NaN, NaN, 0.0433376, "- N/A -   "
24.19, 857.816, 0.0404462, NaN, NaN, NaN, 0.0433376, "- N/A -   "
24.22, 859.117, 0.0404962, NaN, NaN, NaN, 0.0433376, "- N/A -   "
24.25, 860.4177, 0.04055169, NaN, NaN, NaN, 0.04211683, "- N/A -   "
24.28, 861.8371, 0.0406044, NaN, NaN, NaN, 0.0396753, "- N/A -   "
24.31, 863.2565, 0.04066, NaN, NaN, NaN, 0.0384545, "- N/A -   "
24.34, 864.676, 0.04071829, NaN, NaN, NaN, 0.0347922, "- N/A -   "
24.37, 866.213, 0.0407738, NaN, NaN, NaN, 0.03112983, "- N/A -   "
24.4, 867.751, 0.04082936, NaN, NaN, NaN, 0.0286883, "- N/A -   "
24.43, 868.9339, 0.0408821, NaN, NaN, NaN, 0.0274675, "- N/A -   "
24.46, 870.353, 0.0409349, NaN, NaN, NaN, 0.0262467, "- N/A -   "
24.49, 871.654, 0.0409849, NaN, NaN, NaN, 0.0262467, "- N/A -   "
24.52, 872.9555, 0.04103484, NaN, NaN, NaN, 0.0262467, "- N/A -   "
24.55, 873.902, 0.041082, NaN, NaN, NaN, 0.0274675, "- N/A -   "
24.58, 875.3211, 0.04112925, NaN, NaN, NaN, 0.0286883, "- N/A -   "
24.61, 876.3856, 0.0411765, NaN, NaN, NaN, 0.0299091, "- N/A -   "
24.64, 877.4502, 0.0412209, NaN, NaN, NaN, 0.0323506, "- N/A -   "
24.67, 878.5147, 0.04126531, NaN, NaN, NaN, 0.0347922, "- N/A -   "
24.7, 879.697, 0.0413153, NaN, NaN, NaN, 0.03601294, "- N/A -   "
24.73, 880.8803, 0.04135972, NaN, NaN, NaN, 0.0384545, "- N/A -   "
24.76, 881.9448, 0.04140137, NaN, NaN, NaN, 0.04089605, "- N/A -   "
24.79, 882.8911, 0.04144302, NaN, NaN, NaN, 0.0445584, "- N/A -   "
24.82, 884.192, 0.04148745, NaN, NaN, NaN, 0.04699994, "- N/A -   "
24.85, 885.2567, 0.0415347, NaN, NaN, NaN, 0.0482207, "- N/A -   "
24.88, 886.3212, 0.0415791, NaN, NaN, NaN, 0.05188305, "- N/A -   "
24.91, 887.504, 0.04162629, NaN, NaN, NaN, 0.05188305, "- N/A -   "
24.94, 889.16, 0.0416846, NaN, NaN, NaN, 0.0482207, "- N/A -   "
24.97, 890.9342, 0.0417485, NaN, NaN, NaN, 0.04211683, "- N/A -   "
25, 892.7084, 0.0418151, NaN, NaN, NaN, 0.0347922, "- N/A -   "
25.03, 894.246, 0.0418734, NaN, NaN, NaN, 0.03112983, "- N/A -   "
25.06, 895.6654, 0.04193173, NaN, NaN, NaN, 0.0274675, "- N/A -   "
25.09, 896.7299, 0.0419789, NaN, NaN, NaN, 0.0299091, "- N/A -   "
25.12, 897.9127, 0.0420234, NaN, NaN, NaN, 0.0323506, "- N/A -   "
25.15, 899.0956, 0.0420706, NaN, NaN, NaN, 0.0335714, "- N/A -   "
25.18, 900.2783, 0.04211777, NaN, NaN, NaN, 0.0335714, "- N/A -   "
25.21, 901.579, 0.0421678, NaN, NaN, NaN, 0.0335714, "- N/A -   "
25.24, 902.7622, 0.04221774, NaN, NaN, NaN, 0.0335714, "- N/A -   "
25.27, 904.063, 0.0422705, NaN, NaN, NaN, 0.0323506, "- N/A -   "
25.3, 905.483, 0.04232603, NaN, NaN, NaN, 0.03112983, "- N/A -   "
25.33, 906.7838, 0.04237601, NaN, NaN, NaN, 0.0299091, "- N/A -   "
25.36, 907.8483, 0.0424177, NaN, NaN, NaN, 0.0335714, "- N/A -   "
25.39, 908.9129, 0.0424593, NaN, NaN, NaN, 0.0372337, "- N/A -   "
25.42, 909.977, 0.04250652, NaN, NaN, NaN, 0.0384545, "- N/A -   "
25.45, 911.0419, 0.0425509, NaN, NaN, NaN, 0.04089605, "- N/A -   "
25.48, 912.343, 0.0426009, NaN, NaN, NaN, 0.04211683, "- N/A -   "
25.51, 913.7623, 0.04265091, NaN, NaN, NaN, 0.04089605, "- N/A -   "
25.54, 914.9452, 0.0427009, NaN, NaN, NaN, 0.04089605, "- N/A -   "
25.57, 916.3645, 0.04275365, NaN, NaN, NaN, 0.0396753, "- N/A -   "
25.6, 917.666, 0.04280641, NaN, NaN, NaN, 0.0384545, "- N/A -   "
25.63, 919.085, 0.0428592, NaN, NaN, NaN, 0.0372337, "- N/A -   "
25.66, 920.3861, 0.0429119, NaN, NaN, NaN, 0.03601294, "- N/A -   "
25.69, 921.6872, 0.0429619, NaN, NaN, NaN, 0.03601294, "- N/A -   "
25.72, 922.87, 0.0430147, NaN, NaN, NaN, 0.0347922, "- N/A -   "
25.75, 924.1711, 0.0430646, NaN, NaN, NaN, 0.0347922, "- N/A -   "
25.78, 925.472, 0.0431174, NaN, NaN, NaN, 0.0335714, "- N/A -   "
25.81, 926.8916, 0.04317016, NaN, NaN, NaN, 0.0335714, "- N/A -   "
25.84, 928.3109, 0.04322292, NaN, NaN, NaN, 0.03112983, "- N/A -   "
25.87, 929.612, 0.0432757, NaN, NaN, NaN, 0.0299091, "- N/A -   "
25.9, 930.7948, 0.04332566, NaN, NaN, NaN, 0.0299091, "- N/A -   "
25.93, 932.096, 0.0433756, NaN, NaN, NaN, 0.03112983, "- N/A -   "
25.96, 933.397, 0.0434256, NaN, NaN, NaN, 0.0299091, "- N/A -   "
25.99, 934.4615, 0.0434728, NaN, NaN, NaN, 0.03112983, "- N/A -   "
26.02, 935.763, 0.04352, NaN, NaN, NaN, 0.0323506, "- N/A -   "
26.05, 937.064, 0.0435728, NaN, NaN, NaN, 0.0323506, "- N/A -   "
26.08, 938.2465, 0.04362, NaN, NaN, NaN, 0.0323506, "- N/A -   "
26.11, 939.4293, 0.0436644, NaN, NaN, NaN, 0.0347922, "- N/A -   "
26.14, 940.494, 0.0437089, NaN, NaN, NaN, 0.0372337, "- N/A -   "
26.17, 941.558, 0.0437533, NaN, NaN, NaN, 0.04089605, "- N/A -   "
26.2, 942.7412, 0.0438005, NaN, NaN, NaN, 0.04211683, "- N/A -   "
26.23, 943.8057, 0.04384769, NaN, NaN, NaN, 0.0445584, "- N/A -   "
26.26, 945.1068, 0.0438949, NaN, NaN, NaN, 0.04577916, "- N/A -   "
26.29, 946.4079, 0.0439421, NaN, NaN, NaN, 0.04699994, "- N/A -   "
26.32, 947.4724, 0.0439893, NaN, NaN, NaN, 0.04699994, "- N/A -   "
26.35, 948.8918, 0.0440421, NaN, NaN, NaN, 0.04577916, "- N/A -   "
26.38, 950.429, 0.0440976, NaN, NaN, NaN, 0.0433376, "- N/A -   "
26.41, 952.0853, 0.04415869, NaN, NaN, NaN, 0.0384545, "- N/A -   "
26.44, 953.505, 0.04421422, NaN, NaN, NaN, 0.03601294, "- N/A -   "
26.47, 954.8058, 0.0442698, NaN, NaN, NaN, 0.0335714, "- N/A -   "
26.5, 956.107, 0.04431974, NaN, NaN, NaN, 0.0335714, "- N/A -   "
26.53, 957.526, 0.0443725, NaN, NaN, NaN, 0.0323506, "- N/A -   "
26.56, 958.5908, 0.0444225, NaN, NaN, NaN, 0.0335714, "- N/A -   "
26.59, 959.8919, 0.04446968, NaN, NaN, NaN, 0.0335714, "- N/A -   "
26.62, 961.193, 0.04452244, NaN, NaN, NaN, 0.0323506, "- N/A -   "
26.65, 962.731, 0.044578, NaN, NaN, NaN, 0.03112983, "- N/A -   "
26.68, 964.032, 0.0446307, NaN, NaN, NaN, 0.0299091, "- N/A -   "
26.71, 965.215, 0.0446779, NaN, NaN, NaN, 0.0299091, "- N/A -   "
26.74, 966.3974, 0.0447251, NaN, NaN, NaN, 0.03112983, "- N/A -   "
26.77, 967.58, 0.04476957, NaN, NaN, NaN, 0.0335714, "- N/A -   "
26.8, 968.4081, 0.0448112, NaN, NaN, NaN, 0.0372337, "- N/A -   "
26.83, 969.3544, 0.0448501, NaN, NaN, NaN, 0.04211683, "- N/A -   "
26.86, 970.4189, 0.0448945, NaN, NaN, NaN, 0.0445584, "- N/A -   "
26.89, 971.602, 0.04494173, NaN, NaN, NaN, 0.04577916, "- N/A -   "
26.92, 972.9028, 0.0449889, NaN, NaN, NaN, 0.04699994, "- N/A -   "
26.95, 974.2039, 0.0450417, NaN, NaN, NaN, 0.04577916, "- N/A -   "
26.98, 975.6232, 0.04509723, NaN, NaN, NaN, 0.0445584, "- N/A -   "
27.01, 977.1609, 0.0451528, NaN, NaN, NaN, 0.04089605, "- N/A -   "
27.04, 978.58, 0.0452083, NaN, NaN, NaN, 0.0396753, "- N/A -   "
27.07, 980, 0.04526106, NaN, NaN, NaN, 0.0372337, "- N/A -   "
27.1, 981.419, 0.0453166, NaN, NaN, NaN, 0.0347922, "- N/A -   "
27.13, 982.8384, 0.04536935, NaN, NaN, NaN, 0.0335714, "- N/A -   "
27.16, 984.0212, 0.04541933, NaN, NaN, NaN, 0.0335714, "- N/A -   "
27.19, 985.441, 0.04547487, NaN, NaN, NaN, 0.0323506, "- N/A -   "
27.22, 986.86, 0.0455304, NaN, NaN, NaN, 0.0286883, "- N/A -   "
27.25, 988.2793, 0.04558316, NaN, NaN, NaN, 0.0274675, "- N/A -   "
27.28, 989.462, 0.0456331, NaN, NaN, NaN, 0.0274675, "- N/A -   "
27.31, 990.8815, 0.0456803, NaN, NaN, NaN, 0.0286883, "- N/A -   "
27.34, 992.064, 0.04572755, NaN, NaN, NaN, 0.0299091, "- N/A -   "
27.37, 992.8923, 0.04577198, NaN, NaN, NaN, 0.0323506, "- N/A -   "
27.4, 994.0751, 0.0458164, NaN, NaN, NaN, 0.0347922, "- N/A -   "
27.43, 995.2579, 0.0458636, NaN, NaN, NaN, 0.03601294, "- N/A -   "
27.452, 996.0858, 0.0458969, NaN, NaN, NaN, 0.0372337, "- N/A -   "