File: 2_Tensile_Data/Hamel_ForceTest_Bolt6_Test8.csv
Time, Load (lb), Position (in), AxialStrain (in), TransverseStrain (in), Auxiliary (), Control Out (V), Stress (psi)
0.0, 13.6819, 0.0, NaN, NaN, NaN, -0.007935055, "- N/A -   "
0.01, 13.6819, -2.776752E-6, NaN, NaN, NaN, 6.103888E-4, "- N/A -   "
0.02, 13.6819, 0.0, NaN, NaN, NaN, 0.006714277, "- N/A -   "
0.03, 13.6819, 0.0, NaN, NaN, NaN, 0.0238052, "- N/A -   "
0.04, 13.7999, 5.553504E-6, NaN, NaN, NaN, 0.04089605, "- N/A -   "
0.05, 13.9178, 1.66605e-05, NaN, NaN, NaN, 0.0555454, "- N/A -   "
0.06, 14.1537, 3.054427E-5, NaN, NaN, NaN, 0.0689739, "- N/A -   "
0.07, 14.7434, 5.27583e-05, NaN, NaN, NaN, 0.0799609, "- N/A -   "
0.08, 15.0973, 7.774905E-5, NaN, NaN, NaN, 0.08850638, "- N/A -   "
0.09, 15.687, 0.000105517, NaN, NaN, NaN, 0.095831, "- N/A -   "
0.1, 16.3947, 0.000136061, NaN, NaN, NaN, 0.095831, "- N/A -   "
0.11, 16.86649, 0.000163828, NaN, NaN, NaN, 0.0897272, "- N/A -   "
0.12, 17.4562, 0.000191596, NaN, NaN, NaN, 0.084844, "- N/A -   "
0.13, 17.928, 2.193634E-4, NaN, NaN, NaN, 0.08118171, "- N/A -   "
0.14, 18.3998, 2.415774E-4, NaN, NaN, NaN, 0.07751938, "- N/A -   "
0.15, 18.7536, 0.000266568, NaN, NaN, NaN, 0.07385705, "- N/A -   "
0.16, 19.1075, 0.000288782, NaN, NaN, NaN, 0.07141549, "- N/A -   "
0.17, 19.57928, 3.109962E-4, NaN, NaN, NaN, 0.0701947, "- N/A -   "
0.18, 19.9331, 0.000330433, NaN, NaN, NaN, 0.0689739, "- N/A -   "
0.19, 20.287, 0.000349871, NaN, NaN, NaN, 0.06653238, "- N/A -   "
0.2, 20.52286, 3.69308E-4, NaN, NaN, NaN, 0.0653116, "- N/A -   "
0.21, 20.99465, 0.000388745, NaN, NaN, NaN, 0.0640908, "- N/A -   "
0.22, 21.3485, 4.081825E-4, NaN, NaN, NaN, 0.06287005, "- N/A -   "
0.23, 21.7023, 4.276198E-4, NaN, NaN, NaN, 0.06164927, "- N/A -   "
0.24, 21.93823, 4.442803E-4, NaN, NaN, NaN, 0.06164927, "- N/A -   "
0.25, 22.29207, 0.000463718, NaN, NaN, NaN, 0.06164927, "- N/A -   "
0.26, 22.528, 4.831548E-4, NaN, NaN, NaN, 0.0592077, "- N/A -   "
0.27, 22.9998, 0.000502592, NaN, NaN, NaN, 0.0592077, "- N/A -   "
0.28, 23.3536, 0.000522029, NaN, NaN, NaN, 0.0579869, "- N/A -   "
0.29, 23.7074, 5.414666E-4, NaN, NaN, NaN, 0.05676616, "- N/A -   "
0.3, 24.0613, 0.000560904, NaN, NaN, NaN, 0.0543246, "- N/A -   "
0.31, 24.29718, 0.000580341, NaN, NaN, NaN, 0.0531038, "- N/A -   "
0.32, 24.769, 5.997784E-4, NaN, NaN, NaN, 0.05188305, "- N/A -   "
0.33, 25.0049, 6.219924E-4, NaN, NaN, NaN, 0.05066227, "- N/A -   "
0.34, 25.4767, 6.414297E-4, NaN, NaN, NaN, 0.0494415, "- N/A -   "
0.35, 25.9484, 6.608669E-4, NaN, NaN, NaN, 0.0482207, "- N/A -   "
0.36, 26.0664, 6.803042E-4, NaN, NaN, NaN, 0.04699994, "- N/A -   "
0.37, 26.6561, 6.969647E-4, NaN, NaN, NaN, 0.04577916, "- N/A -   "
0.38, 26.892, 0.000716402, NaN, NaN, NaN, 0.0445584, "- N/A -   "
0.39, 27.1279, 0.000735839, NaN, NaN, NaN, 0.0433376, "- N/A -   "
0.4, 27.5997, 7.552765E-4, NaN, NaN, NaN, 0.04211683, "- N/A -   "
0.41, 27.95355, 7.71937E-4, NaN, NaN, NaN, 0.04211683, "- N/A -   "
0.42, 28.1894, 0.000791374, NaN, NaN, NaN, 0.04089605, "- N/A -   "
0.43, 28.54329, 8.108115E-4, NaN, NaN, NaN, 0.0396753, "- N/A -   "
0.44, 28.89713, 8.302488E-4, NaN, NaN, NaN, 0.0396753, "- N/A -   "
0.45, 29.133, 8.469093E-4, NaN, NaN, NaN, 0.0384545, "- N/A -   "
0.46, 29.6048, 8.663466E-4, NaN, NaN, NaN, 0.0384545, "- N/A -   "
0.47, 29.84071, 8.830071E-4, NaN, NaN, NaN, 0.0372337, "- N/A -   "
0.48, 30.1946, 0.000899668, NaN, NaN, NaN, 0.0372337, "- N/A -   "
0.49, 30.5484, 0.000919105, NaN, NaN, NaN, 0.0372337, "- N/A -   "
0.5, 30.9022, 0.000935765, NaN, NaN, NaN, 0.03601294, "- N/A -   "
0.51, 31.1381, 9.524259E-4, NaN, NaN, NaN, 0.03601294, "- N/A -   "
0.52, 31.492, 0.000971863, NaN, NaN, NaN, 0.0347922, "- N/A -   "
0.53, 31.9638, 9.913004E-4, NaN, NaN, NaN, 0.0335714, "- N/A -   "
0.54, 32.3176, 0.00100796, NaN, NaN, NaN, 0.0335714, "- N/A -   "
0.55, 32.5535, 0.0010274, NaN, NaN, NaN, 0.0323506, "- N/A -   "
0.56, 33.02529, 0.00104684, NaN, NaN, NaN, 0.0323506, "- N/A -   "
0.57, 33.2612, 0.00106627, NaN, NaN, NaN, 0.0299091, "- N/A -   "
0.58, 33.61503, 0.00108571, NaN, NaN, NaN, 0.0286883, "- N/A -   "
0.59, 33.9689, 0.00110237, NaN, NaN, NaN, 0.0286883, "- N/A -   "
0.6, 34.3227, 0.001119031, NaN, NaN, NaN, 0.0299091, "- N/A -   "
0.61, 34.55861, 0.00113291, NaN, NaN, NaN, 0.0299091, "- N/A -   "
0.62, 34.7945, 0.00114958, NaN, NaN, NaN, 0.0299091, "- N/A -   "
0.63, 35.0304, 0.001163459, NaN, NaN, NaN, 0.03112983, "- N/A -   "
0.64, 35.3842, 0.00118012, NaN, NaN, NaN, 0.03112983, "- N/A -   "
0.65, 35.7381, 0.001194, NaN, NaN, NaN, 0.0323506, "- N/A -   "
0.66, 35.97398, 0.00121066, NaN, NaN, NaN, 0.0335714, "- N/A -   "
0.67, 36.32782, 0.00122455, NaN, NaN, NaN, 0.0347922, "- N/A -   "
0.68, 36.5637, 0.00123843, NaN, NaN, NaN, 0.0347922, "- N/A -   "
0.69, 36.79961, 0.00125232, NaN, NaN, NaN, 0.03601294, "- N/A -   "
0.7, 37.0355, 0.0012662, NaN, NaN, NaN, 0.0372337, "- N/A -   "
0.71, 37.3893, 0.00128286, NaN, NaN, NaN, 0.0372337, "- N/A -   "
0.72, 37.6252, 0.001296743, NaN, NaN, NaN, 0.0384545, "- N/A -   "
0.73, 37.9791, 0.00131618, NaN, NaN, NaN, 0.0384545, "- N/A -   "
0.74, 38.215, 0.00133284, NaN, NaN, NaN, 0.0384545, "- N/A -   "
0.75, 38.5688, 0.00134672, NaN, NaN, NaN, 0.0384545, "- N/A -   "
0.76, 38.8047, 0.00136339, NaN, NaN, NaN, 0.0384545, "- N/A -   "
0.77, 39.15856, 0.00137727, NaN, NaN, NaN, 0.0396753, "- N/A -   "
0.78, 39.3945, 0.00139393, NaN, NaN, NaN, 0.04089605, "- N/A -   "
0.79, 39.7483, 0.00140781, NaN, NaN, NaN, 0.04211683, "- N/A -   "
0.8, 39.98419, 0.001421697, NaN, NaN, NaN, 0.04211683, "- N/A -   "
0.81, 40.22009, 0.00143836, NaN, NaN, NaN, 0.04211683, "- N/A -   "
0.82, 40.57393, 0.00145224, NaN, NaN, NaN, 0.0433376, "- N/A -   "
0.83, 40.8098, 0.0014689, NaN, NaN, NaN, 0.0433376, "- N/A -   "
0.84, 41.16367, 0.00148279, NaN, NaN, NaN, 0.0445584, "- N/A -   "
0.85, 41.51751, 0.00150222, NaN, NaN, NaN, 0.0445584, "- N/A -   "
0.86, 41.8714, 0.00151888, NaN, NaN, NaN, 0.0433376, "- N/A -   "
0.87, 42.1072, 0.00153554, NaN, NaN, NaN, 0.0433376, "- N/A -   "
0.88, 42.4611, 0.0015522, NaN, NaN, NaN, 0.0433376, "- N/A -   "
0.89, 42.8149, 0.00156886, NaN, NaN, NaN, 0.0433376, "- N/A -   "
0.9, 43.1688, 0.00158553, NaN, NaN, NaN, 0.0445584, "- N/A -   "
0.91, 43.40467, 0.00160219, NaN, NaN, NaN, 0.0433376, "- N/A -   "
0.92, 43.75851, 0.00161885, NaN, NaN, NaN, 0.0433376, "- N/A -   "
0.93, 44.1124, 0.00163551, NaN, NaN, NaN, 0.0433376, "- N/A -   "
0.94, 44.34825, 0.00165217, NaN, NaN, NaN, 0.0433376, "- N/A -   "
0.95, 44.70209, 0.00166883, NaN, NaN, NaN, 0.0433376, "- N/A -   "
0.96, 45.05593, 0.00168549, NaN, NaN, NaN, 0.0433376, "- N/A -   "
0.97, 45.40978, 0.00170215, NaN, NaN, NaN, 0.0433376, "- N/A -   "
0.98, 45.8816, 0.00172159, NaN, NaN, NaN, 0.0433376, "- N/A -   "
0.99, 46.11746, 0.00173547, NaN, NaN, NaN, 0.0433376, "- N/A -   "
1, 46.5893, 0.00175768, NaN, NaN, NaN, 0.04211683, "- N/A -   "
1.01, 46.9431, 0.00177434, NaN, NaN, NaN, 0.04089605, "- N/A -   "
1.02, 47.2969, 0.001791, NaN, NaN, NaN, 0.04089605, "- N/A -   "
1.03, 47.5328, 0.00181044, NaN, NaN, NaN, 0.0396753, "- N/A -   "
1.04, 48.00462, 0.00183266, NaN, NaN, NaN, 0.0384545, "- N/A -   "
1.05, 48.3585, 0.00185209, NaN, NaN, NaN, 0.0372337, "- N/A -   "
1.06, 48.7123, 0.00187153, NaN, NaN, NaN, 0.03601294, "- N/A -   "
1.07, 49.1841, 0.001890968, NaN, NaN, NaN, 0.0347922, "- N/A -   "
1.08, 49.5379, 0.00191041, NaN, NaN, NaN, 0.0323506, "- N/A -   "
1.09, 50.0097, 0.00192984, NaN, NaN, NaN, 0.03112983, "- N/A -   "
1.1, 50.4815, 0.00194928, NaN, NaN, NaN, 0.0299091, "- N/A -   "
1.11, 50.7174, 0.00197149, NaN, NaN, NaN, 0.0286883, "- N/A -   "
1.12, 51.1892, 0.00198815, NaN, NaN, NaN, 0.0274675, "- N/A -   "
1.13, 51.543, 0.00200481, NaN, NaN, NaN, 0.0274675, "- N/A -   "
1.14, 51.89689, 0.00202148, NaN, NaN, NaN, 0.0274675, "- N/A -   "
1.15, 52.1328, 0.00204091, NaN, NaN, NaN, 0.0274675, "- N/A -   "
1.16, 52.48662, 0.002057573, NaN, NaN, NaN, 0.0274675, "- N/A -   "
1.17, 52.84047, 0.00207423, NaN, NaN, NaN, 0.0274675, "- N/A -   "
1.18, 53.19431, 0.00208812, NaN, NaN, NaN, 0.0274675, "- N/A -   "
1.19, 53.54815, 0.00210478, NaN, NaN, NaN, 0.0274675, "- N/A -   "
1.2, 53.902, 0.00211866, NaN, NaN, NaN, 0.0286883, "- N/A -   "
1.21, 54.13789, 0.00213532, NaN, NaN, NaN, 0.0286883, "- N/A -   "
1.22, 54.4917, 0.00215198, NaN, NaN, NaN, 0.0286883, "- N/A -   "
1.23, 54.8456, 0.002168643, NaN, NaN, NaN, 0.0286883, "- N/A -   "
1.24, 55.1994, 0.0021853, NaN, NaN, NaN, 0.0299091, "- N/A -   "
1.25, 55.55326, 0.00220196, NaN, NaN, NaN, 0.0299091, "- N/A -   "
1.26, 55.7892, 0.00221585, NaN, NaN, NaN, 0.0299091, "- N/A -   "
1.27, 56.02505, 0.00223251, NaN, NaN, NaN, 0.0299091, "- N/A -   "
1.28, 56.37889, 0.00224639, NaN, NaN, NaN, 0.03112983, "- N/A -   "
1.29, 56.73273, 0.00226305, NaN, NaN, NaN, 0.03112983, "- N/A -   "
1.3, 57.08658, 0.00227971, NaN, NaN, NaN, 0.03112983, "- N/A -   "
1.31, 57.44042, 0.00229637, NaN, NaN, NaN, 0.0323506, "- N/A -   "
1.32, 57.6763, 0.00231026, NaN, NaN, NaN, 0.0323506, "- N/A -   "
1.33, 58.0302, 0.00232414, NaN, NaN, NaN, 0.0335714, "- N/A -   "
1.34, 58.26605, 0.002338025, NaN, NaN, NaN, 0.0347922, "- N/A -   "
1.35, 58.6199, 0.00235191, NaN, NaN, NaN, 0.03601294, "- N/A -   "
1.36, 58.8558, 0.00236857, NaN, NaN, NaN, 0.0372337, "- N/A -   "
1.37, 59.2096, 0.002382453, NaN, NaN, NaN, 0.0372337, "- N/A -   "
1.38, 59.5635, 0.00239911, NaN, NaN, NaN, 0.0372337, "- N/A -   "
1.39, 59.79937, 0.00241577, NaN, NaN, NaN, 0.0372337, "- N/A -   "
1.4, 60.15321, 0.00242966, NaN, NaN, NaN, 0.0384545, "- N/A -   "
1.41, 60.5071, 0.00244354, NaN, NaN, NaN, 0.0396753, "- N/A -   "
1.42, 60.8609, 0.00246298, NaN, NaN, NaN, 0.0396753, "- N/A -   "
1.43, 61.2147, 0.00247964, NaN, NaN, NaN, 0.0384545, "- N/A -   "
1.44, 61.56858, 0.0024963, NaN, NaN, NaN, 0.0384545, "- N/A -   "
1.45, 62.0404, 0.00251574, NaN, NaN, NaN, 0.0384545, "- N/A -   "
1.46, 62.3942, 0.00252962, NaN, NaN, NaN, 0.0384545, "- N/A -   "
1.47, 62.6301, 0.00254628, NaN, NaN, NaN, 0.0384545, "- N/A -   "
1.48, 62.98395, 0.002562942, NaN, NaN, NaN, 0.0384545, "- N/A -   "
1.49, 63.2198, 0.00257683, NaN, NaN, NaN, 0.0396753, "- N/A -   "
1.5, 63.45574, 0.00259071, NaN, NaN, NaN, 0.04089605, "- N/A -   "
1.51, 63.80958, 0.00260459, NaN, NaN, NaN, 0.04211683, "- N/A -   "
1.52, 64.16342, 0.00262125, NaN, NaN, NaN, 0.0433376, "- N/A -   "
1.53, 64.5173, 0.00263791, NaN, NaN, NaN, 0.0433376, "- N/A -   "
1.54, 64.75317, 0.002651798, NaN, NaN, NaN, 0.0433376, "- N/A -   "
1.55, 65.107, 0.00266846, NaN, NaN, NaN, 0.0433376, "- N/A -   "
1.56, 65.3429, 0.00268234, NaN, NaN, NaN, 0.0445584, "- N/A -   "
1.57, 65.81469, 0.002699, NaN, NaN, NaN, 0.0445584, "- N/A -   "
1.58, 66.16853, 0.00271289, NaN, NaN, NaN, 0.04577916, "- N/A -   "
1.59, 66.52237, 0.00273232, NaN, NaN, NaN, 0.04577916, "- N/A -   "
1.6, 66.87622, 0.00274898, NaN, NaN, NaN, 0.0445584, "- N/A -   "
1.61, 67.1121, 0.00276287, NaN, NaN, NaN, 0.04577916, "- N/A -   "
1.62, 67.46596, 0.00277953, NaN, NaN, NaN, 0.04577916, "- N/A -   "
1.63, 67.81979, 0.002798966, NaN, NaN, NaN, 0.04577916, "- N/A -   "
1.64, 68.29159, 0.00281563, NaN, NaN, NaN, 0.0445584, "- N/A -   "
1.65, 68.7634, 0.00283506, NaN, NaN, NaN, 0.0433376, "- N/A -   "
1.66, 69.11722, 0.002854501, NaN, NaN, NaN, 0.04211683, "- N/A -   "
1.67, 69.589, 0.00287394, NaN, NaN, NaN, 0.04089605, "- N/A -   "
1.68, 69.94285, 0.0028906, NaN, NaN, NaN, 0.04089605, "- N/A -   "
1.69, 70.41464, 0.002910036, NaN, NaN, NaN, 0.0396753, "- N/A -   "
1.7, 70.7685, 0.00292947, NaN, NaN, NaN, 0.0384545, "- N/A -   "
1.71, 71.12233, 0.00294891, NaN, NaN, NaN, 0.0384545, "- N/A -   "
1.72, 71.4762, 0.002965571, NaN, NaN, NaN, 0.0372337, "- N/A -   "
1.73, 71.83001, 0.00298223, NaN, NaN, NaN, 0.0372337, "- N/A -   "
1.74, 72.1838, 0.003001669, NaN, NaN, NaN, 0.03601294, "- N/A -   "
1.75, 72.5377, 0.00301833, NaN, NaN, NaN, 0.03601294, "- N/A -   "
1.76, 72.89154, 0.00303777, NaN, NaN, NaN, 0.03601294, "- N/A -   "
1.77, 73.36333, 0.003054427, NaN, NaN, NaN, 0.0347922, "- N/A -   "
1.78, 73.71717, 0.00307109, NaN, NaN, NaN, 0.0347922, "- N/A -   "
1.79, 74.071, 0.003087748, NaN, NaN, NaN, 0.0347922, "- N/A -   "
1.8, 74.5428, 0.00310719, NaN, NaN, NaN, 0.0335714, "- N/A -   "
1.81, 74.8966, 0.00312662, NaN, NaN, NaN, 0.0323506, "- N/A -   "
1.82, 75.13254, 0.003143283, NaN, NaN, NaN, 0.0323506, "- N/A -   "
1.83, 75.6043, 0.00316272, NaN, NaN, NaN, 0.0323506, "- N/A -   "
1.84, 75.95817, 0.0031766, NaN, NaN, NaN, 0.0323506, "- N/A -   "
1.85, 76.19407, 0.00319326, NaN, NaN, NaN, 0.0335714, "- N/A -   "
1.86, 76.6659, 0.00320715, NaN, NaN, NaN, 0.0335714, "- N/A -   "
1.87, 77.0197, 0.00322659, NaN, NaN, NaN, 0.0323506, "- N/A -   "
1.88, 77.25559, 0.003243246, NaN, NaN, NaN, 0.0335714, "- N/A -   "
1.89, 77.6094, 0.00325713, NaN, NaN, NaN, 0.0335714, "- N/A -   "
1.9, 77.84533, 0.00327379, NaN, NaN, NaN, 0.0347922, "- N/A -   "
1.91, 78.31712, 0.00328767, NaN, NaN, NaN, 0.0347922, "- N/A -   "
1.92, 78.55301, 0.00330433, NaN, NaN, NaN, 0.0347922, "- N/A -   "
1.93, 79.0248, 0.003321, NaN, NaN, NaN, 0.0347922, "- N/A -   "
1.94, 79.2607, 0.00333766, NaN, NaN, NaN, 0.0347922, "- N/A -   "
1.95, 79.73249, 0.003354316, NaN, NaN, NaN, 0.03601294, "- N/A -   "
1.96, 80.0863, 0.00337098, NaN, NaN, NaN, 0.0347922, "- N/A -   "
1.97, 80.44018, 0.00338764, NaN, NaN, NaN, 0.0347922, "- N/A -   "
1.98, 80.912, 0.0034043, NaN, NaN, NaN, 0.0347922, "- N/A -   "
1.99, 81.14786, 0.003423735, NaN, NaN, NaN, 0.0335714, "- N/A -   "
2, 81.61965, 0.00344317, NaN, NaN, NaN, 0.0335714, "- N/A -   "
2.01, 81.97349, 0.00345983, NaN, NaN, NaN, 0.0323506, "- N/A -   "
2.02, 82.44528, 0.00347649, NaN, NaN, NaN, 0.0323506, "- N/A -   "
2.03, 82.79912, 0.00349315, NaN, NaN, NaN, 0.0323506, "- N/A -   "
2.04, 83.03502, 0.00350981, NaN, NaN, NaN, 0.0323506, "- N/A -   "
2.05, 83.38886, 0.00352647, NaN, NaN, NaN, 0.0323506, "- N/A -   "
2.06, 83.74271, 0.00354036, NaN, NaN, NaN, 0.0335714, "- N/A -   "
2.07, 83.9786, 0.00355702, NaN, NaN, NaN, 0.0335714, "- N/A -   "
2.08, 84.33244, 0.0035709, NaN, NaN, NaN, 0.0347922, "- N/A -   "
2.09, 84.56834, 0.00358756, NaN, NaN, NaN, 0.03601294, "- N/A -   "
2.1, 84.92217, 0.00360145, NaN, NaN, NaN, 0.03601294, "- N/A -   "
2.11, 85.39397, 0.00361811, NaN, NaN, NaN, 0.0372337, "- N/A -   "
2.12, 85.74781, 0.00363199, NaN, NaN, NaN, 0.0372337, "- N/A -   "
2.13, 85.9837, 0.00364865, NaN, NaN, NaN, 0.0372337, "- N/A -   "
2.14, 86.33755, 0.00366254, NaN, NaN, NaN, 0.0384545, "- N/A -   "
2.15, 86.69139, 0.00367642, NaN, NaN, NaN, 0.0396753, "- N/A -   "
2.16, 86.80934, 0.0036903, NaN, NaN, NaN, 0.04089605, "- N/A -   "
2.17, 87.16318, 0.00370696, NaN, NaN, NaN, 0.04089605, "- N/A -   "
2.18, 87.63497, 0.00372362, NaN, NaN, NaN, 0.04089605, "- N/A -   "
2.19, 87.9888, 0.00374028, NaN, NaN, NaN, 0.04089605, "- N/A -   "
2.2, 88.34265, 0.00375417, NaN, NaN, NaN, 0.04211683, "- N/A -   "
2.21, 88.6965, 0.003770829, NaN, NaN, NaN, 0.04211683, "- N/A -   "
2.22, 89.05035, 0.00378749, NaN, NaN, NaN, 0.04211683, "- N/A -   "
2.23, 89.6401, 0.00380693, NaN, NaN, NaN, 0.04089605, "- N/A -   "
2.24, 89.87598, 0.003826364, NaN, NaN, NaN, 0.0396753, "- N/A -   "
2.25, 90.34776, 0.00384302, NaN, NaN, NaN, 0.0396753, "- N/A -   "
2.26, 90.70161, 0.003859685, NaN, NaN, NaN, 0.0396753, "- N/A -   "
2.27, 90.9375, 0.00387635, NaN, NaN, NaN, 0.04089605, "- N/A -   "
2.28, 91.2913, 0.00389023, NaN, NaN, NaN, 0.04089605, "- N/A -   "
2.29, 91.64519, 0.00390689, NaN, NaN, NaN, 0.04211683, "- N/A -   "
2.3, 91.99903, 0.00392355, NaN, NaN, NaN, 0.04211683, "- N/A -   "
2.31, 92.47082, 0.003940211, NaN, NaN, NaN, 0.04211683, "- N/A -   "
2.32, 92.82466, 0.00395687, NaN, NaN, NaN, 0.04211683, "- N/A -   "
2.33, 93.1785, 0.00397631, NaN, NaN, NaN, 0.0396753, "- N/A -   "
2.34, 93.53234, 0.003992969, NaN, NaN, NaN, 0.0396753, "- N/A -   "
2.35, 94.0041, 0.004015183, NaN, NaN, NaN, 0.0384545, "- N/A -   "
2.36, 94.47592, 0.00403184, NaN, NaN, NaN, 0.0372337, "- N/A -   "
2.37, 94.9477, 0.004051281, NaN, NaN, NaN, 0.03601294, "- N/A -   "
2.38, 95.18361, 0.00407072, NaN, NaN, NaN, 0.03601294, "- N/A -   "
2.39, 95.7733, 0.00408738, NaN, NaN, NaN, 0.0347922, "- N/A -   "
2.4, 96.12719, 0.004106816, NaN, NaN, NaN, 0.0335714, "- N/A -   "
2.41, 96.36309, 0.004123477, NaN, NaN, NaN, 0.0335714, "- N/A -   "
2.42, 96.95282, 0.004140137, NaN, NaN, NaN, 0.0335714, "- N/A -   "
2.43, 97.18872, 0.0041568, NaN, NaN, NaN, 0.0335714, "- N/A -   "
2.44, 97.4246, 0.004173458, NaN, NaN, NaN, 0.0335714, "- N/A -   "
2.45, 97.8964, 0.00419012, NaN, NaN, NaN, 0.0335714, "- N/A -   "
2.46, 98.2502, 0.004206779, NaN, NaN, NaN, 0.0335714, "- N/A -   "
2.47, 98.72203, 0.00422344, NaN, NaN, NaN, 0.0335714, "- N/A -   "
2.48, 98.9579, 0.0042401, NaN, NaN, NaN, 0.0335714, "- N/A -   "
2.49, 99.3118, 0.00425676, NaN, NaN, NaN, 0.0335714, "- N/A -   "
2.5, 99.66561, 0.004273421, NaN, NaN, NaN, 0.0335714, "- N/A -   "
2.51, 100.137, 0.00429008, NaN, NaN, NaN, 0.0335714, "- N/A -   "
2.52, 100.491, 0.004306742, NaN, NaN, NaN, 0.0335714, "- N/A -   "
2.53, 100.727, 0.004323403, NaN, NaN, NaN, 0.0335714, "- N/A -   "
2.54, 101.081, 0.00434006, NaN, NaN, NaN, 0.0335714, "- N/A -   "
2.55, 101.553, 0.00435672, NaN, NaN, NaN, 0.0335714, "- N/A -   "
2.56, 101.907, 0.004376161, NaN, NaN, NaN, 0.0323506, "- N/A -   "
2.57, 102.3784, 0.004395598, NaN, NaN, NaN, 0.0323506, "- N/A -   "
2.58, 102.85, 0.004412259, NaN, NaN, NaN, 0.0323506, "- N/A -   "
2.59, 103.204, 0.00442892, NaN, NaN, NaN, 0.03112983, "- N/A -   "
2.6, 103.558, 0.00444558, NaN, NaN, NaN, 0.0323506, "- N/A -   "
2.61, 103.912, 0.00445946, NaN, NaN, NaN, 0.0323506, "- N/A -   "
2.62, 104.266, 0.004476124, NaN, NaN, NaN, 0.0323506, "- N/A -   "
2.63, 104.501, 0.00449278, NaN, NaN, NaN, 0.0323506, "- N/A -   "
2.64, 104.855, 0.004509445, NaN, NaN, NaN, 0.0323506, "- N/A -   "
2.65, 105.209, 0.00452611, NaN, NaN, NaN, 0.0323506, "- N/A -   "
2.66, 105.563, 0.004542766, NaN, NaN, NaN, 0.0323506, "- N/A -   "
2.67, 106.035, 0.0045622, NaN, NaN, NaN, 0.0323506, "- N/A -   "
2.68, 106.389, 0.00457886, NaN, NaN, NaN, 0.0323506, "- N/A -   "
2.69, 106.86, 0.004595524, NaN, NaN, NaN, 0.03112983, "- N/A -   "
2.7, 107.214, 0.00461496, NaN, NaN, NaN, 0.03112983, "- N/A -   "
2.71, 107.686, 0.004631622, NaN, NaN, NaN, 0.03112983, "- N/A -   "
2.72, 107.922, 0.004645506, NaN, NaN, NaN, 0.03112983, "- N/A -   "
2.73, 108.158, 0.00466217, NaN, NaN, NaN, 0.03112983, "- N/A -   "
2.74, 108.63, 0.00467605, NaN, NaN, NaN, 0.0323506, "- N/A -   "
2.75, 108.866, 0.00469271, NaN, NaN, NaN, 0.0323506, "- N/A -   "
2.76, 109.219, 0.004709371, NaN, NaN, NaN, 0.0323506, "- N/A -   "
2.77, 109.5732, 0.004726032, NaN, NaN, NaN, 0.0323506, "- N/A -   "
2.78, 110.045, 0.004742692, NaN, NaN, NaN, 0.0323506, "- N/A -   "
2.79, 110.399, 0.00475935, NaN, NaN, NaN, 0.0323506, "- N/A -   "
2.8, 110.635, 0.00477324, NaN, NaN, NaN, 0.0335714, "- N/A -   "
2.81, 110.989, 0.0047899, NaN, NaN, NaN, 0.0335714, "- N/A -   "
2.82, 111.46, 0.004806557, NaN, NaN, NaN, 0.0335714, "- N/A -   "
2.83, 111.8142, 0.00482044, NaN, NaN, NaN, 0.0347922, "- N/A -   "
2.84, 112.0501, 0.0048371, NaN, NaN, NaN, 0.03601294, "- N/A -   "
2.85, 112.286, 0.00485099, NaN, NaN, NaN, 0.0372337, "- N/A -   "
2.86, 112.522, 0.004862093, NaN, NaN, NaN, 0.0384545, "- N/A -   "
2.87, 112.876, 0.004875976, NaN, NaN, NaN, 0.0396753, "- N/A -   "
2.88, 113.112, 0.00488986, NaN, NaN, NaN, 0.04089605, "- N/A -   "
2.89, 113.465, 0.00490374, NaN, NaN, NaN, 0.04211683, "- N/A -   "
2.9, 113.819, 0.004920405, NaN, NaN, NaN, 0.0433376, "- N/A -   "
2.91, 114.055, 0.00493429, NaN, NaN, NaN, 0.0433376, "- N/A -   "
2.92, 114.409, 0.004950949, NaN, NaN, NaN, 0.0433376, "- N/A -   "
2.93, 114.881, 0.004967609, NaN, NaN, NaN, 0.0433376, "- N/A -   "
2.94, 115.117, 0.00498427, NaN, NaN, NaN, 0.0433376, "- N/A -   "
2.95, 115.471, 0.004998153, NaN, NaN, NaN, 0.0445584, "- N/A -   "
2.96, 115.824, 0.00501481, NaN, NaN, NaN, 0.0445584, "- N/A -   "
2.97, 116.178, 0.005034251, NaN, NaN, NaN, 0.0445584, "- N/A -   "
2.98, 116.5321, 0.00504814, NaN, NaN, NaN, 0.0445584, "- N/A -   "
2.99, 116.886, 0.005062019, NaN, NaN, NaN, 0.04577916, "- N/A -   "
3, 117.24, 0.00507868, NaN, NaN, NaN, 0.04577916, "- N/A -   "
3.01, 117.594, 0.00509534, NaN, NaN, NaN, 0.04577916, "- N/A -   "
3.02, 118.065, 0.00510922, NaN, NaN, NaN, 0.04699994, "- N/A -   "
3.03, 118.301, 0.00512588, NaN, NaN, NaN, 0.04699994, "- N/A -   "
3.04, 118.7731, 0.005145321, NaN, NaN, NaN, 0.04699994, "- N/A -   "
3.05, 119.127, 0.00516198, NaN, NaN, NaN, 0.04699994, "- N/A -   "
3.06, 119.481, 0.00517864, NaN, NaN, NaN, 0.04699994, "- N/A -   "
3.07, 119.835, 0.005195303, NaN, NaN, NaN, 0.04577916, "- N/A -   "
3.08, 120.188, 0.00521474, NaN, NaN, NaN, 0.04577916, "- N/A -   "
3.09, 120.66, 0.005234177, NaN, NaN, NaN, 0.0445584, "- N/A -   "
3.1, 121.132, 0.00525084, NaN, NaN, NaN, 0.0433376, "- N/A -   "
3.11, 121.486, 0.00527028, NaN, NaN, NaN, 0.04211683, "- N/A -   "
3.12, 121.958, 0.005289712, NaN, NaN, NaN, 0.04089605, "- N/A -   "
3.13, 122.547, 0.005311926, NaN, NaN, NaN, 0.0384545, "- N/A -   "
3.14, 122.901, 0.00533136, NaN, NaN, NaN, 0.0372337, "- N/A -   "
3.15, 123.373, 0.005350801, NaN, NaN, NaN, 0.03601294, "- N/A -   "
3.16, 123.845, 0.005370238, NaN, NaN, NaN, 0.0347922, "- N/A -   "
3.17, 124.199, 0.00538968, NaN, NaN, NaN, 0.0335714, "- N/A -   "
3.18, 124.788, 0.00540634, NaN, NaN, NaN, 0.0335714, "- N/A -   "
3.19, 125.024, 0.005425773, NaN, NaN, NaN, 0.0323506, "- N/A -   "
3.2, 125.378, 0.00544243, NaN, NaN, NaN, 0.0335714, "- N/A -   "
3.21, 125.614, 0.00545632, NaN, NaN, NaN, 0.0335714, "- N/A -   "
3.22, 126.086, 0.00547576, NaN, NaN, NaN, 0.0335714, "- N/A -   "
3.23, 126.44, 0.00549242, NaN, NaN, NaN, 0.0323506, "- N/A -   "
3.24, 126.794, 0.00550908, NaN, NaN, NaN, 0.0335714, "- N/A -   "
3.25, 127.147, 0.00552574, NaN, NaN, NaN, 0.0335714, "- N/A -   "
3.26, 127.501, 0.005542397, NaN, NaN, NaN, 0.0323506, "- N/A -   "
3.27, 127.855, 0.00555906, NaN, NaN, NaN, 0.0323506, "- N/A -   "
3.28, 128.209, 0.00557572, NaN, NaN, NaN, 0.0323506, "- N/A -   "
3.29, 128.6807, 0.005592378, NaN, NaN, NaN, 0.0323506, "- N/A -   "
3.3, 128.917, 0.005609039, NaN, NaN, NaN, 0.0335714, "- N/A -   "
3.31, 129.27, 0.005622922, NaN, NaN, NaN, 0.0335714, "- N/A -   "
3.32, 129.624, 0.00564236, NaN, NaN, NaN, 0.0323506, "- N/A -   "
3.33, 130.096, 0.00565902, NaN, NaN, NaN, 0.0323506, "- N/A -   "
3.34, 130.4499, 0.00567846, NaN, NaN, NaN, 0.03112983, "- N/A -   "
3.35, 130.804, 0.0056979, NaN, NaN, NaN, 0.03112983, "- N/A -   "
3.36, 131.393, 0.005717332, NaN, NaN, NaN, 0.0299091, "- N/A -   "
3.37, 131.629, 0.005733992, NaN, NaN, NaN, 0.0286883, "- N/A -   "
3.38, 132.101, 0.00575343, NaN, NaN, NaN, 0.0274675, "- N/A -   "
3.39, 132.455, 0.00577009, NaN, NaN, NaN, 0.0274675, "- N/A -   "
3.4, 132.809, 0.00578675, NaN, NaN, NaN, 0.0274675, "- N/A -   "
3.41, 133.163, 0.00580341, NaN, NaN, NaN, 0.0286883, "- N/A -   "
3.42, 133.399, 0.005814518, NaN, NaN, NaN, 0.0299091, "- N/A -   "
3.43, 133.752, 0.005831179, NaN, NaN, NaN, 0.0299091, "- N/A -   "
3.44, 133.988, 0.00584784, NaN, NaN, NaN, 0.03112983, "- N/A -   "
3.45, 134.342, 0.00586172, NaN, NaN, NaN, 0.0323506, "- N/A -   "
3.46, 134.696, 0.00587838, NaN, NaN, NaN, 0.03112983, "- N/A -   "
3.47, 134.932, 0.00589504, NaN, NaN, NaN, 0.0323506, "- N/A -   "
3.48, 135.286, 0.005908928, NaN, NaN, NaN, 0.0323506, "- N/A -   "
3.49, 135.758, 0.00592281, NaN, NaN, NaN, 0.0335714, "- N/A -   "
3.5, 135.993, 0.0059367, NaN, NaN, NaN, 0.0347922, "- N/A -   "
3.51, 136.229, 0.00595336, NaN, NaN, NaN, 0.03601294, "- N/A -   "
3.52, 136.583, 0.00596724, NaN, NaN, NaN, 0.03601294, "- N/A -   "
3.53, 136.937, 0.0059839, NaN, NaN, NaN, 0.0372337, "- N/A -   "
3.54, 137.173, 0.005997784, NaN, NaN, NaN, 0.0372337, "- N/A -   "
3.55, 137.4088, 0.00601167, NaN, NaN, NaN, 0.0384545, "- N/A -   "
3.56, 137.8806, 0.006025552, NaN, NaN, NaN, 0.0396753, "- N/A -   "
3.57, 138.234, 0.006042212, NaN, NaN, NaN, 0.04089605, "- N/A -   "
3.58, 138.47, 0.006056096, NaN, NaN, NaN, 0.04089605, "- N/A -   "
3.59, 138.706, 0.00606998, NaN, NaN, NaN, 0.04211683, "- N/A -   "
3.6, 138.942, 0.006083864, NaN, NaN, NaN, 0.0433376, "- N/A -   "
3.61, 139.296, 0.00609775, NaN, NaN, NaN, 0.0445584, "- N/A -   "
3.62, 139.532, 0.006114408, NaN, NaN, NaN, 0.04699994, "- N/A -   "
3.63, 140.004, 0.006131068, NaN, NaN, NaN, 0.04699994, "- N/A -   "
3.64, 140.24, 0.006144952, NaN, NaN, NaN, 0.04699994, "- N/A -   "
3.65, 140.711, 0.00615884, NaN, NaN, NaN, 0.0482207, "- N/A -   "
3.66, 140.947, 0.006175496, NaN, NaN, NaN, 0.0482207, "- N/A -   "
3.67, 141.301, 0.006192156, NaN, NaN, NaN, 0.0482207, "- N/A -   "
3.68, 141.773, 0.00620882, NaN, NaN, NaN, 0.0482207, "- N/A -   "
3.69, 142.1267, 0.006225478, NaN, NaN, NaN, 0.0482207, "- N/A -   "
3.7, 142.5985, 0.00624491, NaN, NaN, NaN, 0.04699994, "- N/A -   "
3.71, 142.8344, 0.00626435, NaN, NaN, NaN, 0.04577916, "- N/A -   "
3.72, 143.306, 0.006286566, NaN, NaN, NaN, 0.0445584, "- N/A -   "
3.73, 143.778, 0.006306004, NaN, NaN, NaN, 0.0433376, "- N/A -   "
3.74, 144.25, 0.00632544, NaN, NaN, NaN, 0.04211683, "- N/A -   "
3.75, 144.722, 0.006344878, NaN, NaN, NaN, 0.0396753, "- N/A -   "
3.76, 145.193, 0.00636432, NaN, NaN, NaN, 0.0384545, "- N/A -   "
3.77, 145.547, 0.00638375, NaN, NaN, NaN, 0.0384545, "- N/A -   "
3.78, 145.901, 0.00640319, NaN, NaN, NaN, 0.0372337, "- N/A -   "
3.79, 146.3728, 0.00641985, NaN, NaN, NaN, 0.03601294, "- N/A -   "
3.8, 146.727, 0.00643929, NaN, NaN, NaN, 0.0347922, "- N/A -   "
3.81, 147.198, 0.00645872, NaN, NaN, NaN, 0.0335714, "- N/A -   "
3.82, 147.552, 0.00647539, NaN, NaN, NaN, 0.0335714, "- N/A -   "
3.83, 147.906, 0.00649482, NaN, NaN, NaN, 0.0335714, "- N/A -   "
3.84, 148.142, 0.006508706, NaN, NaN, NaN, 0.0335714, "- N/A -   "
3.85, 148.496, 0.00652537, NaN, NaN, NaN, 0.0335714, "- N/A -   "
3.86, 148.8497, 0.006542028, NaN, NaN, NaN, 0.0335714, "- N/A -   "
3.87, 149.204, 0.006558688, NaN, NaN, NaN, 0.0335714, "- N/A -   "
3.88, 149.557, 0.00657812, NaN, NaN, NaN, 0.0335714, "- N/A -   "
3.89, 150.029, 0.006594786, NaN, NaN, NaN, 0.0323506, "- N/A -   "
3.9, 150.265, 0.00661145, NaN, NaN, NaN, 0.0323506, "- N/A -   "
3.91, 150.619, 0.006630884, NaN, NaN, NaN, 0.0323506, "- N/A -   "
3.92, 151.091, 0.00665032, NaN, NaN, NaN, 0.03112983, "- N/A -   "
3.93, 151.445, 0.00666698, NaN, NaN, NaN, 0.0299091, "- N/A -   "
3.94, 151.798, 0.00668642, NaN, NaN, NaN, 0.0286883, "- N/A -   "
3.95, 152.27, 0.00670308, NaN, NaN, NaN, 0.0286883, "- N/A -   "
3.96, 152.624, 0.00671974, NaN, NaN, NaN, 0.0286883, "- N/A -   "
3.97, 152.86, 0.0067364, NaN, NaN, NaN, 0.0286883, "- N/A -   "
3.98, 153.332, 0.00675306, NaN, NaN, NaN, 0.0286883, "- N/A -   "
3.99, 153.686, 0.00676972, NaN, NaN, NaN, 0.0286883, "- N/A -   "
4, 154.0394, 0.006789158, NaN, NaN, NaN, 0.0286883, "- N/A -   "
4.01, 154.2753, 0.00680582, NaN, NaN, NaN, 0.0274675, "- N/A -   "
4.02, 154.629, 0.00682248, NaN, NaN, NaN, 0.0274675, "- N/A -   "
4.03, 154.983, 0.00683914, NaN, NaN, NaN, 0.0274675, "- N/A -   "
4.04, 155.337, 0.0068558, NaN, NaN, NaN, 0.0274675, "- N/A -   "
4.05, 155.691, 0.00687246, NaN, NaN, NaN, 0.0286883, "- N/A -   "
4.06, 155.927, 0.00688634, NaN, NaN, NaN, 0.0286883, "- N/A -   "
4.07, 156.162, 0.00690023, NaN, NaN, NaN, 0.0299091, "- N/A -   "
4.08, 156.5163, 0.00691411, NaN, NaN, NaN, 0.03112983, "- N/A -   "
4.09, 156.87, 0.00693077, NaN, NaN, NaN, 0.03112983, "- N/A -   "
4.1, 157.224, 0.00694743, NaN, NaN, NaN, 0.0323506, "- N/A -   "
4.11, 157.342, 0.006961317, NaN, NaN, NaN, 0.0323506, "- N/A -   "
4.12, 157.696, 0.0069752, NaN, NaN, NaN, 0.0335714, "- N/A -   "
4.13, 158.0496, 0.00698908, NaN, NaN, NaN, 0.0347922, "- N/A -   "
4.14, 158.2855, 0.00700297, NaN, NaN, NaN, 0.03601294, "- N/A -   "
4.15, 158.521, 0.007016852, NaN, NaN, NaN, 0.0372337, "- N/A -   "
4.16, 158.7573, 0.007030736, NaN, NaN, NaN, 0.0384545, "- N/A -   "
4.17, 158.9932, 0.00704184, NaN, NaN, NaN, 0.04089605, "- N/A -   "
4.18, 159.347, 0.0070585, NaN, NaN, NaN, 0.04211683, "- N/A -   "
4.19, 159.465, 0.00706961, NaN, NaN, NaN, 0.0433376, "- N/A -   "
4.2, 159.937, 0.00708627, NaN, NaN, NaN, 0.0445584, "- N/A -   "
4.21, 160.055, 0.00710015, NaN, NaN, NaN, 0.0445584, "- N/A -   "
4.22, 160.409, 0.00711681, NaN, NaN, NaN, 0.0445584, "- N/A -   "
4.23, 160.88, 0.007133476, NaN, NaN, NaN, 0.0445584, "- N/A -   "
4.24, 161.234, 0.00715014, NaN, NaN, NaN, 0.0445584, "- N/A -   "
4.25, 161.588, 0.0071668, NaN, NaN, NaN, 0.0445584, "- N/A -   "
4.26, 161.824, 0.007183457, NaN, NaN, NaN, 0.0445584, "- N/A -   "
4.27, 162.296, 0.007200118, NaN, NaN, NaN, 0.0445584, "- N/A -   "
4.28, 162.532, 0.00721678, NaN, NaN, NaN, 0.0445584, "- N/A -   "
4.29, 162.885, 0.00723066, NaN, NaN, NaN, 0.04577916, "- N/A -   "
4.3, 163.2393, 0.007250099, NaN, NaN, NaN, 0.04577916, "- N/A -   "
4.31, 163.593, 0.00726398, NaN, NaN, NaN, 0.04577916, "- N/A -   "
4.32, 163.829, 0.007280643, NaN, NaN, NaN, 0.04577916, "- N/A -   "
4.33, 164.183, 0.00730008, NaN, NaN, NaN, 0.04577916, "- N/A -   "
4.34, 164.655, 0.00731674, NaN, NaN, NaN, 0.04577916, "- N/A -   "
4.35, 164.891, 0.007330625, NaN, NaN, NaN, 0.04577916, "- N/A -   "
4.36, 165.2444, 0.007347285, NaN, NaN, NaN, 0.04577916, "- N/A -   "
4.37, 165.598, 0.007363946, NaN, NaN, NaN, 0.04577916, "- N/A -   "
4.38, 165.834, 0.00738061, NaN, NaN, NaN, 0.04577916, "- N/A -   "
4.39, 166.188, 0.00740004, NaN, NaN, NaN, 0.04577916, "- N/A -   "
4.4, 166.66, 0.0074167, NaN, NaN, NaN, 0.0445584, "- N/A -   "
4.41, 167.014, 0.007436141, NaN, NaN, NaN, 0.0445584, "- N/A -   "
4.42, 167.367, 0.0074528, NaN, NaN, NaN, 0.0445584, "- N/A -   "
4.43, 167.603, 0.00746946, NaN, NaN, NaN, 0.0445584, "- N/A -   "
4.44, 167.9572, 0.00748335, NaN, NaN, NaN, 0.0445584, "- N/A -   "
4.45, 168.311, 0.007502783, NaN, NaN, NaN, 0.0433376, "- N/A -   "
4.46, 168.665, 0.00752222, NaN, NaN, NaN, 0.04211683, "- N/A -   "
4.47, 168.901, 0.007538881, NaN, NaN, NaN, 0.04211683, "- N/A -   "
4.48, 169.373, 0.007558319, NaN, NaN, NaN, 0.04211683, "- N/A -   "
4.49, 169.844, 0.00757776, NaN, NaN, NaN, 0.0396753, "- N/A -   "
4.5, 170.1982, 0.007597193, NaN, NaN, NaN, 0.0384545, "- N/A -   "
4.51, 170.552, 0.007619407, NaN, NaN, NaN, 0.0372337, "- N/A -   "
4.52, 170.906, 0.00763884, NaN, NaN, NaN, 0.0347922, "- N/A -   "
4.53, 171.378, 0.00765828, NaN, NaN, NaN, 0.0335714, "- N/A -   "
4.54, 171.849, 0.00767494, NaN, NaN, NaN, 0.0335714, "- N/A -   "
4.55, 172.203, 0.007694379, NaN, NaN, NaN, 0.0323506, "- N/A -   "
4.56, 172.4392, 0.00771382, NaN, NaN, NaN, 0.03112983, "- N/A -   "
4.57, 172.6751, 0.007730477, NaN, NaN, NaN, 0.03112983, "- N/A -   "
4.58, 173.1469, 0.00774714, NaN, NaN, NaN, 0.03112983, "- N/A -   "
4.59, 173.501, 0.007766575, NaN, NaN, NaN, 0.03112983, "- N/A -   "
4.6, 173.855, 0.007783235, NaN, NaN, NaN, 0.0299091, "- N/A -   "
4.61, 174.09, 0.0077999, NaN, NaN, NaN, 0.0299091, "- N/A -   "
4.62, 174.326, 0.007816557, NaN, NaN, NaN, 0.0299091, "- N/A -   "
4.63, 174.798, 0.007833217, NaN, NaN, NaN, 0.0299091, "- N/A -   "
4.64, 174.9161, 0.007849877, NaN, NaN, NaN, 0.0299091, "- N/A -   "
4.65, 175.27, 0.007863761, NaN, NaN, NaN, 0.03112983, "- N/A -   "
4.66, 175.506, 0.007880421, NaN, NaN, NaN, 0.03112983, "- N/A -   "
4.67, 175.742, 0.00789431, NaN, NaN, NaN, 0.0323506, "- N/A -   "
4.68, 176.096, 0.007910967, NaN, NaN, NaN, 0.0323506, "- N/A -   "
4.69, 176.449, 0.007927627, NaN, NaN, NaN, 0.0323506, "- N/A -   "
4.7, 176.6853, 0.00794151, NaN, NaN, NaN, 0.0335714, "- N/A -   "
4.71, 177.039, 0.007958171, NaN, NaN, NaN, 0.0335714, "- N/A -   "
4.72, 177.275, 0.007974831, NaN, NaN, NaN, 0.0335714, "- N/A -   "
4.73, 177.747, 0.007991492, NaN, NaN, NaN, 0.0335714, "- N/A -   "
4.74, 177.983, 0.008005375, NaN, NaN, NaN, 0.0347922, "- N/A -   "
4.75, 178.219, 0.008022036, NaN, NaN, NaN, 0.0347922, "- N/A -   "
4.76, 178.572, 0.008038697, NaN, NaN, NaN, 0.0347922, "- N/A -   "
4.77, 178.808, 0.008052581, NaN, NaN, NaN, 0.03601294, "- N/A -   "
4.78, 179.162, 0.008069241, NaN, NaN, NaN, 0.03601294, "- N/A -   "
4.79, 179.516, 0.008085901, NaN, NaN, NaN, 0.03601294, "- N/A -   "
4.8, 179.752, 0.008102561, NaN, NaN, NaN, 0.03601294, "- N/A -   "
4.81, 180.106, 0.00811645, NaN, NaN, NaN, 0.0372337, "- N/A -   "
4.82, 180.46, 0.008135883, NaN, NaN, NaN, 0.0372337, "- N/A -   "
4.83, 180.696, 0.008149767, NaN, NaN, NaN, 0.0372337, "- N/A -   "
4.84, 181.049, 0.008166427, NaN, NaN, NaN, 0.0372337, "- N/A -   "
4.85, 181.285, 0.008183087, NaN, NaN, NaN, 0.0372337, "- N/A -   "
4.86, 181.639, 0.008199749, NaN, NaN, NaN, 0.0372337, "- N/A -   "
4.87, 181.875, 0.008216409, NaN, NaN, NaN, 0.0384545, "- N/A -   "
4.88, 182.229, 0.008233069, NaN, NaN, NaN, 0.0384545, "- N/A -   "
4.89, 182.465, 0.008246954, NaN, NaN, NaN, 0.0384545, "- N/A -   "
4.9, 182.819, 0.008260837, NaN, NaN, NaN, 0.0396753, "- N/A -   "
4.91, 183.172, 0.008277497, NaN, NaN, NaN, 0.0396753, "- N/A -   "
4.92, 183.408, 0.008291381, NaN, NaN, NaN, 0.04089605, "- N/A -   "
4.93, 183.644, 0.008308042, NaN, NaN, NaN, 0.04089605, "- N/A -   "
4.94, 183.998, 0.008324701, NaN, NaN, NaN, 0.04089605, "- N/A -   "
4.95, 184.234, 0.008341363, NaN, NaN, NaN, 0.04089605, "- N/A -   "
4.96, 184.5878, 0.008358023, NaN, NaN, NaN, 0.04089605, "- N/A -   "
4.97, 184.824, 0.008371907, NaN, NaN, NaN, 0.04211683, "- N/A -   "
4.98, 185.178, 0.008388568, NaN, NaN, NaN, 0.0433376, "- N/A -   "
4.99, 185.413, 0.008402451, NaN, NaN, NaN, 0.0433376, "- N/A -   "
5, 185.649, 0.008416335, NaN, NaN, NaN, 0.0445584, "- N/A -   "
5.01, 186.003, 0.008433, NaN, NaN, NaN, 0.0445584, "- N/A -   "
5.02, 186.239, 0.008449656, NaN, NaN, NaN, 0.0445584, "- N/A -   "
5.03, 186.711, 0.008469094, NaN, NaN, NaN, 0.0445584, "- N/A -   "
5.04, 187.065, 0.008485753, NaN, NaN, NaN, 0.0445584, "- N/A -   "
5.05, 187.419, 0.008499637, NaN, NaN, NaN, 0.0445584, "- N/A -   "
5.06, 187.654, 0.008519075, NaN, NaN, NaN, 0.0433376, "- N/A -   "
5.07, 188.008, 0.008538512, NaN, NaN, NaN, 0.0433376, "- N/A -   "
5.08, 188.3621, 0.008557949, NaN, NaN, NaN, 0.04211683, "- N/A -   "
5.09, 188.834, 0.008577387, NaN, NaN, NaN, 0.04089605, "- N/A -   "
5.1, 189.188, 0.008596824, NaN, NaN, NaN, 0.0384545, "- N/A -   "
5.11, 189.5416, 0.008616261, NaN, NaN, NaN, 0.0372337, "- N/A -   "
5.12, 189.895, 0.008635698, NaN, NaN, NaN, 0.03601294, "- N/A -   "
5.13, 190.367, 0.00865514, NaN, NaN, NaN, 0.0347922, "- N/A -   "
5.14, 190.721, 0.008674573, NaN, NaN, NaN, 0.0335714, "- N/A -   "
5.15, 191.075, 0.00869401, NaN, NaN, NaN, 0.0335714, "- N/A -   "
5.16, 191.311, 0.008710671, NaN, NaN, NaN, 0.0323506, "- N/A -   "
5.17, 191.665, 0.008730108, NaN, NaN, NaN, 0.03112983, "- N/A -   "
5.18, 192.136, 0.008749546, NaN, NaN, NaN, 0.0299091, "- N/A -   "
5.19, 192.254, 0.008766206, NaN, NaN, NaN, 0.0299091, "- N/A -   "
5.2, 192.726, 0.008785644, NaN, NaN, NaN, 0.0286883, "- N/A -   "
5.21, 193.08, 0.008802303, NaN, NaN, NaN, 0.0286883, "- N/A -   "
5.22, 193.3159, 0.008818964, NaN, NaN, NaN, 0.0286883, "- N/A -   "
5.23, 193.5518, 0.008832848, NaN, NaN, NaN, 0.0299091, "- N/A -   "
5.24, 193.7877, 0.008846732, NaN, NaN, NaN, 0.03112983, "- N/A -   "
5.25, 194.142, 0.008863391, NaN, NaN, NaN, 0.03112983, "- N/A -   "
5.26, 194.495, 0.008880052, NaN, NaN, NaN, 0.03112983, "- N/A -   "
5.27, 194.849, 0.008896713, NaN, NaN, NaN, 0.0323506, "- N/A -   "
5.28, 195.085, 0.008913374, NaN, NaN, NaN, 0.0323506, "- N/A -   "
5.29, 195.321, 0.008930034, NaN, NaN, NaN, 0.0323506, "- N/A -   "
5.3, 195.675, 0.008943918, NaN, NaN, NaN, 0.0323506, "- N/A -   "
5.31, 195.911, 0.008957801, NaN, NaN, NaN, 0.0335714, "- N/A -   "
5.32, 196.265, 0.008974462, NaN, NaN, NaN, 0.0335714, "- N/A -   "
5.33, 196.618, 0.008988346, NaN, NaN, NaN, 0.0347922, "- N/A -   "
5.34, 196.854, 0.009005006, NaN, NaN, NaN, 0.0347922, "- N/A -   "
5.35, 197.208, 0.009021668, NaN, NaN, NaN, 0.0347922, "- N/A -   "
5.36, 197.562, 0.009041104, NaN, NaN, NaN, 0.0347922, "- N/A -   "
5.37, 197.798, 0.009057764, NaN, NaN, NaN, 0.0335714, "- N/A -   "
5.38, 198.27, 0.009074425, NaN, NaN, NaN, 0.0335714, "- N/A -   "
5.39, 198.506, 0.009091086, NaN, NaN, NaN, 0.0335714, "- N/A -   "
5.4, 198.859, 0.009107746, NaN, NaN, NaN, 0.0335714, "- N/A -   "
5.41, 199.095, 0.009124407, NaN, NaN, NaN, 0.0335714, "- N/A -   "
5.42, 199.449, 0.009141068, NaN, NaN, NaN, 0.0335714, "- N/A -   "
5.43, 199.803, 0.00915773, NaN, NaN, NaN, 0.0335714, "- N/A -   "
5.44, 200.039, 0.009177165, NaN, NaN, NaN, 0.0335714, "- N/A -   "
5.45, 200.393, 0.009193826, NaN, NaN, NaN, 0.0323506, "- N/A -   "
5.46, 200.629, 0.009210486, NaN, NaN, NaN, 0.0335714, "- N/A -   "
5.47, 200.9825, 0.00922437, NaN, NaN, NaN, 0.0335714, "- N/A -   "
5.48, 201.336, 0.00924103, NaN, NaN, NaN, 0.0335714, "- N/A -   "
5.49, 201.572, 0.00925769, NaN, NaN, NaN, 0.0347922, "- N/A -   "
5.5, 201.926, 0.009274351, NaN, NaN, NaN, 0.0347922, "- N/A -   "
5.51, 202.28, 0.009288236, NaN, NaN, NaN, 0.0347922, "- N/A -   "
5.52, 202.516, 0.009304896, NaN, NaN, NaN, 0.0347922, "- N/A -   "
5.53, 202.7517, 0.009321556, NaN, NaN, NaN, 0.03601294, "- N/A -   "
5.54, 203.106, 0.009332663, NaN, NaN, NaN, 0.0372337, "- N/A -   "
5.55, 203.2235, 0.009346547, NaN, NaN, NaN, 0.0384545, "- N/A -   "
5.56, 203.459, 0.009363208, NaN, NaN, NaN, 0.0384545, "- N/A -   "
5.57, 203.695, 0.009377091, NaN, NaN, NaN, 0.0396753, "- N/A -   "
5.58, 204.049, 0.009390974, NaN, NaN, NaN, 0.04089605, "- N/A -   "
5.59, 204.285, 0.009407636, NaN, NaN, NaN, 0.04089605, "- N/A -   "
5.6, 204.521, 0.00942152, NaN, NaN, NaN, 0.04211683, "- N/A -   "
5.61, 204.875, 0.009438179, NaN, NaN, NaN, 0.04211683, "- N/A -   "
5.62, 205.2286, 0.00945484, NaN, NaN, NaN, 0.04211683, "- N/A -   "
5.63, 205.347, 0.009468724, NaN, NaN, NaN, 0.0433376, "- N/A -   "
5.64, 205.818, 0.009488162, NaN, NaN, NaN, 0.0433376, "- N/A -   "
5.65, 206.172, 0.009504822, NaN, NaN, NaN, 0.0433376, "- N/A -   "
5.66, 206.408, 0.009524259, NaN, NaN, NaN, 0.04211683, "- N/A -   "
5.67, 206.762, 0.00954092, NaN, NaN, NaN, 0.04089605, "- N/A -   "
5.68, 207.116, 0.009560356, NaN, NaN, NaN, 0.04089605, "- N/A -   "
5.69, 207.4696, 0.009577017, NaN, NaN, NaN, 0.0396753, "- N/A -   "
5.7, 207.823, 0.0095909, NaN, NaN, NaN, 0.04089605, "- N/A -   "
5.71, 208.059, 0.009607562, NaN, NaN, NaN, 0.04089605, "- N/A -   "
5.72, 208.295, 0.009624222, NaN, NaN, NaN, 0.04089605, "- N/A -   "
5.73, 208.531, 0.00964366, NaN, NaN, NaN, 0.04089605, "- N/A -   "
5.74, 208.885, 0.009657542, NaN, NaN, NaN, 0.04089605, "- N/A -   "
5.75, 209.239, 0.00967698, NaN, NaN, NaN, 0.04089605, "- N/A -   "
5.76, 209.593, 0.009693641, NaN, NaN, NaN, 0.04089605, "- N/A -   "
5.77, 209.946, 0.009710302, NaN, NaN, NaN, 0.0396753, "- N/A -   "
5.78, 210.3, 0.009729738, NaN, NaN, NaN, 0.0396753, "- N/A -   "
5.79, 210.536, 0.0097464, NaN, NaN, NaN, 0.0384545, "- N/A -   "
5.8, 210.89, 0.00976306, NaN, NaN, NaN, 0.0384545, "- N/A -   "
5.81, 211.244, 0.009779721, NaN, NaN, NaN, 0.0384545, "- N/A -   "
5.82, 211.48, 0.009799158, NaN, NaN, NaN, 0.0372337, "- N/A -   "
5.83, 211.834, 0.009815818, NaN, NaN, NaN, 0.0384545, "- N/A -   "
5.84, 212.1875, 0.009832478, NaN, NaN, NaN, 0.0384545, "- N/A -   "
5.85, 212.541, 0.00984914, NaN, NaN, NaN, 0.0384545, "- N/A -   "
5.86, 212.777, 0.009863023, NaN, NaN, NaN, 0.0384545, "- N/A -   "
5.87, 213.013, 0.009879684, NaN, NaN, NaN, 0.0384545, "- N/A -   "
5.88, 213.367, 0.009896344, NaN, NaN, NaN, 0.0384545, "- N/A -   "
5.89, 213.721, 0.009913004, NaN, NaN, NaN, 0.0384545, "- N/A -   "
5.9, 214.075, 0.009929664, NaN, NaN, NaN, 0.0396753, "- N/A -   "
5.91, 214.1926, 0.009946326, NaN, NaN, NaN, 0.0384545, "- N/A -   "
5.92, 214.546, 0.009962986, NaN, NaN, NaN, 0.0384545, "- N/A -   "
5.93, 214.9, 0.009979647, NaN, NaN, NaN, 0.0384545, "- N/A -   "
5.94, 215.254, 0.009999084, NaN, NaN, NaN, 0.0384545, "- N/A -   "
5.95, 215.49, 0.0100157, NaN, NaN, NaN, 0.0384545, "- N/A -   "
5.96, 215.962, 0.0100352, NaN, NaN, NaN, 0.03601294, "- N/A -   "
[...]
31.21, 1219.31, 0.0521446, NaN, NaN, NaN, 0.0262467, "- N/A -   "
31.23, 1220.26, 0.0521807, NaN, NaN, NaN, 0.0238052, "- N/A -   "
31.25, 1221.09, 0.05221404, NaN, NaN, NaN, 0.0238052, "- N/A -   "
31.27, 1221.93, 0.0522446, NaN, NaN, NaN, 0.0250259, "- N/A -   "
31.29, 1222.76, 0.05227791, NaN, NaN, NaN, 0.0250259, "- N/A -   "
31.31, 1223.599, 0.05230845, NaN, NaN, NaN, 0.0262467, "- N/A -   "
31.33, 1224.553, 0.052339, NaN, NaN, NaN, 0.0286883, "- N/A -   "
31.35, 1225.27, 0.0523668, NaN, NaN, NaN, 0.0299091, "- N/A -   "
31.37, 1226.1, 0.0524001, NaN, NaN, NaN, 0.0299091, "- N/A -   "
31.39, 1226.938, 0.0524334, NaN, NaN, NaN, 0.0299091, "- N/A -   "
31.41, 1227.77, 0.0524612, NaN, NaN, NaN, 0.0323506, "- N/A -   "
31.43, 1228.61, 0.05249172, NaN, NaN, NaN, 0.0335714, "- N/A -   "
31.45, 1229.44, 0.0525223, NaN, NaN, NaN, 0.0347922, "- N/A -   "
31.47, 1230.16, 0.05255003, NaN, NaN, NaN, 0.0372337, "- N/A -   "
31.49, 1230.87, 0.0525778, NaN, NaN, NaN, 0.04089605, "- N/A -   "
31.51, 1231.59, 0.0526056, NaN, NaN, NaN, 0.0433376, "- N/A -   "
31.53, 1232.3, 0.0526333, NaN, NaN, NaN, 0.0445584, "- N/A -   "
31.55, 1233.02, 0.0526639, NaN, NaN, NaN, 0.04577916, "- N/A -   "
31.57, 1234.09, 0.0526972, NaN, NaN, NaN, 0.04577916, "- N/A -   "
31.59, 1235.17, 0.0527333, NaN, NaN, NaN, 0.0445584, "- N/A -   "
31.61, 1236.12, 0.0527666, NaN, NaN, NaN, 0.0445584, "- N/A -   "
31.63, 1236.96, 0.0527999, NaN, NaN, NaN, 0.04577916, "- N/A -   "
31.65, 1237.91, 0.0528305, NaN, NaN, NaN, 0.04577916, "- N/A -   "
31.67, 1238.86, 0.0528666, NaN, NaN, NaN, 0.0445584, "- N/A -   "
31.69, 1239.698, 0.0529027, NaN, NaN, NaN, 0.0445584, "- N/A -   "
31.71, 1240.77, 0.052936, NaN, NaN, NaN, 0.0433376, "- N/A -   "
31.73, 1241.73, 0.0529721, NaN, NaN, NaN, 0.04211683, "- N/A -   "
31.75, 1242.8, 0.0530082, NaN, NaN, NaN, 0.04211683, "- N/A -   "
31.77, 1243.75, 0.05304429, NaN, NaN, NaN, 0.0396753, "- N/A -   "
31.79, 1244.95, 0.05308594, NaN, NaN, NaN, 0.03601294, "- N/A -   "
31.81, 1246.02, 0.05312482, NaN, NaN, NaN, 0.0335714, "- N/A -   "
31.83, 1247.09, 0.0531637, NaN, NaN, NaN, 0.03112983, "- N/A -   "
31.85, 1248.28, 0.05319979, NaN, NaN, NaN, 0.0299091, "- N/A -   "
31.87, 1248.88, 0.0532303, NaN, NaN, NaN, 0.03112983, "- N/A -   "
31.89, 1249.83, 0.0532637, NaN, NaN, NaN, 0.03112983, "- N/A -   "
31.91, 1250.79, 0.053297, NaN, NaN, NaN, 0.03112983, "- N/A -   "
31.93, 1251.62, 0.0533275, NaN, NaN, NaN, 0.0323506, "- N/A -   "
31.95, 1252.34, 0.0533608, NaN, NaN, NaN, 0.0335714, "- N/A -   "
31.97, 1253.17, 0.0533886, NaN, NaN, NaN, 0.0347922, "- N/A -   "
31.99, 1254.01, 0.05341915, NaN, NaN, NaN, 0.03601294, "- N/A -   "
32.01, 1254.96, 0.0534525, NaN, NaN, NaN, 0.0372337, "- N/A -   "
32.03, 1255.92, 0.05348302, NaN, NaN, NaN, 0.0372337, "- N/A -   "
32.05, 1256.63, 0.05351356, NaN, NaN, NaN, 0.0384545, "- N/A -   "
32.07, 1257.59, 0.05354966, NaN, NaN, NaN, 0.0384545, "- N/A -   "
32.09, 1258.54, 0.05358298, NaN, NaN, NaN, 0.0372337, "- N/A -   "
32.11, 1259.37, 0.0536163, NaN, NaN, NaN, 0.0372337, "- N/A -   "
32.13, 1260.45, 0.0536496, NaN, NaN, NaN, 0.0372337, "- N/A -   "
32.15, 1261.28, 0.0536829, NaN, NaN, NaN, 0.0372337, "- N/A -   "
32.17, 1262.24, 0.05371627, NaN, NaN, NaN, 0.0372337, "- N/A -   "
32.19, 1263.19, 0.0537496, NaN, NaN, NaN, 0.0372337, "- N/A -   "
32.21, 1263.91, 0.0537774, NaN, NaN, NaN, 0.0396753, "- N/A -   "
32.23, 1264.62, 0.0538051, NaN, NaN, NaN, 0.04211683, "- N/A -   "
32.25, 1265.46, 0.0538357, NaN, NaN, NaN, 0.0445584, "- N/A -   "
32.27, 1266.41, 0.0538662, NaN, NaN, NaN, 0.0445584, "- N/A -   "
32.29, 1267.25, 0.05389953, NaN, NaN, NaN, 0.04577916, "- N/A -   "
32.31, 1268.08, 0.0539301, NaN, NaN, NaN, 0.04577916, "- N/A -   "
32.33, 1268.91, 0.0539634, NaN, NaN, NaN, 0.04699994, "- N/A -   "
32.35, 1269.99, 0.05399672, NaN, NaN, NaN, 0.04577916, "- N/A -   "
32.37, 1271.06, 0.0540356, NaN, NaN, NaN, 0.0433376, "- N/A -   "
32.39, 1272.25, 0.05407724, NaN, NaN, NaN, 0.0396753, "- N/A -   "
32.41, 1273.327, 0.0541189, NaN, NaN, NaN, 0.0372337, "- N/A -   "
32.43, 1274.52, 0.0541605, NaN, NaN, NaN, 0.0335714, "- N/A -   "
32.45, 1275.59, 0.0541994, NaN, NaN, NaN, 0.0299091, "- N/A -   "
32.47, 1276.67, 0.0542355, NaN, NaN, NaN, 0.0299091, "- N/A -   "
32.49, 1277.74, 0.0542716, NaN, NaN, NaN, 0.0274675, "- N/A -   "
32.51, 1278.57, 0.05430494, NaN, NaN, NaN, 0.0274675, "- N/A -   "
32.53, 1279.41, 0.0543355, NaN, NaN, NaN, 0.0286883, "- N/A -   "
32.55, 1280.12, 0.054366, NaN, NaN, NaN, 0.03112983, "- N/A -   "
32.57, 1281.08, 0.0543966, NaN, NaN, NaN, 0.0323506, "- N/A -   "
32.59, 1281.794, 0.0544271, NaN, NaN, NaN, 0.0323506, "- N/A -   "
32.61, 1282.75, 0.0544604, NaN, NaN, NaN, 0.0323506, "- N/A -   "
32.63, 1283.82, 0.0544965, NaN, NaN, NaN, 0.0323506, "- N/A -   "
32.65, 1284.656, 0.0545299, NaN, NaN, NaN, 0.0323506, "- N/A -   "
32.67, 1285.61, 0.0545632, NaN, NaN, NaN, 0.0323506, "- N/A -   "
32.69, 1286.44, 0.0545965, NaN, NaN, NaN, 0.03112983, "- N/A -   "
32.71, 1287.52, 0.0546298, NaN, NaN, NaN, 0.03112983, "- N/A -   "
32.73, 1288.23, 0.05466036, NaN, NaN, NaN, 0.0323506, "- N/A -   "
32.75, 1289.07, 0.0546937, NaN, NaN, NaN, 0.0335714, "- N/A -   "
32.77, 1290.02, 0.0547242, NaN, NaN, NaN, 0.0335714, "- N/A -   "
32.79, 1290.857, 0.0547575, NaN, NaN, NaN, 0.0347922, "- N/A -   "
32.81, 1291.811, 0.05478532, NaN, NaN, NaN, 0.03601294, "- N/A -   "
32.83, 1292.65, 0.0548186, NaN, NaN, NaN, 0.0372337, "- N/A -   "
32.85, 1293.48, 0.05484918, NaN, NaN, NaN, 0.0372337, "- N/A -   "
32.87, 1294.08, 0.0548797, NaN, NaN, NaN, 0.0384545, "- N/A -   "
32.89, 1295.03, 0.0549103, NaN, NaN, NaN, 0.0396753, "- N/A -   "
32.91, 1295.87, 0.0549408, NaN, NaN, NaN, 0.04089605, "- N/A -   "
32.93, 1296.7, 0.0549741, NaN, NaN, NaN, 0.04089605, "- N/A -   "
32.95, 1297.65, 0.0550102, NaN, NaN, NaN, 0.04089605, "- N/A -   "
32.97, 1298.61, 0.0550436, NaN, NaN, NaN, 0.0396753, "- N/A -   "
32.99, 1299.56, 0.0550741, NaN, NaN, NaN, 0.04089605, "- N/A -   "
33.01, 1300.52, 0.0551074, NaN, NaN, NaN, 0.04089605, "- N/A -   "
33.03, 1301.47, 0.05514074, NaN, NaN, NaN, 0.04089605, "- N/A -   "
33.05, 1302.42, 0.05517961, NaN, NaN, NaN, 0.0396753, "- N/A -   "
33.07, 1303.26, 0.0552129, NaN, NaN, NaN, 0.0384545, "- N/A -   "
33.09, 1304.45, 0.0552463, NaN, NaN, NaN, 0.0384545, "- N/A -   "
33.11, 1305.29, 0.05527958, NaN, NaN, NaN, 0.0384545, "- N/A -   "
33.13, 1306.24, 0.0553157, NaN, NaN, NaN, 0.0372337, "- N/A -   "
33.15, 1307.19, 0.055349, NaN, NaN, NaN, 0.0372337, "- N/A -   "
33.17, 1308.15, 0.0553851, NaN, NaN, NaN, 0.0372337, "- N/A -   "
33.19, 1309.1, 0.0554184, NaN, NaN, NaN, 0.03601294, "- N/A -   "
33.21, 1310.06, 0.05545451, NaN, NaN, NaN, 0.0347922, "- N/A -   "
33.23, 1311.13, 0.05549061, NaN, NaN, NaN, 0.0347922, "- N/A -   "
33.25, 1311.85, 0.0555239, NaN, NaN, NaN, 0.0335714, "- N/A -   "
33.27, 1312.92, 0.05555725, NaN, NaN, NaN, 0.0335714, "- N/A -   "
33.29, 1313.87, 0.05559335, NaN, NaN, NaN, 0.0335714, "- N/A -   "
33.31, 1314.83, 0.0556267, NaN, NaN, NaN, 0.0323506, "- N/A -   "
33.33, 1315.66, 0.05565999, NaN, NaN, NaN, 0.0335714, "- N/A -   "
33.35, 1316.62, 0.05569054, NaN, NaN, NaN, 0.0335714, "- N/A -   "
33.37, 1317.45, 0.0557239, NaN, NaN, NaN, 0.0335714, "- N/A -   "
33.39, 1318.29, 0.0557544, NaN, NaN, NaN, 0.0347922, "- N/A -   "
33.41, 1319.12, 0.0557905, NaN, NaN, NaN, 0.0335714, "- N/A -   "
33.43, 1320.07, 0.0558238, NaN, NaN, NaN, 0.0347922, "- N/A -   "
33.45, 1321.03, 0.05585436, NaN, NaN, NaN, 0.0347922, "- N/A -   "
33.47, 1321.86, 0.05589046, NaN, NaN, NaN, 0.0347922, "- N/A -   "
33.49, 1322.82, 0.0559238, NaN, NaN, NaN, 0.0335714, "- N/A -   "
33.51, 1323.89, 0.0559571, NaN, NaN, NaN, 0.0335714, "- N/A -   "
33.53, 1324.49, 0.05598765, NaN, NaN, NaN, 0.0347922, "- N/A -   "
33.55, 1325.32, 0.0560154, NaN, NaN, NaN, 0.0372337, "- N/A -   "
33.57, 1326.16, 0.05604596, NaN, NaN, NaN, 0.0384545, "- N/A -   "
33.59, 1326.87, 0.05607373, NaN, NaN, NaN, 0.04089605, "- N/A -   "
33.61, 1327.71, 0.05610427, NaN, NaN, NaN, 0.04211683, "- N/A -   "
33.63, 1328.54, 0.0561348, NaN, NaN, NaN, 0.0433376, "- N/A -   "
33.65, 1329.49, 0.05616814, NaN, NaN, NaN, 0.0433376, "- N/A -   "
33.67, 1330.45, 0.0562015, NaN, NaN, NaN, 0.0433376, "- N/A -   "
33.69, 1331.4, 0.056232, NaN, NaN, NaN, 0.0445584, "- N/A -   "
33.71, 1332.12, 0.05626532, NaN, NaN, NaN, 0.0445584, "- N/A -   "
33.73, 1333.07, 0.0562986, NaN, NaN, NaN, 0.04577916, "- N/A -   "
33.75, 1334.15, 0.056332, NaN, NaN, NaN, 0.0445584, "- N/A -   "
33.77, 1335.1, 0.05636806, NaN, NaN, NaN, 0.0445584, "- N/A -   "
33.79, 1336.17, 0.05640416, NaN, NaN, NaN, 0.04211683, "- N/A -   "
33.81, 1337.25, 0.056443, NaN, NaN, NaN, 0.0396753, "- N/A -   "
33.83, 1338.44, 0.0564847, NaN, NaN, NaN, 0.03601294, "- N/A -   "
33.85, 1339.51, 0.05652356, NaN, NaN, NaN, 0.0335714, "- N/A -   "
33.87, 1340.466, 0.05656244, NaN, NaN, NaN, 0.0323506, "- N/A -   "
33.89, 1341.54, 0.0565985, NaN, NaN, NaN, 0.0299091, "- N/A -   "
33.91, 1342.49, 0.05663463, NaN, NaN, NaN, 0.0299091, "- N/A -   "
33.93, 1343.328, 0.05666518, NaN, NaN, NaN, 0.0299091, "- N/A -   "
33.95, 1344.04, 0.05669572, NaN, NaN, NaN, 0.03112983, "- N/A -   "
33.97, 1345, 0.0567318, NaN, NaN, NaN, 0.0299091, "- N/A -   "
33.99, 1345.95, 0.0567679, NaN, NaN, NaN, 0.0299091, "- N/A -   "
34.01, 1347.02, 0.0568012, NaN, NaN, NaN, 0.0286883, "- N/A -   "
34.03, 1347.98, 0.0568373, NaN, NaN, NaN, 0.0274675, "- N/A -   "
34.05, 1348.93, 0.0568707, NaN, NaN, NaN, 0.0274675, "- N/A -   "
34.07, 1349.89, 0.0569068, NaN, NaN, NaN, 0.0262467, "- N/A -   "
34.09, 1350.84, 0.05694007, NaN, NaN, NaN, 0.0262467, "- N/A -   "
34.11, 1351.56, 0.0569678, NaN, NaN, NaN, 0.0286883, "- N/A -   "
34.13, 1352.39, 0.0569984, NaN, NaN, NaN, 0.0299091, "- N/A -   "
34.15, 1353.226, 0.0570317, NaN, NaN, NaN, 0.03112983, "- N/A -   "
34.17, 1354.06, 0.0570595, NaN, NaN, NaN, 0.0323506, "- N/A -   "
34.19, 1355.01, 0.05709, NaN, NaN, NaN, 0.0335714, "- N/A -   "
34.21, 1355.85, 0.05712334, NaN, NaN, NaN, 0.0335714, "- N/A -   "
34.23, 1356.565, 0.0571511, NaN, NaN, NaN, 0.03601294, "- N/A -   "
34.25, 1357.28, 0.0571817, NaN, NaN, NaN, 0.0384545, "- N/A -   "
34.27, 1358.12, 0.0572066, NaN, NaN, NaN, 0.04089605, "- N/A -   "
34.29, 1358.83, 0.05723719, NaN, NaN, NaN, 0.04211683, "- N/A -   "
34.31, 1359.67, 0.0572677, NaN, NaN, NaN, 0.0433376, "- N/A -   "
34.33, 1360.5, 0.0572955, NaN, NaN, NaN, 0.04577916, "- N/A -   "
34.35, 1361.22, 0.057326, NaN, NaN, NaN, 0.0482207, "- N/A -   "
34.37, 1362.17, 0.05735659, NaN, NaN, NaN, 0.0482207, "- N/A -   "
34.39, 1363.12, 0.0573927, NaN, NaN, NaN, 0.0482207, "- N/A -   "
34.41, 1364.08, 0.0574288, NaN, NaN, NaN, 0.04699994, "- N/A -   "
34.43, 1365.15, 0.0574677, NaN, NaN, NaN, 0.0445584, "- N/A -   "
34.45, 1366.22, 0.0575038, NaN, NaN, NaN, 0.04211683, "- N/A -   "
34.47, 1367.3, 0.0575426, NaN, NaN, NaN, 0.0396753, "- N/A -   "
34.49, 1368.37, 0.0575787, NaN, NaN, NaN, 0.0384545, "- N/A -   "
34.51, 1369.32, 0.0576176, NaN, NaN, NaN, 0.03601294, "- N/A -   "
34.53, 1370.4, 0.0576537, NaN, NaN, NaN, 0.0347922, "- N/A -   "
34.55, 1371.35, 0.0576898, NaN, NaN, NaN, 0.0335714, "- N/A -   "
34.57, 1372.31, 0.0577259, NaN, NaN, NaN, 0.0335714, "- N/A -   "
34.59, 1373.26, 0.0577592, NaN, NaN, NaN, 0.0323506, "- N/A -   "
34.61, 1374.21, 0.0577953, NaN, NaN, NaN, 0.0323506, "- N/A -   "
34.63, 1375.29, 0.05783141, NaN, NaN, NaN, 0.0299091, "- N/A -   "
34.65, 1376.24, 0.05786751, NaN, NaN, NaN, 0.0299091, "- N/A -   "
34.67, 1377.08, 0.05790083, NaN, NaN, NaN, 0.0299091, "- N/A -   "
34.69, 1378.03, 0.05793415, NaN, NaN, NaN, 0.0299091, "- N/A -   "
34.71, 1378.865, 0.0579647, NaN, NaN, NaN, 0.0299091, "- N/A -   "
34.73, 1379.94, 0.0580008, NaN, NaN, NaN, 0.0299091, "- N/A -   "
34.75, 1380.89, 0.0580341, NaN, NaN, NaN, 0.0286883, "- N/A -   "
34.77, 1381.61, 0.0580674, NaN, NaN, NaN, 0.0299091, "- N/A -   "
34.79, 1382.44, 0.05809798, NaN, NaN, NaN, 0.0299091, "- N/A -   "
34.81, 1383.28, 0.05812852, NaN, NaN, NaN, 0.0323506, "- N/A -   "
34.83, 1384.11, 0.05815907, NaN, NaN, NaN, 0.0335714, "- N/A -   "
34.85, 1385.19, 0.05819239, NaN, NaN, NaN, 0.0323506, "- N/A -   "
34.87, 1385.78, 0.0582202, NaN, NaN, NaN, 0.0347922, "- N/A -   "
34.89, 1386.5, 0.0582479, NaN, NaN, NaN, 0.0372337, "- N/A -   "
34.91, 1387.21, 0.0582757, NaN, NaN, NaN, 0.0396753, "- N/A -   "
34.93, 1387.93, 0.05830346, NaN, NaN, NaN, 0.04211683, "- N/A -   "
34.95, 1388.763, 0.0583312, NaN, NaN, NaN, 0.0445584, "- N/A -   "
34.97, 1389.6, 0.0583645, NaN, NaN, NaN, 0.0445584, "- N/A -   "
34.99, 1390.55, 0.0583979, NaN, NaN, NaN, 0.0445584, "- N/A -   "
35.01, 1391.51, 0.058434, NaN, NaN, NaN, 0.0433376, "- N/A -   "
35.03, 1392.579, 0.0584673, NaN, NaN, NaN, 0.0433376, "- N/A -   "
35.05, 1393.29, 0.0585006, NaN, NaN, NaN, 0.0433376, "- N/A -   "
35.07, 1394.37, 0.0585367, NaN, NaN, NaN, 0.04211683, "- N/A -   "
35.09, 1395.32, 0.0585728, NaN, NaN, NaN, 0.04089605, "- N/A -   "
35.11, 1396.28, 0.05860613, NaN, NaN, NaN, 0.04211683, "- N/A -   "
35.13, 1397.23, 0.0586394, NaN, NaN, NaN, 0.04089605, "- N/A -   "
35.15, 1398.18, 0.0586728, NaN, NaN, NaN, 0.04089605, "- N/A -   "
35.17, 1399.14, 0.0587089, NaN, NaN, NaN, 0.0396753, "- N/A -   "
35.19, 1400.09, 0.058745, NaN, NaN, NaN, 0.0384545, "- N/A -   "
35.21, 1401.28, 0.05878939, NaN, NaN, NaN, 0.0347922, "- N/A -   "
35.23, 1402.48, 0.0588283, NaN, NaN, NaN, 0.03112983, "- N/A -   "
35.25, 1403.431, 0.05886714, NaN, NaN, NaN, 0.0286883, "- N/A -   "
35.27, 1404.5, 0.05890324, NaN, NaN, NaN, 0.0274675, "- N/A -   "
35.29, 1405.46, 0.05893656, NaN, NaN, NaN, 0.0274675, "- N/A -   "
35.31, 1406.293, 0.0589699, NaN, NaN, NaN, 0.0286883, "- N/A -   "
35.33, 1407.37, 0.0590032, NaN, NaN, NaN, 0.0286883, "- N/A -   "
35.35, 1408.2, 0.05903652, NaN, NaN, NaN, 0.0286883, "- N/A -   "
35.37, 1409.155, 0.0590726, NaN, NaN, NaN, 0.0274675, "- N/A -   "
35.39, 1410.109, 0.0591032, NaN, NaN, NaN, 0.0286883, "- N/A -   "
35.41, 1410.94, 0.05913371, NaN, NaN, NaN, 0.0299091, "- N/A -   "
35.43, 1411.78, 0.0591643, NaN, NaN, NaN, 0.03112983, "- N/A -   "
35.45, 1412.49, 0.0591948, NaN, NaN, NaN, 0.0323506, "- N/A -   "
35.47, 1413.33, 0.0592226, NaN, NaN, NaN, 0.0347922, "- N/A -   "
35.49, 1414.04, 0.0592531, NaN, NaN, NaN, 0.03601294, "- N/A -   "
35.51, 1414.88, 0.05928365, NaN, NaN, NaN, 0.0384545, "- N/A -   "
35.53, 1415.83, 0.059317, NaN, NaN, NaN, 0.0372337, "- N/A -   "
35.55, 1416.91, 0.0593531, NaN, NaN, NaN, 0.0372337, "- N/A -   "
35.57, 1417.74, 0.0593892, NaN, NaN, NaN, 0.03601294, "- N/A -   "
35.59, 1418.58, 0.05941694, NaN, NaN, NaN, 0.0372337, "- N/A -   "
35.61, 1419.41, 0.0594447, NaN, NaN, NaN, 0.0396753, "- N/A -   "
35.63, 1420.13, 0.05947525, NaN, NaN, NaN, 0.04089605, "- N/A -   "
35.65, 1420.84, 0.0595058, NaN, NaN, NaN, 0.04211683, "- N/A -   "
35.67, 1421.8, 0.0595363, NaN, NaN, NaN, 0.0433376, "- N/A -   "
35.69, 1422.51, 0.0595669, NaN, NaN, NaN, 0.0445584, "- N/A -   "
35.71, 1423.35, 0.05959465, NaN, NaN, NaN, 0.04699994, "- N/A -   "
35.73, 1424.18, 0.05962797, NaN, NaN, NaN, 0.04699994, "- N/A -   "
35.75, 1425.25, 0.05966129, NaN, NaN, NaN, 0.04699994, "- N/A -   "
35.77, 1426.33, 0.0597002, NaN, NaN, NaN, 0.0445584, "- N/A -   "
35.79, 1427.28, 0.0597363, NaN, NaN, NaN, 0.0433376, "- N/A -   "
35.81, 1428.593, 0.0597779, NaN, NaN, NaN, 0.04089605, "- N/A -   "
35.83, 1429.55, 0.059814, NaN, NaN, NaN, 0.0384545, "- N/A -   "
35.85, 1430.5, 0.0598529, NaN, NaN, NaN, 0.0372337, "- N/A -   "
35.87, 1431.46, 0.05988898, NaN, NaN, NaN, 0.03601294, "- N/A -   "
35.89, 1432.41, 0.0599223, NaN, NaN, NaN, 0.0347922, "- N/A -   "
35.91, 1433.48, 0.0599584, NaN, NaN, NaN, 0.0347922, "- N/A -   "
35.93, 1434.44, 0.05998895, NaN, NaN, NaN, 0.0347922, "- N/A -   "
35.95, 1435.15, 0.0600195, NaN, NaN, NaN, 0.03601294, "- N/A -   "
35.97, 1435.87, 0.0600528, NaN, NaN, NaN, 0.0372337, "- N/A -   "
35.99, 1436.82, 0.0600834, NaN, NaN, NaN, 0.0372337, "- N/A -   "
36.01, 1437.66, 0.0601139, NaN, NaN, NaN, 0.0384545, "- N/A -   "
36.03, 1438.61, 0.0601472, NaN, NaN, NaN, 0.0384545, "- N/A -   "
36.05, 1439.45, 0.0601805, NaN, NaN, NaN, 0.0396753, "- N/A -   "
36.07, 1440.28, 0.0602139, NaN, NaN, NaN, 0.0396753, "- N/A -   "
36.09, 1441.47, 0.06025, NaN, NaN, NaN, 0.0384545, "- N/A -   "
36.11, 1442.43, 0.06028606, NaN, NaN, NaN, 0.03601294, "- N/A -   "
36.13, 1443.5, 0.0603222, NaN, NaN, NaN, 0.0347922, "- N/A -   "
36.15, 1444.57, 0.060361, NaN, NaN, NaN, 0.0335714, "- N/A -   "
36.17, 1445.41, 0.0603944, NaN, NaN, NaN, 0.0335714, "- N/A -   "
36.19, 1446.24, 0.0604249, NaN, NaN, NaN, 0.0335714, "- N/A -   "
36.21, 1447.08, 0.06045544, NaN, NaN, NaN, 0.0347922, "- N/A -   "
36.23, 1447.91, 0.0604888, NaN, NaN, NaN, 0.0347922, "- N/A -   "
36.25, 1448.75, 0.0605193, NaN, NaN, NaN, 0.03601294, "- N/A -   "
36.27, 1449.46, 0.06054985, NaN, NaN, NaN, 0.0372337, "- N/A -   "
36.29, 1450.297, 0.06057762, NaN, NaN, NaN, 0.0396753, "- N/A -   "
36.31, 1451.01, 0.0606054, NaN, NaN, NaN, 0.04211683, "- N/A -   "
36.33, 1451.97, 0.0606387, NaN, NaN, NaN, 0.04211683, "- N/A -   "
36.35, 1452.92, 0.0606748, NaN, NaN, NaN, 0.04211683, "- N/A -   "
36.37, 1453.99, 0.0607109, NaN, NaN, NaN, 0.04089605, "- N/A -   "
36.39, 1454.95, 0.0607442, NaN, NaN, NaN, 0.0396753, "- N/A -   "
36.41, 1455.9, 0.0607775, NaN, NaN, NaN, 0.0396753, "- N/A -   "
36.43, 1456.74, 0.0608109, NaN, NaN, NaN, 0.0396753, "- N/A -   "
36.45, 1457.81, 0.06084419, NaN, NaN, NaN, 0.0396753, "- N/A -   "
36.47, 1458.53, 0.06088029, NaN, NaN, NaN, 0.0396753, "- N/A -   "
36.49, 1459.72, 0.0609164, NaN, NaN, NaN, 0.0372337, "- N/A -   "
36.51, 1460.67, 0.0609525, NaN, NaN, NaN, 0.03601294, "- N/A -   "
36.53, 1461.626, 0.0609858, NaN, NaN, NaN, 0.03601294, "- N/A -   "
36.55, 1462.46, 0.0610191, NaN, NaN, NaN, 0.03601294, "- N/A -   "
36.57, 1463.41, 0.0610524, NaN, NaN, NaN, 0.0372337, "- N/A -   "
36.59, 1464.25, 0.0610858, NaN, NaN, NaN, 0.03601294, "- N/A -   "
36.61, 1465.08, 0.0611191, NaN, NaN, NaN, 0.0372337, "- N/A -   "
36.63, 1466.04, 0.0611524, NaN, NaN, NaN, 0.03601294, "- N/A -   "
36.65, 1466.99, 0.0611885, NaN, NaN, NaN, 0.03601294, "- N/A -   "
36.67, 1468.07, 0.0612218, NaN, NaN, NaN, 0.0347922, "- N/A -   "
36.69, 1469.02, 0.06125792, NaN, NaN, NaN, 0.0335714, "- N/A -   "
36.71, 1469.97, 0.06129402, NaN, NaN, NaN, 0.0323506, "- N/A -   "
36.73, 1470.93, 0.0613273, NaN, NaN, NaN, 0.0323506, "- N/A -   "
36.75, 1472, 0.0613634, NaN, NaN, NaN, 0.03112983, "- N/A -   "
36.77, 1472.95, 0.0613995, NaN, NaN, NaN, 0.03112983, "- N/A -   "
36.79, 1473.79, 0.0614301, NaN, NaN, NaN, 0.03112983, "- N/A -   "
36.81, 1474.62, 0.0614634, NaN, NaN, NaN, 0.03112983, "- N/A -   "
36.83, 1475.58, 0.0614939, NaN, NaN, NaN, 0.0323506, "- N/A -   "
36.85, 1476.41, 0.0615273, NaN, NaN, NaN, 0.0323506, "- N/A -   "
36.87, 1477.37, 0.0615606, NaN, NaN, NaN, 0.0323506, "- N/A -   "
36.89, 1478.08, 0.0615884, NaN, NaN, NaN, 0.0347922, "- N/A -   "
36.91, 1478.92, 0.0616217, NaN, NaN, NaN, 0.0347922, "- N/A -   "
36.93, 1480.11, 0.0616606, NaN, NaN, NaN, 0.0323506, "- N/A -   "
36.95, 1480.83, 0.0616911, NaN, NaN, NaN, 0.0335714, "- N/A -   "
36.97, 1481.541, 0.0617189, NaN, NaN, NaN, 0.03601294, "- N/A -   "
36.99, 1482.38, 0.06174663, NaN, NaN, NaN, 0.0384545, "- N/A -   "
37.01, 1483.33, 0.06178, NaN, NaN, NaN, 0.0384545, "- N/A -   "
37.03, 1484.16, 0.0618105, NaN, NaN, NaN, 0.0396753, "- N/A -   "
37.05, 1484.88, 0.061841, NaN, NaN, NaN, 0.04089605, "- N/A -   "
37.07, 1485.71, 0.06186881, NaN, NaN, NaN, 0.0433376, "- N/A -   "
37.09, 1486.55, 0.06190213, NaN, NaN, NaN, 0.0445584, "- N/A -   "
37.11, 1487.38, 0.06193267, NaN, NaN, NaN, 0.0445584, "- N/A -   "
37.13, 1488.34, 0.06196322, NaN, NaN, NaN, 0.04577916, "- N/A -   "
37.15, 1489.29, 0.0620021, NaN, NaN, NaN, 0.0445584, "- N/A -   "
37.17, 1490.25, 0.0620354, NaN, NaN, NaN, 0.0433376, "- N/A -   "
37.19, 1491.32, 0.0620715, NaN, NaN, NaN, 0.04211683, "- N/A -   "