File: 2_Tensile_Data/Hamel_ForceTest_Bolt9_Test3.csv
Time, Load (lb), Position (in), AxialStrain (in), TransverseStrain (in), Auxiliary (), Control Out (V), Stress (psi)
0.0, 1.17947, 0.0, NaN, NaN, NaN, 0.108039, "- N/A -   "
0.01, 1.41537, 3.054427E-5, NaN, NaN, NaN, 0.101935, "- N/A -   "
0.02, 1.65126, 5.5535e-05, NaN, NaN, NaN, 0.09705182, "- N/A -   "
0.03, 1.88716, 8.607931E-5, NaN, NaN, NaN, 0.09216871, "- N/A -   "
0.04, 2.005107, 0.00011107, NaN, NaN, NaN, 0.0872856, "- N/A -   "
0.05, 2.12305, 1.388376E-4, NaN, NaN, NaN, 0.08362327, "- N/A -   "
0.06, 2.35895, 0.000166605, NaN, NaN, NaN, 0.07874016, "- N/A -   "
0.07, 2.476897, 0.000191596, NaN, NaN, NaN, 0.07385705, "- N/A -   "
0.08, 2.712792, 0.000216587, NaN, NaN, NaN, 0.0701947, "- N/A -   "
0.09, 2.83074, 2.415774E-4, NaN, NaN, NaN, 0.06653238, "- N/A -   "
0.1, 3.06663, 0.000263791, NaN, NaN, NaN, 0.0640908, "- N/A -   "
0.11, 3.18458, 0.000286005, NaN, NaN, NaN, 0.06164927, "- N/A -   "
0.12, 3.42048, 3.109962E-4, NaN, NaN, NaN, 0.0592077, "- N/A -   "
0.13, 3.53842, 0.00033321, NaN, NaN, NaN, 0.0555454, "- N/A -   "
0.14, 3.65637, 0.000355424, NaN, NaN, NaN, 0.0531038, "- N/A -   "
0.15, 3.89227, 0.000377638, NaN, NaN, NaN, 0.05066227, "- N/A -   "
0.16, 3.89227, 0.000399852, NaN, NaN, NaN, 0.0482207, "- N/A -   "
0.17, 4.12816, 0.000422066, NaN, NaN, NaN, 0.04577916, "- N/A -   "
0.18, 4.36406, 0.000441504, NaN, NaN, NaN, 0.0445584, "- N/A -   "
0.19, 4.36406, 4.609408E-4, NaN, NaN, NaN, 0.0433376, "- N/A -   "
0.2, 4.59995, 4.831548E-4, NaN, NaN, NaN, 0.04089605, "- N/A -   "
0.21, 4.59995, 0.000502592, NaN, NaN, NaN, 0.0396753, "- N/A -   "
0.22, 4.83585, 5.248061E-4, NaN, NaN, NaN, 0.0372337, "- N/A -   "
0.23, 4.953794, 5.442434E-4, NaN, NaN, NaN, 0.03601294, "- N/A -   "
0.24, 5.18969, 5.636806E-4, NaN, NaN, NaN, 0.0347922, "- N/A -   "
0.25, 5.307636, 5.831179E-4, NaN, NaN, NaN, 0.0335714, "- N/A -   "
0.26, 5.425584, 0.000602555, NaN, NaN, NaN, 0.0335714, "- N/A -   "
0.27, 5.54353, 0.000619216, NaN, NaN, NaN, 0.0323506, "- N/A -   "
0.28, 5.54353, 0.000638653, NaN, NaN, NaN, 0.03112983, "- N/A -   "
0.29, 5.779426, 0.000655313, NaN, NaN, NaN, 0.03112983, "- N/A -   "
0.3, 5.779426, 6.719739E-4, NaN, NaN, NaN, 0.03112983, "- N/A -   "
0.31, 6.01532, 0.000688634, NaN, NaN, NaN, 0.03112983, "- N/A -   "
0.32, 6.01532, 7.080717E-4, NaN, NaN, NaN, 0.03112983, "- N/A -   "
0.33, 6.13327, 0.000724732, NaN, NaN, NaN, 0.0299091, "- N/A -   "
0.34, 6.369163, 7.413927E-4, NaN, NaN, NaN, 0.0299091, "- N/A -   "
0.35, 6.369163, 0.000758053, NaN, NaN, NaN, 0.0299091, "- N/A -   "
0.36, 6.487111, 0.000774714, NaN, NaN, NaN, 0.03112983, "- N/A -   "
0.37, 6.60506, 7.885975E-4, NaN, NaN, NaN, 0.03112983, "- N/A -   "
0.38, 6.723006, 0.000802481, NaN, NaN, NaN, 0.0323506, "- N/A -   "
0.39, 6.84095, 8.191418E-4, NaN, NaN, NaN, 0.0323506, "- N/A -   "
0.4, 6.9589, 8.358023E-4, NaN, NaN, NaN, 0.0335714, "- N/A -   "
0.41, 7.07685, 0.000849686, NaN, NaN, NaN, 0.0335714, "- N/A -   "
0.42, 7.1948, 8.635698E-4, NaN, NaN, NaN, 0.0347922, "- N/A -   "
0.43, 7.312743, 0.00088023, NaN, NaN, NaN, 0.0347922, "- N/A -   "
0.44, 7.430691, 8.941141E-4, NaN, NaN, NaN, 0.03601294, "- N/A -   "
0.45, 7.548638, 9.107746E-4, NaN, NaN, NaN, 0.03601294, "- N/A -   "
0.46, 7.548638, 9.274351E-4, NaN, NaN, NaN, 0.03601294, "- N/A -   "
0.47, 7.784533, 0.000941319, NaN, NaN, NaN, 0.0372337, "- N/A -   "
0.48, 7.90248, 0.000957979, NaN, NaN, NaN, 0.0384545, "- N/A -   "
0.49, 7.90248, 0.000971863, NaN, NaN, NaN, 0.0396753, "- N/A -   "
0.5, 8.138375, 9.857469E-4, NaN, NaN, NaN, 0.0396753, "- N/A -   "
0.51, 8.256323, 9.996307E-4, NaN, NaN, NaN, 0.04089605, "- N/A -   "
0.52, 8.37427, 0.00101351, NaN, NaN, NaN, 0.04211683, "- N/A -   "
0.53, 8.492218, 0.0010274, NaN, NaN, NaN, 0.0433376, "- N/A -   "
0.54, 8.610166, 0.00104406, NaN, NaN, NaN, 0.0433376, "- N/A -   "
0.55, 8.728113, 0.00105794, NaN, NaN, NaN, 0.0445584, "- N/A -   "
0.56, 8.846061, 0.001074603, NaN, NaN, NaN, 0.04577916, "- N/A -   "
0.57, 8.964007, 0.00108849, NaN, NaN, NaN, 0.04577916, "- N/A -   "
0.58, 9.199903, 0.00110515, NaN, NaN, NaN, 0.04577916, "- N/A -   "
0.59, 9.31785, 0.00112458, NaN, NaN, NaN, 0.0445584, "- N/A -   "
0.6, 9.553744, 0.001141245, NaN, NaN, NaN, 0.0445584, "- N/A -   "
0.61, 9.671693, 0.00115791, NaN, NaN, NaN, 0.0445584, "- N/A -   "
0.62, 9.671693, 0.001174566, NaN, NaN, NaN, 0.0445584, "- N/A -   "
0.63, 9.907588, 0.00119123, NaN, NaN, NaN, 0.04577916, "- N/A -   "
0.64, 10.0255, 0.00120511, NaN, NaN, NaN, 0.04577916, "- N/A -   "
0.65, 10.1435, 0.001218994, NaN, NaN, NaN, 0.04699994, "- N/A -   "
0.66, 10.4973, 0.00123565, NaN, NaN, NaN, 0.04699994, "- N/A -   "
0.67, 10.6153, 0.00125232, NaN, NaN, NaN, 0.04699994, "- N/A -   "
0.68, 10.73322, 0.00126898, NaN, NaN, NaN, 0.04699994, "- N/A -   "
0.69, 10.8512, 0.00128841, NaN, NaN, NaN, 0.04699994, "- N/A -   "
0.7, 10.9691, 0.00130507, NaN, NaN, NaN, 0.04577916, "- N/A -   "
0.71, 11.205, 0.00132451, NaN, NaN, NaN, 0.04577916, "- N/A -   "
0.72, 11.323, 0.00134117, NaN, NaN, NaN, 0.0445584, "- N/A -   "
0.73, 11.6768, 0.00135783, NaN, NaN, NaN, 0.0445584, "- N/A -   "
0.74, 11.9127, 0.00137727, NaN, NaN, NaN, 0.0433376, "- N/A -   "
0.75, 12.0306, 0.00139671, NaN, NaN, NaN, 0.04211683, "- N/A -   "
0.76, 12.2665, 0.00141614, NaN, NaN, NaN, 0.04089605, "- N/A -   "
0.77, 12.3845, 0.00143558, NaN, NaN, NaN, 0.0396753, "- N/A -   "
0.78, 12.6204, 0.00145779, NaN, NaN, NaN, 0.0372337, "- N/A -   "
0.79, 12.8563, 0.001477232, NaN, NaN, NaN, 0.03601294, "- N/A -   "
0.8, 13.09217, 0.001499446, NaN, NaN, NaN, 0.0335714, "- N/A -   "
0.81, 13.3281, 0.00151888, NaN, NaN, NaN, 0.0335714, "- N/A -   "
0.82, 13.446, 0.00153832, NaN, NaN, NaN, 0.0323506, "- N/A -   "
0.83, 13.6819, 0.00155776, NaN, NaN, NaN, 0.03112983, "- N/A -   "
0.84, 13.9178, 0.00157442, NaN, NaN, NaN, 0.0299091, "- N/A -   "
0.85, 14.1537, 0.00159386, NaN, NaN, NaN, 0.0299091, "- N/A -   "
0.86, 14.2716, 0.00161052, NaN, NaN, NaN, 0.0286883, "- N/A -   "
0.87, 14.5075, 0.0016244, NaN, NaN, NaN, 0.0299091, "- N/A -   "
0.88, 14.6255, 0.00164106, NaN, NaN, NaN, 0.0299091, "- N/A -   "
0.89, 14.8614, 0.00165772, NaN, NaN, NaN, 0.0299091, "- N/A -   "
0.9, 15.0973, 0.00167438, NaN, NaN, NaN, 0.0299091, "- N/A -   "
0.91, 15.2152, 0.00169104, NaN, NaN, NaN, 0.0299091, "- N/A -   "
0.92, 15.4511, 0.0017077, NaN, NaN, NaN, 0.0299091, "- N/A -   "
0.93, 15.687, 0.00172436, NaN, NaN, NaN, 0.0299091, "- N/A -   "
0.94, 15.805, 0.00174102, NaN, NaN, NaN, 0.0299091, "- N/A -   "
0.95, 16.1588, 0.00175768, NaN, NaN, NaN, 0.0299091, "- N/A -   "
0.96, 16.27675, 0.00177157, NaN, NaN, NaN, 0.03112983, "- N/A -   "
0.97, 16.5126, 0.00178823, NaN, NaN, NaN, 0.0323506, "- N/A -   "
0.98, 16.5126, 0.001802112, NaN, NaN, NaN, 0.0323506, "- N/A -   "
0.99, 16.74854, 0.00181877, NaN, NaN, NaN, 0.0323506, "- N/A -   "
1, 17.1024, 0.001835433, NaN, NaN, NaN, 0.0323506, "- N/A -   "
1.01, 17.3383, 0.00184932, NaN, NaN, NaN, 0.0335714, "- N/A -   "
1.02, 17.4562, 0.00186598, NaN, NaN, NaN, 0.0335714, "- N/A -   "
1.03, 17.6921, 0.001879861, NaN, NaN, NaN, 0.0347922, "- N/A -   "
1.04, 17.8101, 0.00189374, NaN, NaN, NaN, 0.03601294, "- N/A -   "
1.05, 18.046, 0.00191041, NaN, NaN, NaN, 0.03601294, "- N/A -   "
1.06, 18.2819, 0.00192151, NaN, NaN, NaN, 0.0384545, "- N/A -   "
1.07, 18.5178, 0.00193817, NaN, NaN, NaN, 0.0384545, "- N/A -   "
1.08, 18.7536, 0.00195483, NaN, NaN, NaN, 0.0384545, "- N/A -   "
1.09, 18.9895, 0.00197427, NaN, NaN, NaN, 0.0384545, "- N/A -   "
1.1, 19.2254, 0.001990931, NaN, NaN, NaN, 0.0372337, "- N/A -   "
1.11, 19.4613, 0.00200759, NaN, NaN, NaN, 0.0372337, "- N/A -   "
1.12, 19.6972, 0.00202703, NaN, NaN, NaN, 0.03601294, "- N/A -   "
1.13, 19.9331, 0.00204369, NaN, NaN, NaN, 0.03601294, "- N/A -   "
1.14, 20.287, 0.00206035, NaN, NaN, NaN, 0.03601294, "- N/A -   "
1.15, 20.4049, 0.00207701, NaN, NaN, NaN, 0.03601294, "- N/A -   "
1.16, 20.7588, 0.002093671, NaN, NaN, NaN, 0.03601294, "- N/A -   "
1.17, 20.99465, 0.00210755, NaN, NaN, NaN, 0.0372337, "- N/A -   "
1.18, 21.2305, 0.00212422, NaN, NaN, NaN, 0.0372337, "- N/A -   "
1.19, 21.3485, 0.002138099, NaN, NaN, NaN, 0.0384545, "- N/A -   "
1.2, 21.7023, 0.00215198, NaN, NaN, NaN, 0.0396753, "- N/A -   "
1.21, 21.8203, 0.00216587, NaN, NaN, NaN, 0.04089605, "- N/A -   "
1.22, 22.0562, 0.002182527, NaN, NaN, NaN, 0.04211683, "- N/A -   "
1.23, 22.29207, 0.00219641, NaN, NaN, NaN, 0.04211683, "- N/A -   "
1.24, 22.528, 0.002213071, NaN, NaN, NaN, 0.04211683, "- N/A -   "
1.25, 22.6459, 0.002226955, NaN, NaN, NaN, 0.0433376, "- N/A -   "
1.26, 22.9998, 0.00224639, NaN, NaN, NaN, 0.0433376, "- N/A -   "
1.27, 23.1177, 0.00226028, NaN, NaN, NaN, 0.0433376, "- N/A -   "
1.28, 23.3536, 0.00227694, NaN, NaN, NaN, 0.0445584, "- N/A -   "
1.29, 23.7074, 0.00229082, NaN, NaN, NaN, 0.0445584, "- N/A -   "
1.3, 23.9433, 0.00230748, NaN, NaN, NaN, 0.0445584, "- N/A -   "
1.31, 24.1792, 0.00232414, NaN, NaN, NaN, 0.0445584, "- N/A -   "
1.32, 24.29718, 0.0023408, NaN, NaN, NaN, 0.0445584, "- N/A -   "
1.33, 24.769, 0.00235746, NaN, NaN, NaN, 0.0445584, "- N/A -   "
1.34, 25.0049, 0.0023769, NaN, NaN, NaN, 0.0433376, "- N/A -   "
1.35, 25.3587, 0.00239634, NaN, NaN, NaN, 0.04211683, "- N/A -   "
1.36, 25.7125, 0.00241855, NaN, NaN, NaN, 0.0396753, "- N/A -   "
1.37, 26.0664, 0.00243799, NaN, NaN, NaN, 0.0384545, "- N/A -   "
1.38, 26.4202, 0.0024602, NaN, NaN, NaN, 0.03601294, "- N/A -   "
1.39, 26.6561, 0.00247964, NaN, NaN, NaN, 0.0347922, "- N/A -   "
1.4, 26.892, 0.00249908, NaN, NaN, NaN, 0.0335714, "- N/A -   "
1.41, 27.1279, 0.00251851, NaN, NaN, NaN, 0.0323506, "- N/A -   "
1.42, 27.4818, 0.00253517, NaN, NaN, NaN, 0.0323506, "- N/A -   "
1.43, 27.7177, 0.00255183, NaN, NaN, NaN, 0.0323506, "- N/A -   "
1.44, 27.95355, 0.0025685, NaN, NaN, NaN, 0.0323506, "- N/A -   "
1.45, 28.1894, 0.002585156, NaN, NaN, NaN, 0.0323506, "- N/A -   "
1.46, 28.54329, 0.00260182, NaN, NaN, NaN, 0.0323506, "- N/A -   "
1.47, 28.7792, 0.00262125, NaN, NaN, NaN, 0.03112983, "- N/A -   "
1.48, 29.133, 0.002640691, NaN, NaN, NaN, 0.03112983, "- N/A -   "
1.49, 29.3689, 0.00265735, NaN, NaN, NaN, 0.0299091, "- N/A -   "
1.5, 29.6048, 0.00267401, NaN, NaN, NaN, 0.0299091, "- N/A -   "
1.51, 29.84071, 0.00269067, NaN, NaN, NaN, 0.0299091, "- N/A -   "
1.52, 29.9587, 0.00270456, NaN, NaN, NaN, 0.03112983, "- N/A -   "
1.53, 30.3125, 0.00272122, NaN, NaN, NaN, 0.03112983, "- N/A -   "
1.54, 30.5484, 0.00273788, NaN, NaN, NaN, 0.03112983, "- N/A -   "
1.55, 30.78429, 0.00275176, NaN, NaN, NaN, 0.0323506, "- N/A -   "
1.56, 31.0202, 0.00276842, NaN, NaN, NaN, 0.0323506, "- N/A -   "
1.57, 31.374, 0.002785082, NaN, NaN, NaN, 0.0335714, "- N/A -   "
1.58, 31.6099, 0.002798966, NaN, NaN, NaN, 0.0335714, "- N/A -   "
1.59, 31.8458, 0.00281563, NaN, NaN, NaN, 0.0335714, "- N/A -   "
1.6, 32.08171, 0.00283229, NaN, NaN, NaN, 0.0347922, "- N/A -   "
1.61, 32.3176, 0.00284617, NaN, NaN, NaN, 0.0347922, "- N/A -   "
1.62, 32.5535, 0.00286005, NaN, NaN, NaN, 0.03601294, "- N/A -   "
1.63, 32.7894, 0.00287671, NaN, NaN, NaN, 0.03601294, "- N/A -   "
1.64, 33.1432, 0.0028906, NaN, NaN, NaN, 0.0372337, "- N/A -   "
1.65, 33.3791, 0.002910036, NaN, NaN, NaN, 0.0372337, "- N/A -   "
1.66, 33.61503, 0.0029267, NaN, NaN, NaN, 0.0372337, "- N/A -   "
1.67, 33.8509, 0.002943357, NaN, NaN, NaN, 0.0372337, "- N/A -   "
1.68, 34.08682, 0.00296002, NaN, NaN, NaN, 0.03601294, "- N/A -   "
1.69, 34.3227, 0.00297668, NaN, NaN, NaN, 0.03601294, "- N/A -   "
1.7, 34.7945, 0.002996115, NaN, NaN, NaN, 0.0347922, "- N/A -   "
1.71, 35.0304, 0.00301555, NaN, NaN, NaN, 0.0347922, "- N/A -   "
1.72, 35.3842, 0.003032213, NaN, NaN, NaN, 0.0335714, "- N/A -   "
1.73, 35.7381, 0.00305165, NaN, NaN, NaN, 0.0323506, "- N/A -   "
1.74, 35.85603, 0.003065534, NaN, NaN, NaN, 0.0335714, "- N/A -   "
1.75, 36.2099, 0.00308219, NaN, NaN, NaN, 0.0335714, "- N/A -   "
1.76, 36.44577, 0.003098855, NaN, NaN, NaN, 0.0335714, "- N/A -   "
1.77, 36.79961, 0.003115516, NaN, NaN, NaN, 0.0335714, "- N/A -   "
1.78, 36.9176, 0.00313218, NaN, NaN, NaN, 0.0347922, "- N/A -   "
1.79, 37.15345, 0.00314884, NaN, NaN, NaN, 0.0347922, "- N/A -   "
1.8, 37.5073, 0.00316272, NaN, NaN, NaN, 0.0347922, "- N/A -   "
1.81, 37.8611, 0.003179381, NaN, NaN, NaN, 0.03601294, "- N/A -   "
1.82, 37.9791, 0.00319326, NaN, NaN, NaN, 0.03601294, "- N/A -   "
1.83, 38.3329, 0.003209925, NaN, NaN, NaN, 0.03601294, "- N/A -   "
1.84, 38.4509, 0.003223809, NaN, NaN, NaN, 0.0372337, "- N/A -   "
1.85, 38.68677, 0.00324047, NaN, NaN, NaN, 0.0384545, "- N/A -   "
1.86, 38.9227, 0.00325158, NaN, NaN, NaN, 0.0396753, "- N/A -   "
1.87, 39.15856, 0.003268237, NaN, NaN, NaN, 0.04089605, "- N/A -   "
1.88, 39.5124, 0.0032849, NaN, NaN, NaN, 0.0396753, "- N/A -   "
1.89, 39.7483, 0.003298781, NaN, NaN, NaN, 0.04089605, "- N/A -   "
1.9, 39.98419, 0.003315442, NaN, NaN, NaN, 0.04089605, "- N/A -   "
1.91, 40.22009, 0.0033321, NaN, NaN, NaN, 0.04089605, "- N/A -   "
1.92, 40.57393, 0.00334876, NaN, NaN, NaN, 0.04089605, "- N/A -   "
1.93, 40.8098, 0.00336542, NaN, NaN, NaN, 0.04211683, "- N/A -   "
1.94, 41.04572, 0.003382084, NaN, NaN, NaN, 0.04089605, "- N/A -   "
1.95, 41.39956, 0.00339874, NaN, NaN, NaN, 0.04089605, "- N/A -   "
1.96, 41.6355, 0.003415405, NaN, NaN, NaN, 0.04089605, "- N/A -   "
1.97, 41.8714, 0.00343484, NaN, NaN, NaN, 0.0396753, "- N/A -   "
1.98, 42.3431, 0.0034515, NaN, NaN, NaN, 0.0396753, "- N/A -   "
1.99, 42.579, 0.00347094, NaN, NaN, NaN, 0.0396753, "- N/A -   "
2, 42.8149, 0.00348482, NaN, NaN, NaN, 0.0396753, "- N/A -   "
2.01, 43.0508, 0.00350148, NaN, NaN, NaN, 0.0396753, "- N/A -   "
2.02, 43.40467, 0.00352092, NaN, NaN, NaN, 0.0396753, "- N/A -   "
2.03, 43.75851, 0.003537582, NaN, NaN, NaN, 0.0384545, "- N/A -   "
2.04, 43.9944, 0.00355424, NaN, NaN, NaN, 0.0384545, "- N/A -   "
2.05, 44.34825, 0.003570903, NaN, NaN, NaN, 0.0384545, "- N/A -   "
2.06, 44.70209, 0.00359034, NaN, NaN, NaN, 0.0384545, "- N/A -   "
2.07, 44.93799, 0.003607, NaN, NaN, NaN, 0.0384545, "- N/A -   "
2.08, 45.29183, 0.00362366, NaN, NaN, NaN, 0.0372337, "- N/A -   "
2.09, 45.5277, 0.0036431, NaN, NaN, NaN, 0.0372337, "- N/A -   "
2.1, 45.8816, 0.00365976, NaN, NaN, NaN, 0.03601294, "- N/A -   "
2.11, 46.11746, 0.00367642, NaN, NaN, NaN, 0.03601294, "- N/A -   "
2.12, 46.4713, 0.00369586, NaN, NaN, NaN, 0.03601294, "- N/A -   "
2.13, 46.7072, 0.00370974, NaN, NaN, NaN, 0.03601294, "- N/A -   "
2.14, 47.061, 0.0037264, NaN, NaN, NaN, 0.03601294, "- N/A -   "
2.15, 47.2969, 0.00374028, NaN, NaN, NaN, 0.0372337, "- N/A -   "
2.16, 47.5328, 0.00375695, NaN, NaN, NaN, 0.0372337, "- N/A -   "
2.17, 47.8867, 0.00377638, NaN, NaN, NaN, 0.03601294, "- N/A -   "
2.18, 48.12257, 0.00379304, NaN, NaN, NaN, 0.03601294, "- N/A -   "
2.19, 48.47641, 0.0038097, NaN, NaN, NaN, 0.03601294, "- N/A -   "
2.2, 48.83025, 0.00382636, NaN, NaN, NaN, 0.03601294, "- N/A -   "
2.21, 49.0661, 0.00384302, NaN, NaN, NaN, 0.03601294, "- N/A -   "
2.22, 49.41999, 0.00386246, NaN, NaN, NaN, 0.03601294, "- N/A -   "
2.23, 49.7738, 0.00387912, NaN, NaN, NaN, 0.0347922, "- N/A -   "
2.24, 50.0097, 0.00389856, NaN, NaN, NaN, 0.0347922, "- N/A -   "
2.25, 50.3636, 0.00391522, NaN, NaN, NaN, 0.0335714, "- N/A -   "
2.26, 50.83536, 0.00393466, NaN, NaN, NaN, 0.0335714, "- N/A -   "
2.27, 51.0713, 0.00395132, NaN, NaN, NaN, 0.0323506, "- N/A -   "
2.28, 51.4251, 0.00396798, NaN, NaN, NaN, 0.0323506, "- N/A -   "
2.29, 51.66099, 0.00398742, NaN, NaN, NaN, 0.0323506, "- N/A -   "
2.3, 51.89689, 0.0040013, NaN, NaN, NaN, 0.0323506, "- N/A -   "
2.31, 52.1328, 0.00401796, NaN, NaN, NaN, 0.0323506, "- N/A -   "
2.32, 52.48662, 0.00403462, NaN, NaN, NaN, 0.0323506, "- N/A -   "
2.33, 52.72252, 0.00405128, NaN, NaN, NaN, 0.0335714, "- N/A -   "
2.34, 53.0764, 0.004065165, NaN, NaN, NaN, 0.0335714, "- N/A -   "
2.35, 53.3123, 0.00408183, NaN, NaN, NaN, 0.0335714, "- N/A -   "
2.36, 53.6661, 0.00409849, NaN, NaN, NaN, 0.0335714, "- N/A -   "
2.37, 53.902, 0.00411515, NaN, NaN, NaN, 0.0347922, "- N/A -   "
2.38, 54.13789, 0.00412903, NaN, NaN, NaN, 0.0347922, "- N/A -   "
2.39, 54.4917, 0.00414569, NaN, NaN, NaN, 0.03601294, "- N/A -   "
2.4, 54.7276, 0.00415957, NaN, NaN, NaN, 0.03601294, "- N/A -   "
2.41, 54.9635, 0.004176235, NaN, NaN, NaN, 0.03601294, "- N/A -   "
2.42, 55.43531, 0.004195672, NaN, NaN, NaN, 0.03601294, "- N/A -   "
2.43, 55.55326, 0.00421233, NaN, NaN, NaN, 0.03601294, "- N/A -   "
2.44, 56.02505, 0.004228993, NaN, NaN, NaN, 0.03601294, "- N/A -   "
2.45, 56.2609, 0.00424288, NaN, NaN, NaN, 0.03601294, "- N/A -   "
2.46, 56.4968, 0.00425954, NaN, NaN, NaN, 0.03601294, "- N/A -   "
2.47, 56.85068, 0.004276198, NaN, NaN, NaN, 0.03601294, "- N/A -   "
2.48, 57.08658, 0.004295635, NaN, NaN, NaN, 0.03601294, "- N/A -   "
2.49, 57.44042, 0.004312296, NaN, NaN, NaN, 0.03601294, "- N/A -   "
2.5, 57.79426, 0.004328956, NaN, NaN, NaN, 0.0347922, "- N/A -   "
2.51, 58.1481, 0.004345617, NaN, NaN, NaN, 0.0347922, "- N/A -   "
2.52, 58.384, 0.00436228, NaN, NaN, NaN, 0.0347922, "- N/A -   "
2.53, 58.8558, 0.004381715, NaN, NaN, NaN, 0.0347922, "- N/A -   "
2.54, 59.0917, 0.004398375, NaN, NaN, NaN, 0.0347922, "- N/A -   "
2.55, 59.3276, 0.004412259, NaN, NaN, NaN, 0.0347922, "- N/A -   "
2.56, 59.5635, 0.00442614, NaN, NaN, NaN, 0.03601294, "- N/A -   "
2.57, 59.9173, 0.004442803, NaN, NaN, NaN, 0.0372337, "- N/A -   "
2.58, 60.15321, 0.004456687, NaN, NaN, NaN, 0.0372337, "- N/A -   "
2.59, 60.3891, 0.00447057, NaN, NaN, NaN, 0.0384545, "- N/A -   "
2.6, 60.7429, 0.00449001, NaN, NaN, NaN, 0.0384545, "- N/A -   "
2.61, 60.97884, 0.004503892, NaN, NaN, NaN, 0.0384545, "- N/A -   "
2.62, 61.3327, 0.004520552, NaN, NaN, NaN, 0.0384545, "- N/A -   "
2.63, 61.56858, 0.00453721, NaN, NaN, NaN, 0.0384545, "- N/A -   "
2.64, 61.9224, 0.004551096, NaN, NaN, NaN, 0.0396753, "- N/A -   "
2.65, 62.2763, 0.004567757, NaN, NaN, NaN, 0.0396753, "- N/A -   "
2.66, 62.3942, 0.004584417, NaN, NaN, NaN, 0.0396753, "- N/A -   "
2.67, 62.866, 0.004601078, NaN, NaN, NaN, 0.04089605, "- N/A -   "
2.68, 62.98395, 0.004614962, NaN, NaN, NaN, 0.04089605, "- N/A -   "
2.69, 63.33779, 0.004631622, NaN, NaN, NaN, 0.04089605, "- N/A -   "
2.7, 63.6916, 0.00464828, NaN, NaN, NaN, 0.04089605, "- N/A -   "
2.71, 63.92753, 0.004662167, NaN, NaN, NaN, 0.04211683, "- N/A -   "
2.72, 64.3993, 0.004681604, NaN, NaN, NaN, 0.04211683, "- N/A -   "
2.73, 64.6352, 0.004698264, NaN, NaN, NaN, 0.04089605, "- N/A -   "
2.74, 64.98906, 0.004714925, NaN, NaN, NaN, 0.04089605, "- N/A -   "
2.75, 65.3429, 0.004734362, NaN, NaN, NaN, 0.04089605, "- N/A -   "
2.76, 65.69674, 0.004751023, NaN, NaN, NaN, 0.0396753, "- N/A -   "
2.77, 66.05058, 0.00477046, NaN, NaN, NaN, 0.0384545, "- N/A -   "
2.78, 66.40443, 0.00478712, NaN, NaN, NaN, 0.0384545, "- N/A -   "
2.79, 66.64032, 0.004803781, NaN, NaN, NaN, 0.0384545, "- N/A -   "
2.8, 67.1121, 0.004823218, NaN, NaN, NaN, 0.0372337, "- N/A -   "
2.81, 67.46596, 0.00484266, NaN, NaN, NaN, 0.0372337, "- N/A -   "
2.82, 67.81979, 0.004859316, NaN, NaN, NaN, 0.03601294, "- N/A -   "
2.83, 68.05569, 0.004878753, NaN, NaN, NaN, 0.0347922, "- N/A -   "
2.84, 68.40953, 0.00489819, NaN, NaN, NaN, 0.0347922, "- N/A -   "
2.85, 68.7634, 0.004914851, NaN, NaN, NaN, 0.0335714, "- N/A -   "
2.86, 69.11722, 0.004934288, NaN, NaN, NaN, 0.0335714, "- N/A -   "
2.87, 69.47106, 0.004948172, NaN, NaN, NaN, 0.0335714, "- N/A -   "
2.88, 69.707, 0.004967609, NaN, NaN, NaN, 0.0335714, "- N/A -   "
2.89, 70.0608, 0.00498427, NaN, NaN, NaN, 0.0323506, "- N/A -   "
2.9, 70.41464, 0.00500093, NaN, NaN, NaN, 0.0323506, "- N/A -   "
2.91, 70.7685, 0.005017591, NaN, NaN, NaN, 0.0323506, "- N/A -   "
2.92, 71.12233, 0.005034251, NaN, NaN, NaN, 0.0323506, "- N/A -   "
2.93, 71.3582, 0.005050912, NaN, NaN, NaN, 0.0323506, "- N/A -   "
2.94, 71.71206, 0.005070349, NaN, NaN, NaN, 0.0323506, "- N/A -   "
2.95, 71.94796, 0.005084233, NaN, NaN, NaN, 0.0323506, "- N/A -   "
2.96, 72.3018, 0.00510089, NaN, NaN, NaN, 0.0323506, "- N/A -   "
2.97, 72.5377, 0.005117554, NaN, NaN, NaN, 0.0335714, "- N/A -   "
2.98, 72.89154, 0.005134214, NaN, NaN, NaN, 0.0335714, "- N/A -   "
2.99, 73.12743, 0.0051481, NaN, NaN, NaN, 0.0335714, "- N/A -   "
3, 73.48127, 0.005167535, NaN, NaN, NaN, 0.0335714, "- N/A -   "
3.01, 73.71717, 0.005184196, NaN, NaN, NaN, 0.0335714, "- N/A -   "
3.02, 74.071, 0.00520086, NaN, NaN, NaN, 0.0323506, "- N/A -   "
3.03, 74.42485, 0.00521752, NaN, NaN, NaN, 0.0323506, "- N/A -   "
3.04, 74.7787, 0.00523695, NaN, NaN, NaN, 0.0323506, "- N/A -   "
3.05, 75.0146, 0.005250838, NaN, NaN, NaN, 0.0323506, "- N/A -   "
3.06, 75.48638, 0.00527028, NaN, NaN, NaN, 0.0323506, "- N/A -   "
3.07, 75.7223, 0.00528694, NaN, NaN, NaN, 0.03112983, "- N/A -   "
3.08, 76.07612, 0.005303596, NaN, NaN, NaN, 0.03112983, "- N/A -   "
3.09, 76.43, 0.00532303, NaN, NaN, NaN, 0.0299091, "- N/A -   "
3.1, 76.7838, 0.00534247, NaN, NaN, NaN, 0.0286883, "- N/A -   "
3.11, 77.0197, 0.00535913, NaN, NaN, NaN, 0.0286883, "- N/A -   "
3.12, 77.37354, 0.005373015, NaN, NaN, NaN, 0.0299091, "- N/A -   "
3.13, 77.72738, 0.00538968, NaN, NaN, NaN, 0.03112983, "- N/A -   "
3.14, 78.08122, 0.005403559, NaN, NaN, NaN, 0.03112983, "- N/A -   "
3.15, 78.31712, 0.00542022, NaN, NaN, NaN, 0.03112983, "- N/A -   "
3.16, 78.67096, 0.00543688, NaN, NaN, NaN, 0.03112983, "- N/A -   "
3.17, 79.0248, 0.00545354, NaN, NaN, NaN, 0.03112983, "- N/A -   "
3.18, 79.2607, 0.0054702, NaN, NaN, NaN, 0.03112983, "- N/A -   "
3.19, 79.61454, 0.005484085, NaN, NaN, NaN, 0.0323506, "- N/A -   "
3.2, 79.85043, 0.00550075, NaN, NaN, NaN, 0.0323506, "- N/A -   "
3.21, 80.0863, 0.00551741, NaN, NaN, NaN, 0.0335714, "- N/A -   "
3.22, 80.44018, 0.00553129, NaN, NaN, NaN, 0.0347922, "- N/A -   "
3.23, 80.55813, 0.00554517, NaN, NaN, NaN, 0.03601294, "- N/A -   "
3.24, 80.912, 0.00555628, NaN, NaN, NaN, 0.0372337, "- N/A -   "
3.25, 81.14786, 0.00557016, NaN, NaN, NaN, 0.0384545, "- N/A -   "
3.26, 81.38376, 0.00558127, NaN, NaN, NaN, 0.04089605, "- N/A -   "
3.27, 81.61965, 0.005597932, NaN, NaN, NaN, 0.04211683, "- N/A -   "
3.28, 81.97349, 0.00561182, NaN, NaN, NaN, 0.04211683, "- N/A -   "
3.29, 82.20939, 0.0056257, NaN, NaN, NaN, 0.0433376, "- N/A -   "
3.3, 82.56323, 0.00563958, NaN, NaN, NaN, 0.0445584, "- N/A -   "
3.31, 82.79912, 0.005656244, NaN, NaN, NaN, 0.04577916, "- N/A -   "
3.32, 83.03502, 0.00567013, NaN, NaN, NaN, 0.04577916, "- N/A -   "
3.33, 83.38886, 0.00568401, NaN, NaN, NaN, 0.04699994, "- N/A -   "
3.34, 83.6248, 0.00570067, NaN, NaN, NaN, 0.04699994, "- N/A -   "
3.35, 83.9786, 0.00571733, NaN, NaN, NaN, 0.04699994, "- N/A -   "
3.36, 84.45039, 0.00573677, NaN, NaN, NaN, 0.04577916, "- N/A -   "
3.37, 84.80424, 0.00575343, NaN, NaN, NaN, 0.04577916, "- N/A -   "
3.38, 85.15807, 0.00577287, NaN, NaN, NaN, 0.04577916, "- N/A -   "
3.39, 85.39397, 0.00578953, NaN, NaN, NaN, 0.0445584, "- N/A -   "
3.4, 85.86576, 0.005808965, NaN, NaN, NaN, 0.0433376, "- N/A -   "
3.41, 86.1017, 0.00582563, NaN, NaN, NaN, 0.0433376, "- N/A -   "
3.42, 86.4555, 0.005845063, NaN, NaN, NaN, 0.0433376, "- N/A -   "
3.43, 86.92729, 0.0058645, NaN, NaN, NaN, 0.04089605, "- N/A -   "
3.44, 87.39908, 0.00588394, NaN, NaN, NaN, 0.0396753, "- N/A -   "
3.45, 87.75292, 0.00590615, NaN, NaN, NaN, 0.0384545, "- N/A -   "
3.46, 88.22471, 0.005925589, NaN, NaN, NaN, 0.0372337, "- N/A -   "
3.47, 88.4606, 0.00594225, NaN, NaN, NaN, 0.03601294, "- N/A -   "
3.48, 88.8144, 0.00596169, NaN, NaN, NaN, 0.03601294, "- N/A -   "
3.49, 89.16828, 0.005978347, NaN, NaN, NaN, 0.03601294, "- N/A -   "
3.5, 89.40418, 0.00599501, NaN, NaN, NaN, 0.03601294, "- N/A -   "
3.51, 89.87598, 0.006014445, NaN, NaN, NaN, 0.03601294, "- N/A -   "
3.52, 90.22981, 0.006031105, NaN, NaN, NaN, 0.03601294, "- N/A -   "
3.53, 90.4657, 0.00604777, NaN, NaN, NaN, 0.03601294, "- N/A -   "
3.54, 90.81956, 0.006064426, NaN, NaN, NaN, 0.03601294, "- N/A -   "
3.55, 91.1734, 0.00608109, NaN, NaN, NaN, 0.0347922, "- N/A -   "
3.56, 91.52724, 0.006097747, NaN, NaN, NaN, 0.0347922, "- N/A -   "
3.57, 91.88108, 0.006114408, NaN, NaN, NaN, 0.0347922, "- N/A -   "
3.58, 92.23492, 0.006131068, NaN, NaN, NaN, 0.0347922, "- N/A -   "
3.59, 92.58876, 0.006147729, NaN, NaN, NaN, 0.0347922, "- N/A -   "
3.6, 92.82466, 0.006167166, NaN, NaN, NaN, 0.0347922, "- N/A -   "
3.61, 93.2965, 0.006183827, NaN, NaN, NaN, 0.0335714, "- N/A -   "
3.62, 93.65029, 0.006203264, NaN, NaN, NaN, 0.0323506, "- N/A -   "
3.63, 94.1221, 0.006222701, NaN, NaN, NaN, 0.03112983, "- N/A -   "
3.64, 94.35797, 0.006242138, NaN, NaN, NaN, 0.03112983, "- N/A -   "
3.65, 94.7118, 0.0062588, NaN, NaN, NaN, 0.0299091, "- N/A -   "
3.66, 95.18361, 0.006275459, NaN, NaN, NaN, 0.0299091, "- N/A -   "
3.67, 95.41951, 0.00629212, NaN, NaN, NaN, 0.0299091, "- N/A -   "
3.68, 95.8913, 0.00630878, NaN, NaN, NaN, 0.0299091, "- N/A -   "
3.69, 96.24514, 0.006325441, NaN, NaN, NaN, 0.0299091, "- N/A -   "
3.7, 96.481, 0.006342101, NaN, NaN, NaN, 0.0299091, "- N/A -   "
3.71, 96.83487, 0.006358762, NaN, NaN, NaN, 0.0299091, "- N/A -   "
3.72, 97.18872, 0.00637542, NaN, NaN, NaN, 0.03112983, "- N/A -   "
3.73, 97.54256, 0.006392083, NaN, NaN, NaN, 0.03112983, "- N/A -   "
3.74, 97.8964, 0.006405967, NaN, NaN, NaN, 0.03112983, "- N/A -   "
3.75, 98.13229, 0.006425404, NaN, NaN, NaN, 0.03112983, "- N/A -   "
3.76, 98.4861, 0.006442065, NaN, NaN, NaN, 0.0299091, "- N/A -   "
3.77, 98.83998, 0.006458725, NaN, NaN, NaN, 0.0299091, "- N/A -   "
3.78, 99.1938, 0.006472609, NaN, NaN, NaN, 0.03112983, "- N/A -   "
3.79, 99.42972, 0.00648649, NaN, NaN, NaN, 0.0323506, "- N/A -   "
3.8, 99.7836, 0.006503153, NaN, NaN, NaN, 0.0323506, "- N/A -   "
3.81, 100.137, 0.006519814, NaN, NaN, NaN, 0.0335714, "- N/A -   "
3.82, 100.3733, 0.0065337, NaN, NaN, NaN, 0.0335714, "- N/A -   "
3.83, 100.727, 0.006547581, NaN, NaN, NaN, 0.0347922, "- N/A -   "
3.84, 101.081, 0.006558688, NaN, NaN, NaN, 0.0372337, "- N/A -   "
3.85, 101.199, 0.006572572, NaN, NaN, NaN, 0.0384545, "- N/A -   "
3.86, 101.435, 0.00658646, NaN, NaN, NaN, 0.0396753, "- N/A -   "
3.87, 101.789, 0.006600339, NaN, NaN, NaN, 0.04089605, "- N/A -   "
3.88, 102.143, 0.006617, NaN, NaN, NaN, 0.04089605, "- N/A -   "
3.89, 102.3784, 0.006630884, NaN, NaN, NaN, 0.04211683, "- N/A -   "
3.9, 102.6143, 0.00664477, NaN, NaN, NaN, 0.0433376, "- N/A -   "
3.91, 102.85, 0.006661428, NaN, NaN, NaN, 0.0445584, "- N/A -   "
3.92, 103.322, 0.006675312, NaN, NaN, NaN, 0.0445584, "- N/A -   "
3.93, 103.44, 0.006689195, NaN, NaN, NaN, 0.04577916, "- N/A -   "
3.94, 103.794, 0.006705856, NaN, NaN, NaN, 0.04577916, "- N/A -   "
3.95, 104.148, 0.00672252, NaN, NaN, NaN, 0.04577916, "- N/A -   "
3.96, 104.501, 0.00673918, NaN, NaN, NaN, 0.04699994, "- N/A -   "
3.97, 104.855, 0.00675584, NaN, NaN, NaN, 0.04699994, "- N/A -   "
3.98, 105.209, 0.00676972, NaN, NaN, NaN, 0.04699994, "- N/A -   "
3.99, 105.563, 0.006789158, NaN, NaN, NaN, 0.04577916, "- N/A -   "
4, 105.917, 0.006808596, NaN, NaN, NaN, 0.04577916, "- N/A -   "
4.01, 106.271, 0.006825256, NaN, NaN, NaN, 0.0445584, "- N/A -   "
4.02, 106.742, 0.00684469, NaN, NaN, NaN, 0.0445584, "- N/A -   "
4.03, 107.0963, 0.006861354, NaN, NaN, NaN, 0.0433376, "- N/A -   "
4.04, 107.45, 0.006875238, NaN, NaN, NaN, 0.0445584, "- N/A -   "
4.05, 107.686, 0.0068919, NaN, NaN, NaN, 0.0445584, "- N/A -   "
4.06, 108.158, 0.00690856, NaN, NaN, NaN, 0.0445584, "- N/A -   "
4.07, 108.394, 0.006925219, NaN, NaN, NaN, 0.0445584, "- N/A -   "
4.08, 108.748, 0.00694188, NaN, NaN, NaN, 0.0445584, "- N/A -   "
4.09, 109.219, 0.00696132, NaN, NaN, NaN, 0.0445584, "- N/A -   "
4.1, 109.5732, 0.006977977, NaN, NaN, NaN, 0.0433376, "- N/A -   "
4.11, 109.927, 0.00699742, NaN, NaN, NaN, 0.0433376, "- N/A -   "
4.12, 110.281, 0.00701408, NaN, NaN, NaN, 0.04211683, "- N/A -   "
4.13, 110.635, 0.00703351, NaN, NaN, NaN, 0.04211683, "- N/A -   "
4.14, 110.989, 0.00705017, NaN, NaN, NaN, 0.04089605, "- N/A -   "
4.15, 111.46, 0.00707239, NaN, NaN, NaN, 0.0396753, "- N/A -   "
4.16, 111.8142, 0.00709182, NaN, NaN, NaN, 0.0384545, "- N/A -   "
4.17, 112.286, 0.00710849, NaN, NaN, NaN, 0.0372337, "- N/A -   "
4.18, 112.758, 0.00712792, NaN, NaN, NaN, 0.03601294, "- N/A -   "
4.19, 112.994, 0.00714736, NaN, NaN, NaN, 0.0347922, "- N/A -   "
4.2, 113.465, 0.00716957, NaN, NaN, NaN, 0.0323506, "- N/A -   "
4.21, 113.937, 0.00718901, NaN, NaN, NaN, 0.0323506, "- N/A -   "
4.22, 114.409, 0.00720845, NaN, NaN, NaN, 0.03112983, "- N/A -   "
4.23, 114.645, 0.00722511, NaN, NaN, NaN, 0.03112983, "- N/A -   "
4.24, 114.999, 0.007241769, NaN, NaN, NaN, 0.0299091, "- N/A -   "
4.25, 115.353, 0.00725843, NaN, NaN, NaN, 0.0299091, "- N/A -   "
4.26, 115.706, 0.00727231, NaN, NaN, NaN, 0.03112983, "- N/A -   "
4.27, 115.942, 0.00729175, NaN, NaN, NaN, 0.03112983, "- N/A -   "
4.28, 116.414, 0.00730841, NaN, NaN, NaN, 0.0299091, "- N/A -   "
4.29, 116.768, 0.00732507, NaN, NaN, NaN, 0.0299091, "- N/A -   "
4.3, 117.004, 0.00734173, NaN, NaN, NaN, 0.0299091, "- N/A -   "
4.31, 117.594, 0.00736117, NaN, NaN, NaN, 0.0286883, "- N/A -   "
4.32, 117.83, 0.00737783, NaN, NaN, NaN, 0.0286883, "- N/A -   "
4.33, 118.183, 0.00739449, NaN, NaN, NaN, 0.0299091, "- N/A -   "
4.34, 118.419, 0.00740837, NaN, NaN, NaN, 0.0299091, "- N/A -   "
4.35, 118.655, 0.00742503, NaN, NaN, NaN, 0.03112983, "- N/A -   "
4.36, 119.009, 0.00743892, NaN, NaN, NaN, 0.03112983, "- N/A -   "
4.37, 119.363, 0.00745558, NaN, NaN, NaN, 0.0323506, "- N/A -   "
4.38, 119.599, 0.00746946, NaN, NaN, NaN, 0.0323506, "- N/A -   "
4.39, 119.953, 0.00748612, NaN, NaN, NaN, 0.0323506, "- N/A -   "
4.4, 120.306, 0.00750278, NaN, NaN, NaN, 0.0335714, "- N/A -   "
4.41, 120.66, 0.00751667, NaN, NaN, NaN, 0.0335714, "- N/A -   "
4.42, 121.014, 0.00753333, NaN, NaN, NaN, 0.0335714, "- N/A -   "
4.43, 121.25, 0.00754999, NaN, NaN, NaN, 0.0347922, "- N/A -   "
4.44, 121.486, 0.007566649, NaN, NaN, NaN, 0.0347922, "- N/A -   "
4.45, 121.84, 0.00758053, NaN, NaN, NaN, 0.0347922, "- N/A -   "
4.46, 122.194, 0.00759719, NaN, NaN, NaN, 0.03601294, "- N/A -   "
4.47, 122.429, 0.00761385, NaN, NaN, NaN, 0.03601294, "- N/A -   "
4.48, 122.783, 0.00763051, NaN, NaN, NaN, 0.03601294, "- N/A -   "
4.49, 123.137, 0.007647175, NaN, NaN, NaN, 0.03601294, "- N/A -   "
4.5, 123.491, 0.00766106, NaN, NaN, NaN, 0.03601294, "- N/A -   "
4.51, 123.7269, 0.007677719, NaN, NaN, NaN, 0.03601294, "- N/A -   "
4.52, 124.081, 0.00769438, NaN, NaN, NaN, 0.03601294, "- N/A -   "
4.53, 124.317, 0.00770826, NaN, NaN, NaN, 0.0372337, "- N/A -   "
4.54, 124.553, 0.007724924, NaN, NaN, NaN, 0.0372337, "- N/A -   "
4.55, 125.024, 0.00774158, NaN, NaN, NaN, 0.0372337, "- N/A -   "
4.56, 125.26, 0.007758245, NaN, NaN, NaN, 0.0372337, "- N/A -   "
4.57, 125.614, 0.007774906, NaN, NaN, NaN, 0.0372337, "- N/A -   "
4.58, 125.9679, 0.00779157, NaN, NaN, NaN, 0.0372337, "- N/A -   "
4.59, 126.204, 0.00780823, NaN, NaN, NaN, 0.0372337, "- N/A -   "
4.6, 126.558, 0.00782211, NaN, NaN, NaN, 0.0384545, "- N/A -   "
4.61, 126.794, 0.007835994, NaN, NaN, NaN, 0.0396753, "- N/A -   "
4.62, 127.147, 0.007849878, NaN, NaN, NaN, 0.04089605, "- N/A -   "
4.63, 127.383, 0.007863762, NaN, NaN, NaN, 0.04211683, "- N/A -   "
4.64, 127.619, 0.007880422, NaN, NaN, NaN, 0.04211683, "- N/A -   "
4.65, 127.973, 0.00789431, NaN, NaN, NaN, 0.0433376, "- N/A -   "
4.66, 128.209, 0.007910966, NaN, NaN, NaN, 0.0433376, "- N/A -   "
4.67, 128.563, 0.007927627, NaN, NaN, NaN, 0.0445584, "- N/A -   "
4.68, 128.799, 0.00794151, NaN, NaN, NaN, 0.0445584, "- N/A -   "
4.69, 129.152, 0.007958171, NaN, NaN, NaN, 0.0445584, "- N/A -   "
4.7, 129.506, 0.007974831, NaN, NaN, NaN, 0.0445584, "- N/A -   "
4.71, 129.742, 0.007988716, NaN, NaN, NaN, 0.04577916, "- N/A -   "
4.72, 130.096, 0.008005376, NaN, NaN, NaN, 0.04577916, "- N/A -   "
4.73, 130.332, 0.008024813, NaN, NaN, NaN, 0.04577916, "- N/A -   "
4.74, 130.6858, 0.008041474, NaN, NaN, NaN, 0.0445584, "- N/A -   "
4.75, 131.1576, 0.00805813, NaN, NaN, NaN, 0.0445584, "- N/A -   "
4.76, 131.393, 0.008077571, NaN, NaN, NaN, 0.0433376, "- N/A -   "
4.77, 131.747, 0.008097009, NaN, NaN, NaN, 0.0433376, "- N/A -   "
4.78, 132.219, 0.008113669, NaN, NaN, NaN, 0.04211683, "- N/A -   "
4.79, 132.573, 0.008135883, NaN, NaN, NaN, 0.04089605, "- N/A -   "
4.8, 132.9268, 0.00815532, NaN, NaN, NaN, 0.0384545, "- N/A -   "
4.81, 133.281, 0.00817476, NaN, NaN, NaN, 0.0384545, "- N/A -   "
4.82, 133.634, 0.008191418, NaN, NaN, NaN, 0.0372337, "- N/A -   "
4.83, 133.988, 0.008210856, NaN, NaN, NaN, 0.03601294, "- N/A -   "
4.84, 134.342, 0.008230293, NaN, NaN, NaN, 0.0347922, "- N/A -   "
4.85, 134.814, 0.00824973, NaN, NaN, NaN, 0.0335714, "- N/A -   "
4.86, 135.1678, 0.00826917, NaN, NaN, NaN, 0.0323506, "- N/A -   "
4.87, 135.522, 0.008285828, NaN, NaN, NaN, 0.0323506, "- N/A -   "
4.88, 135.758, 0.008305265, NaN, NaN, NaN, 0.03112983, "- N/A -   "
4.89, 136.111, 0.008324702, NaN, NaN, NaN, 0.03112983, "- N/A -   "
4.9, 136.465, 0.008341363, NaN, NaN, NaN, 0.0299091, "- N/A -   "
4.91, 136.819, 0.008358023, NaN, NaN, NaN, 0.0299091, "- N/A -   "
4.92, 137.173, 0.00837468, NaN, NaN, NaN, 0.0299091, "- N/A -   "
4.93, 137.291, 0.008391344, NaN, NaN, NaN, 0.03112983, "- N/A -   "
4.94, 137.527, 0.008405228, NaN, NaN, NaN, 0.03112983, "- N/A -   "
4.95, 137.8806, 0.008419112, NaN, NaN, NaN, 0.0323506, "- N/A -   "
4.96, 138.116, 0.008433, NaN, NaN, NaN, 0.0335714, "- N/A -   "
4.97, 138.352, 0.008449656, NaN, NaN, NaN, 0.0347922, "- N/A -   "
4.98, 138.706, 0.00846354, NaN, NaN, NaN, 0.0347922, "- N/A -   "
4.99, 138.942, 0.008480201, NaN, NaN, NaN, 0.0347922, "- N/A -   "
5, 139.296, 0.008496861, NaN, NaN, NaN, 0.03601294, "- N/A -   "
5.01, 139.532, 0.008510744, NaN, NaN, NaN, 0.03601294, "- N/A -   "
5.02, 139.8857, 0.008527406, NaN, NaN, NaN, 0.03601294, "- N/A -   "
5.03, 140.004, 0.008544065, NaN, NaN, NaN, 0.0372337, "- N/A -   "
5.04, 140.357, 0.008560726, NaN, NaN, NaN, 0.0372337, "- N/A -   "
5.05, 140.711, 0.008574611, NaN, NaN, NaN, 0.0372337, "- N/A -   "
5.06, 141.065, 0.008594047, NaN, NaN, NaN, 0.0372337, "- N/A -   "
5.07, 141.301, 0.008610708, NaN, NaN, NaN, 0.03601294, "- N/A -   "
5.08, 141.773, 0.008630145, NaN, NaN, NaN, 0.0347922, "- N/A -   "
5.09, 142.1267, 0.008646806, NaN, NaN, NaN, 0.0347922, "- N/A -   "
5.1, 142.481, 0.00866624, NaN, NaN, NaN, 0.0335714, "- N/A -   "
5.11, 142.8344, 0.008682903, NaN, NaN, NaN, 0.0335714, "- N/A -   "
5.12, 143.188, 0.008702341, NaN, NaN, NaN, 0.0323506, "- N/A -   "
5.13, 143.542, 0.008719001, NaN, NaN, NaN, 0.0323506, "- N/A -   "
5.14, 143.778, 0.008735661, NaN, NaN, NaN, 0.0323506, "- N/A -   "
5.15, 144.014, 0.008752322, NaN, NaN, NaN, 0.0323506, "- N/A -   "
5.16, 144.368, 0.008768982, NaN, NaN, NaN, 0.0323506, "- N/A -   "
5.17, 144.604, 0.008785644, NaN, NaN, NaN, 0.0323506, "- N/A -   "
5.18, 144.957, 0.008799527, NaN, NaN, NaN, 0.0335714, "- N/A -   "
5.19, 145.193, 0.008816187, NaN, NaN, NaN, 0.0347922, "- N/A -   "
5.2, 145.429, 0.008830071, NaN, NaN, NaN, 0.0347922, "- N/A -   "
5.21, 145.783, 0.008846732, NaN, NaN, NaN, 0.0347922, "- N/A -   "
5.22, 146.019, 0.008860615, NaN, NaN, NaN, 0.03601294, "- N/A -   "
5.23, 146.255, 0.00887728, NaN, NaN, NaN, 0.0372337, "- N/A -   "
5.24, 146.491, 0.00889116, NaN, NaN, NaN, 0.0372337, "- N/A -   "
5.25, 146.963, 0.008905044, NaN, NaN, NaN, 0.0384545, "- N/A -   "
5.26, 147.0805, 0.008918927, NaN, NaN, NaN, 0.0396753, "- N/A -   "
5.27, 147.316, 0.00893281, NaN, NaN, NaN, 0.04089605, "- N/A -   "
5.28, 147.434, 0.008946694, NaN, NaN, NaN, 0.04211683, "- N/A -   "
5.29, 147.788, 0.008963356, NaN, NaN, NaN, 0.04211683, "- N/A -   "
5.3, 148.142, 0.008977239, NaN, NaN, NaN, 0.0433376, "- N/A -   "
5.31, 148.496, 0.008993899, NaN, NaN, NaN, 0.0433376, "- N/A -   "
5.32, 148.6138, 0.00901056, NaN, NaN, NaN, 0.0445584, "- N/A -   "
5.33, 148.968, 0.00902722, NaN, NaN, NaN, 0.0433376, "- N/A -   "
5.34, 149.439, 0.009043881, NaN, NaN, NaN, 0.0433376, "- N/A -   "
5.35, 149.675, 0.009063318, NaN, NaN, NaN, 0.04211683, "- N/A -   "
5.36, 150.029, 0.009082756, NaN, NaN, NaN, 0.04089605, "- N/A -   "
5.37, 150.383, 0.00909942, NaN, NaN, NaN, 0.04211683, "- N/A -   "
5.38, 150.737, 0.009116077, NaN, NaN, NaN, 0.04089605, "- N/A -   "
5.39, 150.973, 0.009132737, NaN, NaN, NaN, 0.04089605, "- N/A -   "
5.4, 151.327, 0.009152175, NaN, NaN, NaN, 0.0396753, "- N/A -   "
5.41, 151.5625, 0.009168834, NaN, NaN, NaN, 0.0396753, "- N/A -   "
5.42, 151.916, 0.009185496, NaN, NaN, NaN, 0.0396753, "- N/A -   "
5.43, 152.27, 0.009202156, NaN, NaN, NaN, 0.0396753, "- N/A -   "
5.44, 152.624, 0.009218817, NaN, NaN, NaN, 0.0396753, "- N/A -   "
5.45, 152.86, 0.009235477, NaN, NaN, NaN, 0.0396753, "- N/A -   "
5.46, 153.214, 0.009254914, NaN, NaN, NaN, 0.0396753, "- N/A -   "
5.47, 153.568, 0.009271575, NaN, NaN, NaN, 0.0384545, "- N/A -   "
5.48, 153.8035, 0.009291012, NaN, NaN, NaN, 0.0372337, "- N/A -   "
5.49, 154.2753, 0.009310449, NaN, NaN, NaN, 0.0372337, "- N/A -   "
5.5, 154.511, 0.00932711, NaN, NaN, NaN, 0.03601294, "- N/A -   "
5.51, 154.865, 0.00934377, NaN, NaN, NaN, 0.03601294, "- N/A -   "
5.52, 155.101, 0.009363208, NaN, NaN, NaN, 0.03601294, "- N/A -   "
5.53, 155.573, 0.009379867, NaN, NaN, NaN, 0.0347922, "- N/A -   "
5.54, 155.809, 0.009399305, NaN, NaN, NaN, 0.0335714, "- N/A -   "
5.55, 156.162, 0.00941597, NaN, NaN, NaN, 0.0335714, "- N/A -   "
5.56, 156.398, 0.009432626, NaN, NaN, NaN, 0.0347922, "- N/A -   "
5.57, 156.634, 0.009449286, NaN, NaN, NaN, 0.0347922, "- N/A -   "
5.58, 156.988, 0.009463171, NaN, NaN, NaN, 0.0347922, "- N/A -   "
5.59, 157.224, 0.009479831, NaN, NaN, NaN, 0.0347922, "- N/A -   "
5.6, 157.46, 0.009493715, NaN, NaN, NaN, 0.03601294, "- N/A -   "
5.61, 157.814, 0.009507598, NaN, NaN, NaN, 0.0372337, "- N/A -   "
5.62, 158.0496, 0.009524259, NaN, NaN, NaN, 0.0372337, "- N/A -   "
5.63, 158.2855, 0.009540919, NaN, NaN, NaN, 0.0372337, "- N/A -   "
5.64, 158.639, 0.009557581, NaN, NaN, NaN, 0.0372337, "- N/A -   "
5.65, 158.9932, 0.009577017, NaN, NaN, NaN, 0.03601294, "- N/A -   "
5.66, 159.347, 0.009596455, NaN, NaN, NaN, 0.0347922, "- N/A -   "
5.67, 159.701, 0.009610339, NaN, NaN, NaN, 0.03601294, "- N/A -   "
5.68, 160.055, 0.009629775, NaN, NaN, NaN, 0.03601294, "- N/A -   "
5.69, 160.173, 0.009646436, NaN, NaN, NaN, 0.0347922, "- N/A -   "
5.7, 160.644, 0.009665873, NaN, NaN, NaN, 0.0335714, "- N/A -   "
5.71, 160.998, 0.009685311, NaN, NaN, NaN, 0.0323506, "- N/A -   "
5.72, 161.352, 0.009701971, NaN, NaN, NaN, 0.0335714, "- N/A -   "
5.73, 161.588, 0.00971863, NaN, NaN, NaN, 0.0323506, "- N/A -   "
5.74, 161.942, 0.009735292, NaN, NaN, NaN, 0.0323506, "- N/A -   "
5.75, 162.178, 0.009751952, NaN, NaN, NaN, 0.0323506, "- N/A -   "
5.76, 162.414, 0.009768613, NaN, NaN, NaN, 0.0323506, "- N/A -   "
5.77, 162.768, 0.009785273, NaN, NaN, NaN, 0.0323506, "- N/A -   "
5.78, 163.121, 0.00980193, NaN, NaN, NaN, 0.0323506, "- N/A -   "
5.79, 163.475, 0.009821371, NaN, NaN, NaN, 0.0323506, "- N/A -   "
5.8, 163.593, 0.009835254, NaN, NaN, NaN, 0.0323506, "- N/A -   "
5.81, 163.947, 0.009851915, NaN, NaN, NaN, 0.0335714, "- N/A -   "
5.82, 164.183, 0.009865799, NaN, NaN, NaN, 0.0335714, "- N/A -   "
5.83, 164.537, 0.009882459, NaN, NaN, NaN, 0.0347922, "- N/A -   "
5.84, 164.773, 0.009896343, NaN, NaN, NaN, 0.0347922, "- N/A -   "
5.85, 165.126, 0.009913004, NaN, NaN, NaN, 0.0347922, "- N/A -   "
5.86, 165.2444, 0.009929664, NaN, NaN, NaN, 0.0347922, "- N/A -   "
5.87, 165.598, 0.009946325, NaN, NaN, NaN, 0.0347922, "- N/A -   "
5.88, 165.952, 0.009962985, NaN, NaN, NaN, 0.0347922, "- N/A -   "
5.89, 166.306, 0.009982423, NaN, NaN, NaN, 0.0335714, "- N/A -   "
5.9, 166.542, 0.0100019, NaN, NaN, NaN, 0.0335714, "- N/A -   "
5.91, 167.014, 0.0100185, NaN, NaN, NaN, 0.0323506, "- N/A -   "
5.92, 167.367, 0.0100352, NaN, NaN, NaN, 0.0323506, "- N/A -   "
5.93, 167.603, 0.0100518, NaN, NaN, NaN, 0.0323506, "- N/A -   "
5.94, 167.839, 0.0100685, NaN, NaN, NaN, 0.0335714, "- N/A -   "
5.95, 168.075, 0.0100824, NaN, NaN, NaN, 0.0335714, "- N/A -   "
[...]
14.91, 480.5087, 0.0249908, NaN, NaN, NaN, 0.04577916, "- N/A -   "
14.94, 481.569, 0.025038, NaN, NaN, NaN, 0.04577916, "- N/A -   "
14.97, 482.7474, 0.025088, NaN, NaN, NaN, 0.04699994, "- N/A -   "
15, 484.0435, 0.0251407, NaN, NaN, NaN, 0.0445584, "- N/A -   "
15.03, 485.5752, 0.0252018, NaN, NaN, NaN, 0.04089605, "- N/A -   "
15.06, 486.8713, 0.0252601, NaN, NaN, NaN, 0.0372337, "- N/A -   "
15.09, 488.2852, 0.0253184, NaN, NaN, NaN, 0.0323506, "- N/A -   "
15.12, 489.817, 0.0253767, NaN, NaN, NaN, 0.0299091, "- N/A -   "
15.15, 490.995, 0.0254295, NaN, NaN, NaN, 0.0274675, "- N/A -   "
15.18, 492.173, 0.0254795, NaN, NaN, NaN, 0.0274675, "- N/A -   "
15.21, 493.2339, 0.0255239, NaN, NaN, NaN, 0.0299091, "- N/A -   "
15.24, 494.1765, 0.0255656, NaN, NaN, NaN, 0.0335714, "- N/A -   "
15.27, 495.3548, 0.0256155, NaN, NaN, NaN, 0.0335714, "- N/A -   "
15.3, 496.7687, 0.0256738, NaN, NaN, NaN, 0.03112983, "- N/A -   "
15.33, 497.947, 0.0257238, NaN, NaN, NaN, 0.03112983, "- N/A -   "
15.36, 499.1252, 0.0257738, NaN, NaN, NaN, 0.0299091, "- N/A -   "
15.39, 500.3035, 0.02581824, NaN, NaN, NaN, 0.0323506, "- N/A -   "
15.42, 501.364, 0.0258627, NaN, NaN, NaN, 0.0347922, "- N/A -   "
15.45, 502.424, 0.0259099, NaN, NaN, NaN, 0.03601294, "- N/A -   "
15.48, 503.6026, 0.0259571, NaN, NaN, NaN, 0.0372337, "- N/A -   "
15.51, 504.663, 0.0260015, NaN, NaN, NaN, 0.0396753, "- N/A -   "
15.54, 505.606, 0.02604871, NaN, NaN, NaN, 0.04089605, "- N/A -   "
15.57, 506.7839, 0.0260959, NaN, NaN, NaN, 0.04211683, "- N/A -   "
15.6, 508.08, 0.0261487, NaN, NaN, NaN, 0.04211683, "- N/A -   "
15.63, 509.258, 0.0261959, NaN, NaN, NaN, 0.04211683, "- N/A -   "
15.66, 510.437, 0.02624586, NaN, NaN, NaN, 0.04211683, "- N/A -   "
15.69, 511.85, 0.0263014, NaN, NaN, NaN, 0.0396753, "- N/A -   "
15.72, 513.264, 0.0263569, NaN, NaN, NaN, 0.0372337, "- N/A -   "
15.75, 514.4462, 0.0264097, NaN, NaN, NaN, 0.03601294, "- N/A -   "
15.78, 515.7474, 0.0264624, NaN, NaN, NaN, 0.0347922, "- N/A -   "
15.81, 517.048, 0.0265124, NaN, NaN, NaN, 0.0347922, "- N/A -   "
15.84, 518.1129, 0.02656241, NaN, NaN, NaN, 0.03601294, "- N/A -   "
15.87, 519.414, 0.0266152, NaN, NaN, NaN, 0.0347922, "- N/A -   "
15.9, 520.7151, 0.0266679, NaN, NaN, NaN, 0.0323506, "- N/A -   "
15.93, 522.0162, 0.0267207, NaN, NaN, NaN, 0.03112983, "- N/A -   "
15.96, 523.081, 0.0267679, NaN, NaN, NaN, 0.0323506, "- N/A -   "
15.99, 524.264, 0.02681787, NaN, NaN, NaN, 0.0335714, "- N/A -   "
16.02, 525.565, 0.0268679, NaN, NaN, NaN, 0.0335714, "- N/A -   "
16.05, 526.629, 0.02691228, NaN, NaN, NaN, 0.0347922, "- N/A -   "
16.08, 527.6937, 0.0269595, NaN, NaN, NaN, 0.03601294, "- N/A -   "
16.11, 528.8765, 0.02700669, NaN, NaN, NaN, 0.0372337, "- N/A -   "
16.14, 530.0593, 0.0270567, NaN, NaN, NaN, 0.0372337, "- N/A -   "
16.17, 531.3604, 0.02710943, NaN, NaN, NaN, 0.03601294, "- N/A -   "
16.2, 532.6615, 0.0271594, NaN, NaN, NaN, 0.03601294, "- N/A -   "
16.23, 533.726, 0.0272066, NaN, NaN, NaN, 0.0372337, "- N/A -   "
16.26, 534.7905, 0.027251, NaN, NaN, NaN, 0.0396753, "- N/A -   "
16.29, 535.9733, 0.0272955, NaN, NaN, NaN, 0.04211683, "- N/A -   "
16.32, 537.0379, 0.0273455, NaN, NaN, NaN, 0.04211683, "- N/A -   "
16.35, 538.339, 0.0273954, NaN, NaN, NaN, 0.04211683, "- N/A -   "
16.38, 539.5218, 0.02744264, NaN, NaN, NaN, 0.0433376, "- N/A -   "
16.41, 540.8229, 0.0274926, NaN, NaN, NaN, 0.0433376, "- N/A -   "
16.44, 542.124, 0.02754538, NaN, NaN, NaN, 0.04211683, "- N/A -   "
16.47, 543.543, 0.0276037, NaN, NaN, NaN, 0.0384545, "- N/A -   "
16.5, 544.9627, 0.027662, NaN, NaN, NaN, 0.0347922, "- N/A -   "
16.53, 546.3821, 0.0277203, NaN, NaN, NaN, 0.0323506, "- N/A -   "
16.56, 547.683, 0.0277703, NaN, NaN, NaN, 0.03112983, "- N/A -   "
16.59, 548.7477, 0.0278175, NaN, NaN, NaN, 0.0323506, "- N/A -   "
16.62, 549.9305, 0.0278675, NaN, NaN, NaN, 0.0335714, "- N/A -   "
16.65, 551.232, 0.02792024, NaN, NaN, NaN, 0.03112983, "- N/A -   "
16.68, 552.651, 0.0279786, NaN, NaN, NaN, 0.0286883, "- N/A -   "
16.71, 554.1886, 0.02803409, NaN, NaN, NaN, 0.0250259, "- N/A -   "
16.74, 555.2531, 0.02808407, NaN, NaN, NaN, 0.0250259, "- N/A -   "
16.77, 556.3177, 0.0281285, NaN, NaN, NaN, 0.0274675, "- N/A -   "
16.8, 557.3822, 0.0281729, NaN, NaN, NaN, 0.0299091, "- N/A -   "
16.83, 558.565, 0.02822013, NaN, NaN, NaN, 0.03112983, "- N/A -   "
16.86, 559.7478, 0.0282646, NaN, NaN, NaN, 0.0335714, "- N/A -   "
16.89, 560.694, 0.0283062, NaN, NaN, NaN, 0.0372337, "- N/A -   "
16.92, 561.6403, 0.02834786, NaN, NaN, NaN, 0.04089605, "- N/A -   "
16.95, 562.705, 0.0283923, NaN, NaN, NaN, 0.0433376, "- N/A -   "
16.98, 563.769, 0.0284367, NaN, NaN, NaN, 0.04577916, "- N/A -   "
17.01, 564.9522, 0.0284839, NaN, NaN, NaN, 0.04699994, "- N/A -   "
17.04, 566.3715, 0.02853668, NaN, NaN, NaN, 0.04577916, "- N/A -   "
17.07, 567.7909, 0.0285922, NaN, NaN, NaN, 0.0445584, "- N/A -   "
17.1, 569.329, 0.0286533, NaN, NaN, NaN, 0.04089605, "- N/A -   "
17.13, 570.7479, 0.0287116, NaN, NaN, NaN, 0.0372337, "- N/A -   "
17.16, 571.9307, 0.0287616, NaN, NaN, NaN, 0.03601294, "- N/A -   "
17.19, 573.2318, 0.0288144, NaN, NaN, NaN, 0.0347922, "- N/A -   "
17.22, 574.5329, 0.0288643, NaN, NaN, NaN, 0.0347922, "- N/A -   "
17.25, 575.5975, 0.0289171, NaN, NaN, NaN, 0.0347922, "- N/A -   "
17.28, 577.0168, 0.0289699, NaN, NaN, NaN, 0.0323506, "- N/A -   "
17.31, 578.318, 0.0290198, NaN, NaN, NaN, 0.0323506, "- N/A -   "
17.34, 579.737, 0.0290726, NaN, NaN, NaN, 0.03112983, "- N/A -   "
17.37, 580.9201, 0.0291226, NaN, NaN, NaN, 0.03112983, "- N/A -   "
17.4, 582.103, 0.0291753, NaN, NaN, NaN, 0.03112983, "- N/A -   "
17.43, 583.404, 0.0292225, NaN, NaN, NaN, 0.03112983, "- N/A -   "
17.46, 584.5868, 0.0292697, NaN, NaN, NaN, 0.0323506, "- N/A -   "
17.49, 585.5331, 0.0293142, NaN, NaN, NaN, 0.0347922, "- N/A -   "
17.52, 586.7158, 0.0293586, NaN, NaN, NaN, 0.0372337, "- N/A -   "
17.55, 587.662, 0.02940025, NaN, NaN, NaN, 0.04089605, "- N/A -   "
17.58, 588.608, 0.0294419, NaN, NaN, NaN, 0.0445584, "- N/A -   "
17.61, 589.9094, 0.0294891, NaN, NaN, NaN, 0.04577916, "- N/A -   "
17.64, 591.3288, 0.0295419, NaN, NaN, NaN, 0.0445584, "- N/A -   "
17.67, 592.5116, 0.0295946, NaN, NaN, NaN, 0.0433376, "- N/A -   "
17.7, 593.5762, 0.0296418, NaN, NaN, NaN, 0.0445584, "- N/A -   "
17.73, 594.9955, 0.0296918, NaN, NaN, NaN, 0.0445584, "- N/A -   "
17.76, 596.297, 0.0297473, NaN, NaN, NaN, 0.0433376, "- N/A -   "
17.79, 597.716, 0.0298001, NaN, NaN, NaN, 0.04089605, "- N/A -   "
17.82, 599.0171, 0.02985286, NaN, NaN, NaN, 0.04089605, "- N/A -   "
17.85, 600.5547, 0.0299112, NaN, NaN, NaN, 0.03601294, "- N/A -   "
17.88, 602.211, 0.029975, NaN, NaN, NaN, 0.03112983, "- N/A -   "
17.91, 603.393, 0.03002502, NaN, NaN, NaN, 0.0299091, "- N/A -   "
17.94, 604.8128, 0.0300806, NaN, NaN, NaN, 0.0274675, "- N/A -   "
17.97, 606.1139, 0.0301305, NaN, NaN, NaN, 0.0274675, "- N/A -   "
18, 607.1784, 0.0301777, NaN, NaN, NaN, 0.0286883, "- N/A -   "
18.03, 608.2429, 0.0302249, NaN, NaN, NaN, 0.03112983, "- N/A -   "
18.06, 609.662, 0.0302749, NaN, NaN, NaN, 0.03112983, "- N/A -   "
18.09, 610.9634, 0.0303249, NaN, NaN, NaN, 0.0299091, "- N/A -   "
18.12, 611.91, 0.0303666, NaN, NaN, NaN, 0.0335714, "- N/A -   "
18.15, 612.9742, 0.03040821, NaN, NaN, NaN, 0.0372337, "- N/A -   "
18.18, 614.2753, 0.0304582, NaN, NaN, NaN, 0.0372337, "- N/A -   "
18.21, 615.576, 0.03051095, NaN, NaN, NaN, 0.03601294, "- N/A -   "
18.24, 616.7592, 0.0305582, NaN, NaN, NaN, 0.0372337, "- N/A -   "
18.27, 617.942, 0.0306054, NaN, NaN, NaN, 0.0396753, "- N/A -   "
18.3, 619.0065, 0.0306498, NaN, NaN, NaN, 0.04089605, "- N/A -   "
18.33, 620.189, 0.0306942, NaN, NaN, NaN, 0.0433376, "- N/A -   "
18.36, 621.254, 0.0307386, NaN, NaN, NaN, 0.04577916, "- N/A -   "
18.39, 622.437, 0.0307886, NaN, NaN, NaN, 0.04577916, "- N/A -   "
18.42, 623.9743, 0.03084416, NaN, NaN, NaN, 0.0433376, "- N/A -   "
18.45, 625.63, 0.0309052, NaN, NaN, NaN, 0.0384545, "- N/A -   "
18.48, 627.0496, 0.03096356, NaN, NaN, NaN, 0.03601294, "- N/A -   "
18.51, 628.469, 0.0310191, NaN, NaN, NaN, 0.0323506, "- N/A -   "
18.54, 629.888, 0.0310719, NaN, NaN, NaN, 0.03112983, "- N/A -   "
18.57, 631.071, 0.0311218, NaN, NaN, NaN, 0.03112983, "- N/A -   "
18.6, 632.1357, 0.03116904, NaN, NaN, NaN, 0.0335714, "- N/A -   "
18.63, 633.2002, 0.03121069, NaN, NaN, NaN, 0.03601294, "- N/A -   "
18.66, 634.383, 0.0312607, NaN, NaN, NaN, 0.0372337, "- N/A -   "
18.69, 635.684, 0.0313079, NaN, NaN, NaN, 0.0384545, "- N/A -   "
18.72, 636.985, 0.0313579, NaN, NaN, NaN, 0.0372337, "- N/A -   "
18.75, 638.4046, 0.0314134, NaN, NaN, NaN, 0.0347922, "- N/A -   "
18.78, 639.9422, 0.0314717, NaN, NaN, NaN, 0.03112983, "- N/A -   "
18.81, 641.125, 0.03151891, NaN, NaN, NaN, 0.0323506, "- N/A -   "
18.84, 642.1895, 0.0315633, NaN, NaN, NaN, 0.0347922, "- N/A -   "
18.87, 643.3724, 0.0316105, NaN, NaN, NaN, 0.0372337, "- N/A -   "
18.9, 644.5552, 0.0316522, NaN, NaN, NaN, 0.0396753, "- N/A -   "
18.93, 645.738, 0.0317022, NaN, NaN, NaN, 0.04089605, "- N/A -   "
18.96, 646.8025, 0.0317466, NaN, NaN, NaN, 0.04211683, "- N/A -   "
18.99, 648.2219, 0.0317994, NaN, NaN, NaN, 0.04089605, "- N/A -   "
19.02, 649.405, 0.0318521, NaN, NaN, NaN, 0.04089605, "- N/A -   "
19.05, 650.7058, 0.0318993, NaN, NaN, NaN, 0.04089605, "- N/A -   "
19.08, 652.007, 0.03194653, NaN, NaN, NaN, 0.04211683, "- N/A -   "
19.11, 653.308, 0.0320021, NaN, NaN, NaN, 0.0396753, "- N/A -   "
19.14, 654.7273, 0.0320576, NaN, NaN, NaN, 0.0384545, "- N/A -   "
19.17, 656.1467, 0.03211036, NaN, NaN, NaN, 0.0372337, "- N/A -   "
19.2, 657.448, 0.0321576, NaN, NaN, NaN, 0.0372337, "- N/A -   "
19.23, 658.5123, 0.0322075, NaN, NaN, NaN, 0.0372337, "- N/A -   "
19.26, 659.8134, 0.0322575, NaN, NaN, NaN, 0.0384545, "- N/A -   "
19.29, 661.1145, 0.03230751, NaN, NaN, NaN, 0.0372337, "- N/A -   "
19.32, 662.5339, 0.032363, NaN, NaN, NaN, 0.0347922, "- N/A -   "
19.35, 663.953, 0.03241858, NaN, NaN, NaN, 0.0323506, "- N/A -   "
19.38, 665.373, 0.0324713, NaN, NaN, NaN, 0.03112983, "- N/A -   "
19.41, 666.6737, 0.0325241, NaN, NaN, NaN, 0.0299091, "- N/A -   "
19.44, 667.8565, 0.03257685, NaN, NaN, NaN, 0.0299091, "- N/A -   "
19.47, 669.2759, 0.03262406, NaN, NaN, NaN, 0.0299091, "- N/A -   "
19.5, 670.4587, 0.03267404, NaN, NaN, NaN, 0.03112983, "- N/A -   "
19.53, 671.642, 0.03271847, NaN, NaN, NaN, 0.0323506, "- N/A -   "
19.56, 672.706, 0.0327629, NaN, NaN, NaN, 0.0347922, "- N/A -   "
19.59, 673.8888, 0.0328101, NaN, NaN, NaN, 0.03601294, "- N/A -   "
19.62, 675.19, 0.03286008, NaN, NaN, NaN, 0.0372337, "- N/A -   "
19.65, 676.1361, 0.0329017, NaN, NaN, NaN, 0.0396753, "- N/A -   "
19.68, 677.437, 0.0329517, NaN, NaN, NaN, 0.04089605, "- N/A -   "
19.71, 678.738, 0.0330017, NaN, NaN, NaN, 0.04089605, "- N/A -   "
19.74, 679.921, 0.0330461, NaN, NaN, NaN, 0.04211683, "- N/A -   "
19.77, 680.986, 0.0330906, NaN, NaN, NaN, 0.0445584, "- N/A -   "
19.8, 682.1685, 0.0331378, NaN, NaN, NaN, 0.04577916, "- N/A -   "
19.83, 683.5878, 0.0331905, NaN, NaN, NaN, 0.04577916, "- N/A -   "
19.86, 685.2438, 0.0332488, NaN, NaN, NaN, 0.04089605, "- N/A -   "
19.89, 686.9, 0.0333099, NaN, NaN, NaN, 0.03601294, "- N/A -   "
19.92, 688.3191, 0.0333682, NaN, NaN, NaN, 0.0335714, "- N/A -   "
19.95, 689.738, 0.03341821, NaN, NaN, NaN, 0.0323506, "- N/A -   "
19.98, 690.921, 0.0334654, NaN, NaN, NaN, 0.0335714, "- N/A -   "
20.01, 692.104, 0.0335154, NaN, NaN, NaN, 0.0335714, "- N/A -   "
20.04, 693.287, 0.0335626, NaN, NaN, NaN, 0.0347922, "- N/A -   "
20.07, 694.588, 0.0336126, NaN, NaN, NaN, 0.0347922, "- N/A -   "
20.1, 696.0073, 0.03366534, NaN, NaN, NaN, 0.0335714, "- N/A -   "
20.13, 697.427, 0.0337209, NaN, NaN, NaN, 0.03112983, "- N/A -   "
20.16, 698.7278, 0.0337736, NaN, NaN, NaN, 0.0299091, "- N/A -   "
20.19, 700.029, 0.0338236, NaN, NaN, NaN, 0.03112983, "- N/A -   "
20.22, 701.33, 0.03387082, NaN, NaN, NaN, 0.03112983, "- N/A -   "
20.25, 702.3945, 0.0339125, NaN, NaN, NaN, 0.0347922, "- N/A -   "
20.28, 703.341, 0.03395412, NaN, NaN, NaN, 0.0384545, "- N/A -   "
20.31, 704.524, 0.0340013, NaN, NaN, NaN, 0.0396753, "- N/A -   "
20.34, 705.7064, 0.0340458, NaN, NaN, NaN, 0.04211683, "- N/A -   "
20.37, 706.7709, 0.0340902, NaN, NaN, NaN, 0.0445584, "- N/A -   "
20.4, 707.954, 0.03413739, NaN, NaN, NaN, 0.04577916, "- N/A -   "
20.43, 709.373, 0.03418737, NaN, NaN, NaN, 0.04577916, "- N/A -   "
20.46, 710.6742, 0.0342401, NaN, NaN, NaN, 0.0445584, "- N/A -   "
20.49, 712.2118, 0.0342957, NaN, NaN, NaN, 0.04211683, "- N/A -   "
20.52, 713.6312, 0.034354, NaN, NaN, NaN, 0.0396753, "- N/A -   "
20.55, 715.051, 0.0344067, NaN, NaN, NaN, 0.0372337, "- N/A -   "
20.58, 716.5882, 0.03446227, NaN, NaN, NaN, 0.03601294, "- N/A -   "
20.61, 718.008, 0.034515, NaN, NaN, NaN, 0.0347922, "- N/A -   "
20.64, 719.309, 0.03456501, NaN, NaN, NaN, 0.0335714, "- N/A -   "
20.67, 720.61, 0.0346178, NaN, NaN, NaN, 0.0335714, "- N/A -   "
20.7, 722.1474, 0.0346733, NaN, NaN, NaN, 0.0299091, "- N/A -   "
20.73, 723.567, 0.0347288, NaN, NaN, NaN, 0.0274675, "- N/A -   "
20.76, 724.7496, 0.03477882, NaN, NaN, NaN, 0.0274675, "- N/A -   "
20.79, 726.051, 0.0348288, NaN, NaN, NaN, 0.0274675, "- N/A -   "
20.82, 727.352, 0.03487878, NaN, NaN, NaN, 0.0274675, "- N/A -   "
20.85, 728.535, 0.0349232, NaN, NaN, NaN, 0.0299091, "- N/A -   "
20.88, 729.481, 0.03496486, NaN, NaN, NaN, 0.0335714, "- N/A -   "
20.91, 730.782, 0.0350093, NaN, NaN, NaN, 0.03601294, "- N/A -   "
20.94, 731.728, 0.03505094, NaN, NaN, NaN, 0.0396753, "- N/A -   "
20.97, 732.911, 0.0350981, NaN, NaN, NaN, 0.04211683, "- N/A -   "
21, 734.2121, 0.03514535, NaN, NaN, NaN, 0.04211683, "- N/A -   "
21.03, 735.395, 0.0351898, NaN, NaN, NaN, 0.0445584, "- N/A -   "
21.06, 736.696, 0.03524531, NaN, NaN, NaN, 0.0433376, "- N/A -   "
21.09, 738.1153, 0.0352925, NaN, NaN, NaN, 0.0433376, "- N/A -   "
21.12, 739.298, 0.03533972, NaN, NaN, NaN, 0.0445584, "- N/A -   "
21.15, 740.599, 0.03539248, NaN, NaN, NaN, 0.0433376, "- N/A -   "
21.18, 742.0186, 0.03544524, NaN, NaN, NaN, 0.04211683, "- N/A -   "
21.21, 743.5562, 0.035498, NaN, NaN, NaN, 0.04089605, "- N/A -   "
21.24, 744.976, 0.03555631, NaN, NaN, NaN, 0.0384545, "- N/A -   "
21.27, 746.7498, 0.0356202, NaN, NaN, NaN, 0.0323506, "- N/A -   "
21.3, 748.1692, 0.03567571, NaN, NaN, NaN, 0.0286883, "- N/A -   "
21.33, 749.4703, 0.03572569, NaN, NaN, NaN, 0.0299091, "- N/A -   "
21.36, 750.771, 0.0357757, NaN, NaN, NaN, 0.0286883, "- N/A -   "
21.39, 751.954, 0.0358257, NaN, NaN, NaN, 0.0299091, "- N/A -   "
21.42, 753.137, 0.0358701, NaN, NaN, NaN, 0.03112983, "- N/A -   "
21.45, 754.32, 0.0359173, NaN, NaN, NaN, 0.0335714, "- N/A -   "
21.48, 755.5026, 0.0359617, NaN, NaN, NaN, 0.03601294, "- N/A -   "
21.51, 756.567, 0.03600614, NaN, NaN, NaN, 0.0372337, "- N/A -   "
21.54, 758.1048, 0.0360561, NaN, NaN, NaN, 0.0372337, "- N/A -   "
21.57, 759.2876, 0.0361061, NaN, NaN, NaN, 0.0384545, "- N/A -   "
21.6, 760.5887, 0.0361561, NaN, NaN, NaN, 0.0384545, "- N/A -   "
21.63, 762.008, 0.0362088, NaN, NaN, NaN, 0.0384545, "- N/A -   "
21.66, 763.0726, 0.0362505, NaN, NaN, NaN, 0.04089605, "- N/A -   "
21.69, 764.374, 0.0363005, NaN, NaN, NaN, 0.04089605, "- N/A -   "
21.72, 765.5565, 0.0363477, NaN, NaN, NaN, 0.0433376, "- N/A -   "
21.75, 766.739, 0.0363949, NaN, NaN, NaN, 0.0445584, "- N/A -   "
21.78, 768.1587, 0.03644209, NaN, NaN, NaN, 0.0445584, "- N/A -   "
21.81, 769.4597, 0.03649485, NaN, NaN, NaN, 0.0433376, "- N/A -   "
21.84, 770.997, 0.0365532, NaN, NaN, NaN, 0.0396753, "- N/A -   "
21.87, 772.6533, 0.03661425, NaN, NaN, NaN, 0.03601294, "- N/A -   "
21.9, 774.191, 0.0366698, NaN, NaN, NaN, 0.0323506, "- N/A -   "
21.93, 775.6103, 0.0367253, NaN, NaN, NaN, 0.0299091, "- N/A -   "
21.96, 777.0297, 0.03677808, NaN, NaN, NaN, 0.0286883, "- N/A -   "
21.99, 777.976, 0.03682251, NaN, NaN, NaN, 0.0323506, "- N/A -   "
22.02, 779.159, 0.0368669, NaN, NaN, NaN, 0.0335714, "- N/A -   "
22.05, 780.46, 0.03691414, NaN, NaN, NaN, 0.0347922, "- N/A -   "
22.08, 781.6427, 0.0369613, NaN, NaN, NaN, 0.03601294, "- N/A -   "
22.11, 782.9437, 0.03700855, NaN, NaN, NaN, 0.0372337, "- N/A -   "
22.14, 784.363, 0.0370641, NaN, NaN, NaN, 0.03601294, "- N/A -   "
22.17, 785.7825, 0.03711684, NaN, NaN, NaN, 0.0335714, "- N/A -   "
22.2, 787.3201, 0.0371696, NaN, NaN, NaN, 0.0323506, "- N/A -   "
22.23, 788.5029, 0.0372196, NaN, NaN, NaN, 0.0323506, "- N/A -   "
22.26, 789.6858, 0.0372668, NaN, NaN, NaN, 0.0347922, "- N/A -   "
22.29, 790.9868, 0.0373112, NaN, NaN, NaN, 0.03601294, "- N/A -   "
22.32, 792.0514, 0.0373556, NaN, NaN, NaN, 0.0384545, "- N/A -   "
22.35, 793.1159, 0.0374001, NaN, NaN, NaN, 0.04211683, "- N/A -   "
22.38, 794.299, 0.0374473, NaN, NaN, NaN, 0.04211683, "- N/A -   "
22.41, 795.836, 0.03750281, NaN, NaN, NaN, 0.0396753, "- N/A -   "
22.44, 797.256, 0.0375556, NaN, NaN, NaN, 0.0384545, "- N/A -   "
22.47, 798.5568, 0.03760555, NaN, NaN, NaN, 0.0384545, "- N/A -   "
22.5, 799.8579, 0.0376555, NaN, NaN, NaN, 0.0396753, "- N/A -   "
22.53, 801.0407, 0.03770274, NaN, NaN, NaN, 0.0396753, "- N/A -   "
22.56, 802.342, 0.0377499, NaN, NaN, NaN, 0.04089605, "- N/A -   "
22.59, 803.6429, 0.0378027, NaN, NaN, NaN, 0.04089605, "- N/A -   "
22.62, 804.944, 0.0378527, NaN, NaN, NaN, 0.0396753, "- N/A -   "
22.65, 806.363, 0.0379027, NaN, NaN, NaN, 0.0396753, "- N/A -   "
22.68, 807.7828, 0.0379554, NaN, NaN, NaN, 0.0384545, "- N/A -   "
22.71, 809.0838, 0.03801096, NaN, NaN, NaN, 0.0372337, "- N/A -   "
22.74, 810.621, 0.03806649, NaN, NaN, NaN, 0.0335714, "- N/A -   "
22.77, 812.041, 0.0381193, NaN, NaN, NaN, 0.0323506, "- N/A -   "
22.8, 813.224, 0.03816923, NaN, NaN, NaN, 0.0335714, "- N/A -   "
22.83, 814.406, 0.03821644, NaN, NaN, NaN, 0.0335714, "- N/A -   "
22.86, 815.7076, 0.0382664, NaN, NaN, NaN, 0.0335714, "- N/A -   "
22.89, 817.0086, 0.03831362, NaN, NaN, NaN, 0.03601294, "- N/A -   "
22.92, 818.191, 0.03836083, NaN, NaN, NaN, 0.03601294, "- N/A -   "
22.95, 819.4925, 0.0384136, NaN, NaN, NaN, 0.0347922, "- N/A -   "
22.98, 821.0302, 0.0384663, NaN, NaN, NaN, 0.0335714, "- N/A -   "
23.01, 822.0947, 0.03851355, NaN, NaN, NaN, 0.0347922, "- N/A -   "
23.04, 823.159, 0.0385552, NaN, NaN, NaN, 0.0384545, "- N/A -   "
23.07, 824.342, 0.0385996, NaN, NaN, NaN, 0.04089605, "- N/A -   "
23.1, 825.6432, 0.0386496, NaN, NaN, NaN, 0.04089605, "- N/A -   "
23.13, 826.9442, 0.0386968, NaN, NaN, NaN, 0.04211683, "- N/A -   "
23.16, 828.245, 0.0387468, NaN, NaN, NaN, 0.04211683, "- N/A -   "
23.19, 829.5464, 0.0387968, NaN, NaN, NaN, 0.04211683, "- N/A -   "
23.22, 830.848, 0.0388468, NaN, NaN, NaN, 0.04211683, "- N/A -   "
23.25, 832.267, 0.0388995, NaN, NaN, NaN, 0.04089605, "- N/A -   "
23.28, 833.9228, 0.0389606, NaN, NaN, NaN, 0.0372337, "- N/A -   "
23.31, 835.46, 0.0390161, NaN, NaN, NaN, 0.0335714, "- N/A -   "
23.34, 836.762, 0.03906612, NaN, NaN, NaN, 0.0335714, "- N/A -   "
23.37, 838.1809, 0.0391189, NaN, NaN, NaN, 0.0323506, "- N/A -   "
23.4, 839.3637, 0.03916886, NaN, NaN, NaN, 0.0335714, "- N/A -   "
23.43, 840.5465, 0.0392188, NaN, NaN, NaN, 0.0335714, "- N/A -   "
23.46, 841.9659, 0.03926605, NaN, NaN, NaN, 0.0335714, "- N/A -   "
23.49, 843.267, 0.0393188, NaN, NaN, NaN, 0.0323506, "- N/A -   "
23.52, 844.686, 0.0393743, NaN, NaN, NaN, 0.0299091, "- N/A -   "
23.55, 846.224, 0.03942988, NaN, NaN, NaN, 0.0286883, "- N/A -   "
23.58, 847.5251, 0.03947986, NaN, NaN, NaN, 0.0274675, "- N/A -   "
23.61, 848.826, 0.03952984, NaN, NaN, NaN, 0.0274675, "- N/A -   "
23.64, 850.009, 0.039577, NaN, NaN, NaN, 0.0299091, "- N/A -   "
23.67, 851.0735, 0.0396187, NaN, NaN, NaN, 0.0335714, "- N/A -   "
23.7, 852.0198, 0.03965757, NaN, NaN, NaN, 0.0372337, "- N/A -   "
23.73, 853.0843, 0.03969922, NaN, NaN, NaN, 0.04211683, "- N/A -   "
23.76, 854.149, 0.03974087, NaN, NaN, NaN, 0.04577916, "- N/A -   "
23.79, 855.4499, 0.0397853, NaN, NaN, NaN, 0.04699994, "- N/A -   "
23.813, 856.3961, 0.0398242, NaN, NaN, NaN, 0.04699994, "- N/A -   "