File: 2_Tensile_Data/Hamel_ForceTest_Bolt6_Test11.csv
Time, Load (lb), Position (in), AxialStrain (in), TransverseStrain (in), Auxiliary (), Control Out (V), Stress (psi)
0.0, 9.907588, 0.0, NaN, NaN, NaN, -0.006714277, "- N/A -   "
0.01, 9.78964, 2.776752E-6, NaN, NaN, NaN, -6.103888E-4, "- N/A -   "
0.02, 9.907588, 2.776752E-6, NaN, NaN, NaN, 0.006714277, "- N/A -   "
0.03, 9.907588, 2.776752E-6, NaN, NaN, NaN, 0.01525972, "- N/A -   "
0.04, 9.907588, 5.553504E-6, NaN, NaN, NaN, 0.0335714, "- N/A -   "
0.05, 10.1435, 1.1107e-05, NaN, NaN, NaN, 0.05066227, "- N/A -   "
0.06, 10.26143, 2.49908e-05, NaN, NaN, NaN, 0.0640908, "- N/A -   "
0.07, 10.6153, 4.16513e-05, NaN, NaN, NaN, 0.0762986, "- N/A -   "
0.08, 11.0871, 6.108854E-5, NaN, NaN, NaN, 0.0872856, "- N/A -   "
0.09, 11.6768, 8.885606E-5, NaN, NaN, NaN, 0.095831, "- N/A -   "
0.1, 12.2665, 0.000116624, NaN, NaN, NaN, 0.103156, "- N/A -   "
0.11, 12.8563, 0.000147168, NaN, NaN, NaN, 0.09949338, "- N/A -   "
0.12, 13.564, 0.000177712, NaN, NaN, NaN, 0.09338949, "- N/A -   "
0.13, 14.0357, 0.00020548, NaN, NaN, NaN, 0.08850638, "- N/A -   "
0.14, 14.6255, 0.000233247, NaN, NaN, NaN, 0.08362327, "- N/A -   "
0.15, 15.2152, 2.582379E-4, NaN, NaN, NaN, 0.08118171, "- N/A -   "
0.16, 15.687, 2.832287E-4, NaN, NaN, NaN, 0.07751938, "- N/A -   "
0.17, 16.1588, 0.000308219, NaN, NaN, NaN, 0.07263627, "- N/A -   "
0.18, 16.6306, 0.000327657, NaN, NaN, NaN, 0.07141549, "- N/A -   "
0.19, 16.9844, 0.000349871, NaN, NaN, NaN, 0.0701947, "- N/A -   "
0.2, 17.3383, 3.69308E-4, NaN, NaN, NaN, 0.0689739, "- N/A -   "
0.21, 17.8101, 0.000388745, NaN, NaN, NaN, 0.06653238, "- N/A -   "
0.22, 18.2819, 4.081825E-4, NaN, NaN, NaN, 0.0653116, "- N/A -   "
0.23, 18.7536, 0.000430397, NaN, NaN, NaN, 0.0640908, "- N/A -   "
0.24, 19.1075, 0.000449834, NaN, NaN, NaN, 0.06287005, "- N/A -   "
0.25, 19.4613, 0.000469271, NaN, NaN, NaN, 0.0604285, "- N/A -   "
0.26, 19.9331, 4.887083E-4, NaN, NaN, NaN, 0.0592077, "- N/A -   "
0.27, 20.287, 5.081456E-4, NaN, NaN, NaN, 0.0579869, "- N/A -   "
0.28, 20.6408, 0.000527583, NaN, NaN, NaN, 0.05676616, "- N/A -   "
0.29, 21.1126, 5.470201E-4, NaN, NaN, NaN, 0.05676616, "- N/A -   "
0.3, 21.46644, 5.664574E-4, NaN, NaN, NaN, 0.0555454, "- N/A -   "
0.31, 21.93823, 5.858946E-4, NaN, NaN, NaN, 0.0543246, "- N/A -   "
0.32, 22.29207, 6.053319E-4, NaN, NaN, NaN, 0.05188305, "- N/A -   "
0.33, 22.7639, 0.000627546, NaN, NaN, NaN, 0.05066227, "- N/A -   "
0.34, 23.2357, 0.000646983, NaN, NaN, NaN, 0.0482207, "- N/A -   "
0.35, 23.4715, 0.00066642, NaN, NaN, NaN, 0.04699994, "- N/A -   "
0.36, 24.0613, 6.858577E-4, NaN, NaN, NaN, 0.04577916, "- N/A -   "
0.37, 24.29718, 0.000705295, NaN, NaN, NaN, 0.0445584, "- N/A -   "
0.38, 24.769, 0.000724732, NaN, NaN, NaN, 0.0433376, "- N/A -   "
0.39, 25.1228, 7.413927E-4, NaN, NaN, NaN, 0.0433376, "- N/A -   "
0.4, 25.4767, 7.6083E-4, NaN, NaN, NaN, 0.04211683, "- N/A -   "
0.41, 25.9484, 0.000780267, NaN, NaN, NaN, 0.04211683, "- N/A -   "
0.42, 26.3023, 7.969278E-4, NaN, NaN, NaN, 0.04089605, "- N/A -   "
0.43, 26.5382, 0.000813588, NaN, NaN, NaN, 0.04089605, "- N/A -   "
0.44, 27.01, 0.000833026, NaN, NaN, NaN, 0.04089605, "- N/A -   "
0.45, 27.3638, 8.524628E-4, NaN, NaN, NaN, 0.0396753, "- N/A -   "
0.46, 27.7177, 8.691233E-4, NaN, NaN, NaN, 0.0384545, "- N/A -   "
0.47, 28.0715, 8.857838E-4, NaN, NaN, NaN, 0.0384545, "- N/A -   "
0.48, 28.54329, 9.052211E-4, NaN, NaN, NaN, 0.0384545, "- N/A -   "
0.49, 28.89713, 9.218816E-4, NaN, NaN, NaN, 0.0384545, "- N/A -   "
0.5, 29.251, 9.385421E-4, NaN, NaN, NaN, 0.0372337, "- N/A -   "
0.51, 29.6048, 0.000957979, NaN, NaN, NaN, 0.03601294, "- N/A -   "
0.58, 32.3176, 0.00108571, NaN, NaN, NaN, 0.03112983, "- N/A -   "
0.65, 34.7945, 0.00120511, NaN, NaN, NaN, 0.0299091, "- N/A -   "
0.72, 36.9176, 0.00131063, NaN, NaN, NaN, 0.03601294, "- N/A -   "
0.79, 39.15856, 0.00141337, NaN, NaN, NaN, 0.04089605, "- N/A -   "
0.86, 41.39956, 0.00152166, NaN, NaN, NaN, 0.0445584, "- N/A -   "
0.93, 43.9944, 0.00163828, NaN, NaN, NaN, 0.0445584, "- N/A -   "
1, 46.5893, 0.00176046, NaN, NaN, NaN, 0.04211683, "- N/A -   "
1.07, 49.41999, 0.00189652, NaN, NaN, NaN, 0.0335714, "- N/A -   "
1.14, 52.36868, 0.00202981, NaN, NaN, NaN, 0.0262467, "- N/A -   "
1.21, 54.7276, 0.00214088, NaN, NaN, NaN, 0.0286883, "- N/A -   "
1.28, 56.9686, 0.002249169, NaN, NaN, NaN, 0.0323506, "- N/A -   "
1.35, 59.4455, 0.00235469, NaN, NaN, NaN, 0.0372337, "- N/A -   "
1.42, 61.8045, 0.00247131, NaN, NaN, NaN, 0.0384545, "- N/A -   "
1.49, 64.28137, 0.0025796, NaN, NaN, NaN, 0.04089605, "- N/A -   "
1.56, 66.75827, 0.00269345, NaN, NaN, NaN, 0.04211683, "- N/A -   "
1.63, 69.35311, 0.0028073, NaN, NaN, NaN, 0.0433376, "- N/A -   "
1.7, 72.1838, 0.00293225, NaN, NaN, NaN, 0.0396753, "- N/A -   "
1.77, 75.25049, 0.003068311, NaN, NaN, NaN, 0.03112983, "- N/A -   "
1.84, 77.72738, 0.003179381, NaN, NaN, NaN, 0.0335714, "- N/A -   "
1.91, 79.96838, 0.0032849, NaN, NaN, NaN, 0.0384545, "- N/A -   "
1.98, 82.91707, 0.003409851, NaN, NaN, NaN, 0.03601294, "- N/A -   "
2.05, 85.62987, 0.00353203, NaN, NaN, NaN, 0.0335714, "- N/A -   "
2.12, 88.10676, 0.00364032, NaN, NaN, NaN, 0.03601294, "- N/A -   "
2.19, 90.70161, 0.00374584, NaN, NaN, NaN, 0.04089605, "- N/A -   "
2.26, 93.41439, 0.00386802, NaN, NaN, NaN, 0.0384545, "- N/A -   "
2.33, 96.12719, 0.003981862, NaN, NaN, NaN, 0.0396753, "- N/A -   "
2.4, 98.9579, 0.00410126, NaN, NaN, NaN, 0.0384545, "- N/A -   "
2.47, 101.789, 0.00422344, NaN, NaN, NaN, 0.03601294, "- N/A -   "
2.54, 104.737, 0.00434839, NaN, NaN, NaN, 0.0335714, "- N/A -   "
2.61, 107.568, 0.004465017, NaN, NaN, NaN, 0.0323506, "- N/A -   "
2.68, 110.399, 0.004581641, NaN, NaN, NaN, 0.0323506, "- N/A -   "
2.75, 112.876, 0.004695487, NaN, NaN, NaN, 0.0335714, "- N/A -   "
2.82, 115.824, 0.004812111, NaN, NaN, NaN, 0.0335714, "- N/A -   "
2.89, 118.183, 0.00491485, NaN, NaN, NaN, 0.0396753, "- N/A -   "
2.96, 120.778, 0.005028697, NaN, NaN, NaN, 0.04211683, "- N/A -   "
3.03, 123.609, 0.00513699, NaN, NaN, NaN, 0.0445584, "- N/A -   "
3.1, 126.558, 0.005256391, NaN, NaN, NaN, 0.0433376, "- N/A -   "
3.17, 129.86, 0.00539523, NaN, NaN, NaN, 0.0335714, "- N/A -   "
3.24, 132.573, 0.00551185, NaN, NaN, NaN, 0.0347922, "- N/A -   "
3.31, 135.522, 0.00563125, NaN, NaN, NaN, 0.0335714, "- N/A -   "
3.38, 138.706, 0.005758983, NaN, NaN, NaN, 0.0286883, "- N/A -   "
3.45, 141.301, 0.005867277, NaN, NaN, NaN, 0.03112983, "- N/A -   "
3.52, 143.66, 0.00596724, NaN, NaN, NaN, 0.0384545, "- N/A -   "
3.59, 146.137, 0.006069979, NaN, NaN, NaN, 0.04577916, "- N/A -   "
3.66, 148.968, 0.006181049, NaN, NaN, NaN, 0.0482207, "- N/A -   "
3.73, 152.27, 0.00631433, NaN, NaN, NaN, 0.04211683, "- N/A -   "
3.8, 155.691, 0.006444841, NaN, NaN, NaN, 0.0347922, "- N/A -   "
3.87, 158.521, 0.00656424, NaN, NaN, NaN, 0.0347922, "- N/A -   "
3.94, 161.588, 0.00669197, NaN, NaN, NaN, 0.0299091, "- N/A -   "
4.01, 164.537, 0.0068086, NaN, NaN, NaN, 0.0286883, "- N/A -   "
4.08, 167.25, 0.00691967, NaN, NaN, NaN, 0.0323506, "- N/A -   "
4.15, 169.608, 0.007019629, NaN, NaN, NaN, 0.0396753, "- N/A -   "
4.22, 172.203, 0.00712237, NaN, NaN, NaN, 0.0445584, "- N/A -   "
4.29, 175.034, 0.007238992, NaN, NaN, NaN, 0.0445584, "- N/A -   "
4.36, 178.1007, 0.00735562, NaN, NaN, NaN, 0.0445584, "- N/A -   "
4.43, 181.167, 0.007477793, NaN, NaN, NaN, 0.04211683, "- N/A -   "
4.5, 184.47, 0.007611077, NaN, NaN, NaN, 0.03601294, "- N/A -   "
4.57, 187.772, 0.007741584, NaN, NaN, NaN, 0.0286883, "- N/A -   "
4.64, 190.367, 0.007849877, NaN, NaN, NaN, 0.0323506, "- N/A -   "
4.71, 193.08, 0.007958171, NaN, NaN, NaN, 0.03601294, "- N/A -   "
4.78, 196.0287, 0.008074794, NaN, NaN, NaN, 0.03601294, "- N/A -   "
4.85, 198.859, 0.008188642, NaN, NaN, NaN, 0.0372337, "- N/A -   "
4.92, 201.572, 0.008296934, NaN, NaN, NaN, 0.04211683, "- N/A -   "
4.99, 204.285, 0.008405227, NaN, NaN, NaN, 0.0445584, "- N/A -   "
5.06, 207.352, 0.008524628, NaN, NaN, NaN, 0.0433376, "- N/A -   "
5.13, 211.008, 0.00866624, NaN, NaN, NaN, 0.0323506, "- N/A -   "
5.2, 214.1926, 0.008793972, NaN, NaN, NaN, 0.0274675, "- N/A -   "
5.27, 216.787, 0.008902267, NaN, NaN, NaN, 0.0323506, "- N/A -   "
5.34, 219.6182, 0.009007783, NaN, NaN, NaN, 0.03601294, "- N/A -   "
5.41, 222.685, 0.009132737, NaN, NaN, NaN, 0.0323506, "- N/A -   "
5.48, 225.516, 0.009246584, NaN, NaN, NaN, 0.0347922, "- N/A -   "
5.55, 228.11, 0.0093521, NaN, NaN, NaN, 0.0384545, "- N/A -   "
5.62, 230.8232, 0.009460393, NaN, NaN, NaN, 0.04211683, "- N/A -   "
5.69, 233.654, 0.009577017, NaN, NaN, NaN, 0.04211683, "- N/A -   "
5.76, 236.839, 0.009701972, NaN, NaN, NaN, 0.0396753, "- N/A -   "
5.83, 239.787, 0.009815818, NaN, NaN, NaN, 0.0396753, "- N/A -   "
5.9, 242.618, 0.009932442, NaN, NaN, NaN, 0.0396753, "- N/A -   "
5.97, 245.917, 0.01006295, NaN, NaN, NaN, 0.0335714, "- N/A -   "
6.04, 248.627, 0.0101768, NaN, NaN, NaN, 0.0347922, "- N/A -   "
6.11, 251.455, 0.01029342, NaN, NaN, NaN, 0.0347922, "- N/A -   "
6.18, 254.4, 0.01041282, NaN, NaN, NaN, 0.0335714, "- N/A -   "
6.25, 257.228, 0.0105294, NaN, NaN, NaN, 0.0335714, "- N/A -   "
6.32, 259.7026, 0.010635, NaN, NaN, NaN, 0.0384545, "- N/A -   "
6.39, 262.295, 0.0107405, NaN, NaN, NaN, 0.0433376, "- N/A -   "
6.46, 265.123, 0.0108543, NaN, NaN, NaN, 0.04577916, "- N/A -   "
6.53, 268.422, 0.0109876, NaN, NaN, NaN, 0.0384545, "- N/A -   "
6.6, 271.7209, 0.0111209, NaN, NaN, NaN, 0.0299091, "- N/A -   "
6.67, 274.431, 0.0112347, NaN, NaN, NaN, 0.03112983, "- N/A -   "
6.74, 277.2587, 0.0113514, NaN, NaN, NaN, 0.0323506, "- N/A -   "
6.81, 280.322, 0.0114763, NaN, NaN, NaN, 0.0274675, "- N/A -   "
6.88, 282.7965, 0.0115818, NaN, NaN, NaN, 0.0323506, "- N/A -   "
6.95, 285.035, 0.0116818, NaN, NaN, NaN, 0.0396753, "- N/A -   "
7.02, 287.392, 0.0117845, NaN, NaN, NaN, 0.04699994, "- N/A -   "
7.09, 290.4552, 0.0119039, NaN, NaN, NaN, 0.0445584, "- N/A -   "
7.16, 293.637, 0.0120372, NaN, NaN, NaN, 0.0372337, "- N/A -   "
7.23, 296.2287, 0.01215662, NaN, NaN, NaN, 0.0372337, "- N/A -   "
7.3, 299.057, 0.01227602, NaN, NaN, NaN, 0.0347922, "- N/A -   "
7.37, 302.12, 0.0124038, NaN, NaN, NaN, 0.0299091, "- N/A -   "
7.44, 304.7122, 0.0125204, NaN, NaN, NaN, 0.0299091, "- N/A -   "
7.51, 307.54, 0.0126342, NaN, NaN, NaN, 0.03112983, "- N/A -   "
7.58, 309.7787, 0.0127425, NaN, NaN, NaN, 0.03601294, "- N/A -   "
7.65, 312.0174, 0.0128453, NaN, NaN, NaN, 0.04089605, "- N/A -   "
7.72, 314.61, 0.0129591, NaN, NaN, NaN, 0.04211683, "- N/A -   "
7.79, 317.202, 0.0130729, NaN, NaN, NaN, 0.0445584, "- N/A -   "
7.86, 320.03, 0.0131979, NaN, NaN, NaN, 0.0396753, "- N/A -   "
7.93, 323.3287, 0.0133367, NaN, NaN, NaN, 0.0299091, "- N/A -   "
8, 325.921, 0.0134589, NaN, NaN, NaN, 0.0286883, "- N/A -   "
8.07, 328.395, 0.01356721, NaN, NaN, NaN, 0.03112983, "- N/A -   "
8.14, 330.752, 0.0136783, NaN, NaN, NaN, 0.0335714, "- N/A -   "
8.21, 333.344, 0.0137921, NaN, NaN, NaN, 0.03601294, "- N/A -   "
8.28, 335.818, 0.0139032, NaN, NaN, NaN, 0.0384545, "- N/A -   "
8.35, 338.057, 0.0140087, NaN, NaN, NaN, 0.0445584, "- N/A -   "
8.42, 340.5313, 0.0141226, NaN, NaN, NaN, 0.0445584, "- N/A -   "
8.49, 343.3591, 0.0142503, NaN, NaN, NaN, 0.04089605, "- N/A -   "
8.56, 346.4226, 0.0143836, NaN, NaN, NaN, 0.0323506, "- N/A -   "
8.63, 348.779, 0.0144974, NaN, NaN, NaN, 0.0335714, "- N/A -   "
8.7, 351.136, 0.0146085, NaN, NaN, NaN, 0.0372337, "- N/A -   "
8.77, 353.728, 0.0147251, NaN, NaN, NaN, 0.03601294, "- N/A -   "
8.84, 356.438, 0.0148473, NaN, NaN, NaN, 0.0347922, "- N/A -   "
8.91, 358.794, 0.0149584, NaN, NaN, NaN, 0.03601294, "- N/A -   "
8.98, 361.151, 0.0150639, NaN, NaN, NaN, 0.04089605, "- N/A -   "
9.05, 363.861, 0.0151833, NaN, NaN, NaN, 0.0396753, "- N/A -   "
9.12, 366.3352, 0.0152999, NaN, NaN, NaN, 0.0396753, "- N/A -   "
9.19, 369.0452, 0.01542208, NaN, NaN, NaN, 0.0384545, "- N/A -   "
9.26, 371.6374, 0.0155415, NaN, NaN, NaN, 0.0372337, "- N/A -   "
9.33, 374.23, 0.0156581, NaN, NaN, NaN, 0.03601294, "- N/A -   "
9.4, 377.057, 0.0157831, NaN, NaN, NaN, 0.0335714, "- N/A -   "
9.47, 379.532, 0.0158969, NaN, NaN, NaN, 0.0335714, "- N/A -   "
9.54, 382.124, 0.0160135, NaN, NaN, NaN, 0.0347922, "- N/A -   "
9.61, 384.716, 0.0161329, NaN, NaN, NaN, 0.0323506, "- N/A -   "
9.68, 387.0726, 0.0162384, NaN, NaN, NaN, 0.0372337, "- N/A -   "
9.75, 389.3113, 0.0163495, NaN, NaN, NaN, 0.04089605, "- N/A -   "
9.82, 391.786, 0.016455, NaN, NaN, NaN, 0.0445584, "- N/A -   "
9.89, 394.613, 0.0165744, NaN, NaN, NaN, 0.0433376, "- N/A -   "
9.96, 397.559, 0.0167105, NaN, NaN, NaN, 0.03601294, "- N/A -   "
10.03, 400.269, 0.01682434, NaN, NaN, NaN, 0.03601294, "- N/A -   "
10.1, 402.743, 0.016941, NaN, NaN, NaN, 0.03601294, "- N/A -   "
10.17, 405.571, 0.0170659, NaN, NaN, NaN, 0.0323506, "- N/A -   "
10.24, 408.163, 0.01718254, NaN, NaN, NaN, 0.0323506, "- N/A -   "
10.31, 410.638, 0.0172936, NaN, NaN, NaN, 0.0347922, "- N/A -   "
10.38, 412.877, 0.0173991, NaN, NaN, NaN, 0.0396753, "- N/A -   "
10.45, 415.469, 0.0175102, NaN, NaN, NaN, 0.04211683, "- N/A -   "
10.52, 418.414, 0.0176352, NaN, NaN, NaN, 0.0384545, "- N/A -   "
10.59, 421.124, 0.0177518, NaN, NaN, NaN, 0.0384545, "- N/A -   "
10.66, 423.834, 0.017874, NaN, NaN, NaN, 0.0372337, "- N/A -   "
10.73, 426.544, 0.0179906, NaN, NaN, NaN, 0.03601294, "- N/A -   "
10.8, 429.49, 0.01811553, NaN, NaN, NaN, 0.0323506, "- N/A -   "
10.87, 432.082, 0.0182377, NaN, NaN, NaN, 0.03112983, "- N/A -   "
10.94, 434.792, 0.01835433, NaN, NaN, NaN, 0.03112983, "- N/A -   "
11.01, 437.031, 0.01845707, NaN, NaN, NaN, 0.03601294, "- N/A -   "
11.08, 439.27, 0.018557, NaN, NaN, NaN, 0.0433376, "- N/A -   "
11.15, 441.98, 0.01867088, NaN, NaN, NaN, 0.0445584, "- N/A -   "
11.22, 444.69, 0.01879028, NaN, NaN, NaN, 0.0433376, "- N/A -   "
11.29, 447.635, 0.018918, NaN, NaN, NaN, 0.0384545, "- N/A -   "
11.36, 451.0522, 0.0190568, NaN, NaN, NaN, 0.0286883, "- N/A -   "
11.43, 453.4087, 0.0191707, NaN, NaN, NaN, 0.03112983, "- N/A -   "
11.5, 456.0009, 0.0192818, NaN, NaN, NaN, 0.0323506, "- N/A -   "
11.57, 458.711, 0.0193928, NaN, NaN, NaN, 0.0347922, "- N/A -   "
11.64, 461.067, 0.01950113, NaN, NaN, NaN, 0.0384545, "- N/A -   "
11.71, 463.777, 0.0196178, NaN, NaN, NaN, 0.0384545, "- N/A -   "
11.78, 466.252, 0.019726, NaN, NaN, NaN, 0.04211683, "- N/A -   "
11.85, 468.962, 0.0198399, NaN, NaN, NaN, 0.0433376, "- N/A -   "
11.92, 472.143, 0.0199732, NaN, NaN, NaN, 0.03601294, "- N/A -   "
11.99, 475.2065, 0.0201037, NaN, NaN, NaN, 0.0299091, "- N/A -   "
12.06, 477.7987, 0.02021753, NaN, NaN, NaN, 0.03112983, "- N/A -   "
12.13, 480.273, 0.0203286, NaN, NaN, NaN, 0.0335714, "- N/A -   "
12.2, 482.983, 0.0204452, NaN, NaN, NaN, 0.0335714, "- N/A -   "
12.27, 485.693, 0.0205618, NaN, NaN, NaN, 0.0335714, "- N/A -   "
12.34, 488.2852, 0.02067292, NaN, NaN, NaN, 0.0372337, "- N/A -   "
12.41, 490.642, 0.0207757, NaN, NaN, NaN, 0.04211683, "- N/A -   "
12.48, 493.352, 0.0208923, NaN, NaN, NaN, 0.04211683, "- N/A -   "
12.55, 496.415, 0.0210145, NaN, NaN, NaN, 0.0396753, "- N/A -   "
12.62, 499.361, 0.0211394, NaN, NaN, NaN, 0.03601294, "- N/A -   "
12.69, 502.1887, 0.02126159, NaN, NaN, NaN, 0.0347922, "- N/A -   "
12.76, 505.017, 0.021381, NaN, NaN, NaN, 0.0347922, "- N/A -   "
12.83, 507.727, 0.0214948, NaN, NaN, NaN, 0.0347922, "- N/A -   "
12.9, 510.319, 0.02161146, NaN, NaN, NaN, 0.03601294, "- N/A -   "
12.97, 513.0287, 0.0217253, NaN, NaN, NaN, 0.03601294, "- N/A -   "
13.04, 515.8656, 0.02184193, NaN, NaN, NaN, 0.03601294, "- N/A -   "
13.11, 518.35, 0.021953, NaN, NaN, NaN, 0.0396753, "- N/A -   "
13.18, 521.188, 0.0220668, NaN, NaN, NaN, 0.0396753, "- N/A -   "
13.25, 523.6722, 0.02217514, NaN, NaN, NaN, 0.0433376, "- N/A -   "
13.32, 526.747, 0.0223001, NaN, NaN, NaN, 0.04089605, "- N/A -   "
13.39, 530.0593, 0.0224306, NaN, NaN, NaN, 0.0335714, "- N/A -   "
13.46, 532.7798, 0.02255, NaN, NaN, NaN, 0.0323506, "- N/A -   "
13.53, 535.382, 0.0226611, NaN, NaN, NaN, 0.03601294, "- N/A -   "
13.6, 538.4573, 0.0227888, NaN, NaN, NaN, 0.0299091, "- N/A -   "
13.67, 541.178, 0.0229054, NaN, NaN, NaN, 0.0299091, "- N/A -   "
13.74, 543.6616, 0.0230109, NaN, NaN, NaN, 0.0347922, "- N/A -   "
13.81, 546.0272, 0.02310813, NaN, NaN, NaN, 0.0433376, "- N/A -   "
13.88, 548.5111, 0.0232136, NaN, NaN, NaN, 0.0482207, "- N/A -   "
13.95, 551.468, 0.0233386, NaN, NaN, NaN, 0.0445584, "- N/A -   "
14.02, 554.8983, 0.0234774, NaN, NaN, NaN, 0.0347922, "- N/A -   "
14.09, 557.6188, 0.0235968, NaN, NaN, NaN, 0.0347922, "- N/A -   "
14.16, 560.694, 0.0237162, NaN, NaN, NaN, 0.0323506, "- N/A -   "
14.23, 563.651, 0.0238384, NaN, NaN, NaN, 0.0299091, "- N/A -   "
14.3, 566.4898, 0.0239578, NaN, NaN, NaN, 0.0286883, "- N/A -   "
14.37, 568.8554, 0.0240606, NaN, NaN, NaN, 0.0347922, "- N/A -   "
14.44, 571.221, 0.0241605, NaN, NaN, NaN, 0.04211683, "- N/A -   "
14.51, 573.9415, 0.0242744, NaN, NaN, NaN, 0.0433376, "- N/A -   "
14.58, 576.7802, 0.0243938, NaN, NaN, NaN, 0.0433376, "- N/A -   "
14.65, 579.737, 0.02451039, NaN, NaN, NaN, 0.04211683, "- N/A -   "
14.72, 583.1674, 0.0246437, NaN, NaN, NaN, 0.0347922, "- N/A -   "
14.79, 586.124, 0.0247714, NaN, NaN, NaN, 0.0299091, "- N/A -   "
14.86, 588.9632, 0.024888, NaN, NaN, NaN, 0.0299091, "- N/A -   "
14.93, 591.565, 0.0249935, NaN, NaN, NaN, 0.0347922, "- N/A -   "
15, 594.4041, 0.0251102, NaN, NaN, NaN, 0.0347922, "- N/A -   "
15.07, 597.243, 0.02522679, NaN, NaN, NaN, 0.0347922, "- N/A -   "
15.14, 599.845, 0.0253323, NaN, NaN, NaN, 0.0396753, "- N/A -   "
15.21, 602.4472, 0.0254406, NaN, NaN, NaN, 0.0433376, "- N/A -   "
15.28, 605.168, 0.0255489, NaN, NaN, NaN, 0.04699994, "- N/A -   "
15.35, 608.716, 0.02568773, NaN, NaN, NaN, 0.0372337, "- N/A -   "
15.42, 612.028, 0.025821, NaN, NaN, NaN, 0.0299091, "- N/A -   "
15.49, 614.6301, 0.0259321, NaN, NaN, NaN, 0.0323506, "- N/A -   "
15.56, 617.2323, 0.0260376, NaN, NaN, NaN, 0.0372337, "- N/A -   "
15.63, 620.4259, 0.0261598, NaN, NaN, NaN, 0.0347922, "- N/A -   "
15.7, 623.501, 0.0262847, NaN, NaN, NaN, 0.03112983, "- N/A -   "
15.77, 625.985, 0.0263875, NaN, NaN, NaN, 0.0372337, "- N/A -   "
15.84, 628.469, 0.02649299, NaN, NaN, NaN, 0.0433376, "- N/A -   "
15.91, 631.7808, 0.0266179, NaN, NaN, NaN, 0.0384545, "- N/A -   "
15.98, 634.738, 0.0267373, NaN, NaN, NaN, 0.0372337, "- N/A -   "
16.05, 637.931, 0.0268595, NaN, NaN, NaN, 0.03601294, "- N/A -   "
16.12, 640.5336, 0.0269678, NaN, NaN, NaN, 0.0384545, "- N/A -   "
16.19, 643.609, 0.02709, NaN, NaN, NaN, 0.03601294, "- N/A -   "
16.26, 646.5659, 0.0272094, NaN, NaN, NaN, 0.0347922, "- N/A -   "
16.33, 649.7595, 0.0273343, NaN, NaN, NaN, 0.03112983, "- N/A -   "
16.4, 652.717, 0.02745097, NaN, NaN, NaN, 0.03112983, "- N/A -   "
16.47, 655.6735, 0.0275676, NaN, NaN, NaN, 0.03112983, "- N/A -   "
16.54, 658.1575, 0.0276676, NaN, NaN, NaN, 0.0384545, "- N/A -   "
16.61, 660.76, 0.02777585, NaN, NaN, NaN, 0.04211683, "- N/A -   "
16.68, 663.598, 0.02788692, NaN, NaN, NaN, 0.04577916, "- N/A -   "
16.75, 667.029, 0.02801465, NaN, NaN, NaN, 0.0396753, "- N/A -   "
16.82, 670.577, 0.0281479, NaN, NaN, NaN, 0.0323506, "- N/A -   "
16.89, 673.2974, 0.02826178, NaN, NaN, NaN, 0.0347922, "- N/A -   "
16.96, 676.3727, 0.02838118, NaN, NaN, NaN, 0.0335714, "- N/A -   "
17.03, 679.566, 0.0285061, NaN, NaN, NaN, 0.0286883, "- N/A -   "
17.1, 682.6416, 0.0286228, NaN, NaN, NaN, 0.0299091, "- N/A -   "
17.17, 684.889, 0.0287199, NaN, NaN, NaN, 0.0372337, "- N/A -   "
17.24, 687.373, 0.02881713, NaN, NaN, NaN, 0.04699994, "- N/A -   "
17.31, 690.4482, 0.028931, NaN, NaN, NaN, 0.0482207, "- N/A -   "
17.38, 693.8783, 0.0290643, NaN, NaN, NaN, 0.04211683, "- N/A -   "
17.45, 697.1901, 0.0291892, NaN, NaN, NaN, 0.0372337, "- N/A -   "
17.52, 700.2655, 0.0293114, NaN, NaN, NaN, 0.0347922, "- N/A -   "
17.59, 703.6956, 0.0294419, NaN, NaN, NaN, 0.0286883, "- N/A -   "
17.66, 706.7709, 0.0295585, NaN, NaN, NaN, 0.0286883, "- N/A -   "
17.73, 709.6096, 0.0296724, NaN, NaN, NaN, 0.0299091, "- N/A -   "
17.8, 712.3301, 0.0297751, NaN, NaN, NaN, 0.03601294, "- N/A -   "
17.87, 714.6957, 0.0298751, NaN, NaN, NaN, 0.0445584, "- N/A -   "
17.94, 717.6527, 0.0299917, NaN, NaN, NaN, 0.0433376, "- N/A -   "
18.01, 720.728, 0.0301028, NaN, NaN, NaN, 0.04577916, "- N/A -   "
18.08, 723.922, 0.0302277, NaN, NaN, NaN, 0.0433376, "- N/A -   "
18.15, 727.7066, 0.0303666, NaN, NaN, NaN, 0.0323506, "- N/A -   "
18.22, 730.9, 0.03048596, NaN, NaN, NaN, 0.03112983, "- N/A -   "
18.29, 733.8572, 0.0306054, NaN, NaN, NaN, 0.03112983, "- N/A -   "
18.36, 736.5777, 0.0307109, NaN, NaN, NaN, 0.03601294, "- N/A -   "
18.43, 739.5347, 0.0308219, NaN, NaN, NaN, 0.0384545, "- N/A -   "
18.5, 742.7283, 0.0309413, NaN, NaN, NaN, 0.03601294, "- N/A -   "
18.57, 745.33, 0.0310441, NaN, NaN, NaN, 0.04211683, "- N/A -   "
18.64, 748.1692, 0.0311552, NaN, NaN, NaN, 0.0445584, "- N/A -   "
18.71, 751.481, 0.03128011, NaN, NaN, NaN, 0.04089605, "- N/A -   "
18.78, 755.148, 0.03141617, NaN, NaN, NaN, 0.0335714, "- N/A -   "
18.85, 758.46, 0.03153835, NaN, NaN, NaN, 0.03112983, "- N/A -   "
18.92, 761.1801, 0.03164109, NaN, NaN, NaN, 0.03601294, "- N/A -   "
18.99, 764.0188, 0.0317522, NaN, NaN, NaN, 0.0384545, "- N/A -   "
19.06, 767.449, 0.03187989, NaN, NaN, NaN, 0.0335714, "- N/A -   "
19.13, 770.6426, 0.03199929, NaN, NaN, NaN, 0.0335714, "- N/A -   "
19.2, 773.363, 0.03210758, NaN, NaN, NaN, 0.03601294, "- N/A -   "
19.27, 776.2018, 0.0322131, NaN, NaN, NaN, 0.04089605, "- N/A -   "
19.34, 779.3953, 0.0323353, NaN, NaN, NaN, 0.0396753, "- N/A -   "
19.41, 782.471, 0.0324491, NaN, NaN, NaN, 0.0396753, "- N/A -   "
19.48, 785.7825, 0.0325713, NaN, NaN, NaN, 0.0372337, "- N/A -   "
19.55, 788.976, 0.0326879, NaN, NaN, NaN, 0.0372337, "- N/A -   "
19.62, 792.1697, 0.03281288, NaN, NaN, NaN, 0.0335714, "- N/A -   "
19.69, 795.3632, 0.0329323, NaN, NaN, NaN, 0.0323506, "- N/A -   "
19.76, 798.202, 0.0330406, NaN, NaN, NaN, 0.0372337, "- N/A -   "
19.83, 801.2773, 0.0331572, NaN, NaN, NaN, 0.03601294, "- N/A -   "
19.9, 804.5892, 0.03327937, NaN, NaN, NaN, 0.0347922, "- N/A -   "
19.97, 807.073, 0.0333821, NaN, NaN, NaN, 0.04089605, "- N/A -   "
20.04, 810.1484, 0.0334904, NaN, NaN, NaN, 0.0445584, "- N/A -   "
20.11, 813.3419, 0.03360703, NaN, NaN, NaN, 0.0433376, "- N/A -   "
20.18, 817.1269, 0.0337459, NaN, NaN, NaN, 0.0347922, "- N/A -   "
20.25, 820.2023, 0.0338653, NaN, NaN, NaN, 0.0335714, "- N/A -   "
20.32, 823.159, 0.03397911, NaN, NaN, NaN, 0.0335714, "- N/A -   "
20.39, 826.4711, 0.0341041, NaN, NaN, NaN, 0.0299091, "- N/A -   "
20.46, 829.6647, 0.0342235, NaN, NaN, NaN, 0.0299091, "- N/A -   "
20.53, 832.6217, 0.034329, NaN, NaN, NaN, 0.0335714, "- N/A -   "
20.6, 835.2239, 0.0344317, NaN, NaN, NaN, 0.0396753, "- N/A -   "
20.67, 837.826, 0.03453724, NaN, NaN, NaN, 0.04577916, "- N/A -   "
20.74, 841.138, 0.0346511, NaN, NaN, NaN, 0.04577916, "- N/A -   "
20.81, 844.686, 0.0347844, NaN, NaN, NaN, 0.0384545, "- N/A -   "
20.88, 847.9982, 0.0349093, NaN, NaN, NaN, 0.0347922, "- N/A -   "
20.95, 851.4284, 0.03503428, NaN, NaN, NaN, 0.0323506, "- N/A -   "
21.02, 854.74, 0.0351565, NaN, NaN, NaN, 0.0286883, "- N/A -   "
21.09, 857.816, 0.03527308, NaN, NaN, NaN, 0.0286883, "- N/A -   "
21.16, 860.4177, 0.03537582, NaN, NaN, NaN, 0.0347922, "- N/A -   "
21.23, 863.2565, 0.0354813, NaN, NaN, NaN, 0.0396753, "- N/A -   "
21.3, 866.095, 0.0355841, NaN, NaN, NaN, 0.04577916, "- N/A -   "
21.37, 869.289, 0.03570625, NaN, NaN, NaN, 0.0433376, "- N/A -   "
21.44, 872.482, 0.0358229, NaN, NaN, NaN, 0.0433376, "- N/A -   "
21.51, 875.9125, 0.03595061, NaN, NaN, NaN, 0.0384545, "- N/A -   "
21.58, 879.816, 0.03609222, NaN, NaN, NaN, 0.0274675, "- N/A -   "
21.65, 882.8911, 0.0362088, NaN, NaN, NaN, 0.0274675, "- N/A -   "
21.72, 885.9664, 0.03632269, NaN, NaN, NaN, 0.0299091, "- N/A -   "
21.79, 888.8051, 0.036431, NaN, NaN, NaN, 0.0335714, "- N/A -   "
21.86, 891.5256, 0.0365337, NaN, NaN, NaN, 0.0396753, "- N/A -   "
21.93, 894.6009, 0.03665035, NaN, NaN, NaN, 0.0396753, "- N/A -   "
22, 897.676, 0.0367586, NaN, NaN, NaN, 0.0445584, "- N/A -   "
22.07, 900.6332, 0.0368697, NaN, NaN, NaN, 0.04577916, "- N/A -   "
22.14, 904.2999, 0.0370002, NaN, NaN, NaN, 0.0396753, "- N/A -   "
22.21, 907.9666, 0.03713073, NaN, NaN, NaN, 0.0347922, "- N/A -   "
22.28, 911.0419, 0.0372501, NaN, NaN, NaN, 0.0323506, "- N/A -   "
22.35, 914.117, 0.0373612, NaN, NaN, NaN, 0.0347922, "- N/A -   "
22.42, 917.0743, 0.037475, NaN, NaN, NaN, 0.0372337, "- N/A -   "
22.49, 920.6227, 0.0376028, NaN, NaN, NaN, 0.03112983, "- N/A -   "
22.56, 923.58, 0.03770829, NaN, NaN, NaN, 0.0372337, "- N/A -   "
22.63, 926.1818, 0.03781103, NaN, NaN, NaN, 0.04211683, "- N/A -   "
22.7, 929.3754, 0.0379277, NaN, NaN, NaN, 0.0433376, "- N/A -   "
22.77, 932.451, 0.0380443, NaN, NaN, NaN, 0.0433376, "- N/A -   "
22.84, 935.8809, 0.0381665, NaN, NaN, NaN, 0.0396753, "- N/A -   "
22.91, 939.4293, 0.0382942, NaN, NaN, NaN, 0.0347922, "- N/A -   "
22.98, 942.6229, 0.0384164, NaN, NaN, NaN, 0.0335714, "- N/A -   "
23.05, 945.816, 0.03853576, NaN, NaN, NaN, 0.0323506, "- N/A -   "
23.12, 948.8918, 0.0386496, NaN, NaN, NaN, 0.0323506, "- N/A -   "
23.19, 951.9671, 0.0387662, NaN, NaN, NaN, 0.0323506, "- N/A -   "
23.26, 955.161, 0.0388773, NaN, NaN, NaN, 0.0347922, "- N/A -   "
23.33, 957.9994, 0.03899115, NaN, NaN, NaN, 0.03601294, "- N/A -   "
23.4, 961.0747, 0.039105, NaN, NaN, NaN, 0.0384545, "- N/A -   "
23.47, 963.913, 0.03921051, NaN, NaN, NaN, 0.04211683, "- N/A -   "
23.54, 967.107, 0.0393244, NaN, NaN, NaN, 0.0433376, "- N/A -   "
23.61, 970.5372, 0.0394465, NaN, NaN, NaN, 0.04089605, "- N/A -   "
23.68, 974.086, 0.0395743, NaN, NaN, NaN, 0.03601294, "- N/A -   "
23.75, 977.043, 0.0396881, NaN, NaN, NaN, 0.0372337, "- N/A -   "
23.82, 980.1179, 0.0398047, NaN, NaN, NaN, 0.0372337, "- N/A -   "
23.89, 984.0212, 0.039938, NaN, NaN, NaN, 0.0299091, "- N/A -   "
23.96, 986.742, 0.04004354, NaN, NaN, NaN, 0.0347922, "- N/A -   "
24.03, 989.3438, 0.0401463, NaN, NaN, NaN, 0.04089605, "- N/A -   "
24.1, 992.5374, 0.04025457, NaN, NaN, NaN, 0.0445584, "- N/A -   "
24.17, 995.494, 0.0403712, NaN, NaN, NaN, 0.04577916, "- N/A -   "
24.24, 999.3977, 0.0405073, NaN, NaN, NaN, 0.03601294, "- N/A -   "
24.31, 1002.83, 0.040635, NaN, NaN, NaN, 0.0323506, "- N/A -   "
24.38, 1006.02, 0.04075161, NaN, NaN, NaN, 0.03112983, "- N/A -   "
24.45, 1009.33, 0.04087379, NaN, NaN, NaN, 0.0286883, "- N/A -   "
24.52, 1012.53, 0.0409932, NaN, NaN, NaN, 0.0274675, "- N/A -   "
24.59, 1015.5, 0.0410987, NaN, NaN, NaN, 0.0323506, "- N/A -   "
24.66, 1018.01, 0.04119589, NaN, NaN, NaN, 0.04089605, "- N/A -   "
24.73, 1021.11, 0.0413097, NaN, NaN, NaN, 0.0433376, "- N/A -   "
24.8, 1024.45, 0.04142636, NaN, NaN, NaN, 0.04211683, "- N/A -   "
24.87, 1027.55, 0.0415402, NaN, NaN, NaN, 0.0433376, "- N/A -   "
24.94, 1031.13, 0.0416679, NaN, NaN, NaN, 0.0384545, "- N/A -   "
25.01, 1034.94, 0.04180122, NaN, NaN, NaN, 0.03112983, "- N/A -   "
25.08, 1038.16, 0.0419234, NaN, NaN, NaN, 0.0286883, "- N/A -   "
25.15, 1041.14, 0.0420317, NaN, NaN, NaN, 0.0323506, "- N/A -   "
25.22, 1044.12, 0.04214276, NaN, NaN, NaN, 0.03601294, "- N/A -   "
25.29, 1047.34, 0.04225661, NaN, NaN, NaN, 0.0372337, "- N/A -   "
25.36, 1050.21, 0.0423621, NaN, NaN, NaN, 0.04089605, "- N/A -   "
25.43, 1053.19, 0.0424704, NaN, NaN, NaN, 0.04577916, "- N/A -   "
25.5, 1056.29, 0.0425843, NaN, NaN, NaN, 0.04699994, "- N/A -   "
25.57, 1060.1, 0.0427203, NaN, NaN, NaN, 0.0372337, "- N/A -   "
25.64, 1063.8, 0.0428508, NaN, NaN, NaN, 0.03112983, "- N/A -   "
25.71, 1067.02, 0.0429675, NaN, NaN, NaN, 0.03112983, "- N/A -   "
25.78, 1070.12, 0.0430813, NaN, NaN, NaN, 0.0335714, "- N/A -   "
25.85, 1073.34, 0.0432007, NaN, NaN, NaN, 0.03112983, "- N/A -   "
25.92, 1076.56, 0.04331455, NaN, NaN, NaN, 0.0323506, "- N/A -   "
25.99, 1079.54, 0.04342284, NaN, NaN, NaN, 0.03601294, "- N/A -   "
26.06, 1082.29, 0.0435256, NaN, NaN, NaN, 0.04211683, "- N/A -   "
26.13, 1085.74, 0.04365054, NaN, NaN, NaN, 0.0396753, "- N/A -   "
26.2, 1088.96, 0.04376716, NaN, NaN, NaN, 0.0384545, "- N/A -   "
26.27, 1092.42, 0.04388656, NaN, NaN, NaN, 0.0384545, "- N/A -   "
26.34, 1095.52, 0.04400041, NaN, NaN, NaN, 0.0396753, "- N/A -   "
26.41, 1098.74, 0.04411981, NaN, NaN, NaN, 0.0384545, "- N/A -   "
26.48, 1102.32, 0.0442475, NaN, NaN, NaN, 0.0335714, "- N/A -   "
26.55, 1105.54, 0.0443614, NaN, NaN, NaN, 0.0347922, "- N/A -   "
26.62, 1108.76, 0.0444808, NaN, NaN, NaN, 0.0335714, "- N/A -   "
26.69, 1112.1, 0.04459741, NaN, NaN, NaN, 0.0335714, "- N/A -   "
26.76, 1114.6, 0.0446974, NaN, NaN, NaN, 0.04089605, "- N/A -   "
26.83, 1117.82, 0.04480844, NaN, NaN, NaN, 0.0433376, "- N/A -   "
26.9, 1121.16, 0.0449251, NaN, NaN, NaN, 0.0445584, "- N/A -   "
26.97, 1124.62, 0.0450472, NaN, NaN, NaN, 0.04089605, "- N/A -   "
27.04, 1128.2, 0.0451805, NaN, NaN, NaN, 0.0335714, "- N/A -   "
27.11, 1131.54, 0.0452972, NaN, NaN, NaN, 0.0335714, "- N/A -   "
27.18, 1134.76, 0.0454166, NaN, NaN, NaN, 0.0323506, "- N/A -   "
27.25, 1138.21, 0.0455415, NaN, NaN, NaN, 0.0286883, "- N/A -   "
27.32, 1141.32, 0.0456526, NaN, NaN, NaN, 0.03112983, "- N/A -   "
27.39, 1144.18, 0.04576087, NaN, NaN, NaN, 0.0347922, "- N/A -   "
27.46, 1146.8, 0.04586083, NaN, NaN, NaN, 0.0433376, "- N/A -   "
27.53, 1150.02, 0.0459719, NaN, NaN, NaN, 0.04577916, "- N/A -   "
27.6, 1153.598, 0.0460969, NaN, NaN, NaN, 0.04089605, "- N/A -   "
27.67, 1157.06, 0.04622181, NaN, NaN, NaN, 0.0372337, "- N/A -   "
27.74, 1160.4, 0.046344, NaN, NaN, NaN, 0.03601294, "- N/A -   "
27.81, 1163.62, 0.04646061, NaN, NaN, NaN, 0.0347922, "- N/A -   "
27.88, 1167.07, 0.0465856, NaN, NaN, NaN, 0.0323506, "- N/A -   "
27.95, 1170.41, 0.046705, NaN, NaN, NaN, 0.03112983, "- N/A -   "
28.02, 1173.27, 0.04681048, NaN, NaN, NaN, 0.0347922, "- N/A -   "
28.09, 1175.78, 0.0469077, NaN, NaN, NaN, 0.0433376, "- N/A -   "
28.16, 1178.76, 0.04701596, NaN, NaN, NaN, 0.04699994, "- N/A -   "
28.23, 1182.457, 0.0471409, NaN, NaN, NaN, 0.0433376, "- N/A -   "
28.3, 1185.68, 0.04726309, NaN, NaN, NaN, 0.04089605, "- N/A -   "
28.37, 1189.37, 0.0473936, NaN, NaN, NaN, 0.0347922, "- N/A -   "
28.44, 1193.07, 0.04752688, NaN, NaN, NaN, 0.0274675, "- N/A -   "
28.51, 1196.29, 0.04764351, NaN, NaN, NaN, 0.0274675, "- N/A -   "
28.58, 1199.27, 0.0477518, NaN, NaN, NaN, 0.0323506, "- N/A -   "
28.65, 1202.25, 0.0478601, NaN, NaN, NaN, 0.0347922, "- N/A -   "
28.72, 1205.47, 0.04797394, NaN, NaN, NaN, 0.03601294, "- N/A -   "
28.79, 1208.33, 0.0480822, NaN, NaN, NaN, 0.04089605, "- N/A -   "
28.86, 1211.44, 0.0481933, NaN, NaN, NaN, 0.04211683, "- N/A -   "
28.93, 1214.89, 0.0483127, NaN, NaN, NaN, 0.04089605, "- N/A -   "
29, 1218.829, 0.04845154, NaN, NaN, NaN, 0.03112983, "- N/A -   "
29.07, 1222.168, 0.0485709, NaN, NaN, NaN, 0.0299091, "- N/A -   "
29.14, 1224.79, 0.0486681, NaN, NaN, NaN, 0.0396753, "- N/A -   "
29.21, 1227.53, 0.0487681, NaN, NaN, NaN, 0.04577916, "- N/A -   "
29.28, 1230.99, 0.048893, NaN, NaN, NaN, 0.04211683, "- N/A -   "
29.35, 1234.57, 0.049018, NaN, NaN, NaN, 0.0384545, "- N/A -   "
29.42, 1237.79, 0.0491374, NaN, NaN, NaN, 0.0372337, "- N/A -   "
29.49, 1241.25, 0.0492568, NaN, NaN, NaN, 0.03601294, "- N/A -   "
29.56, 1244.468, 0.0493734, NaN, NaN, NaN, 0.03601294, "- N/A -   "
29.63, 1247.69, 0.04948727, NaN, NaN, NaN, 0.0372337, "- N/A -   "
29.7, 1250.79, 0.0496039, NaN, NaN, NaN, 0.0372337, "- N/A -   "
29.77, 1254.01, 0.0497233, NaN, NaN, NaN, 0.03601294, "- N/A -   "
29.84, 1257.59, 0.0498482, NaN, NaN, NaN, 0.0335714, "- N/A -   "
29.91, 1261.28, 0.04997598, NaN, NaN, NaN, 0.0286883, "- N/A -   "
29.98, 1264.38, 0.050087, NaN, NaN, NaN, 0.0299091, "- N/A -   "
30.05, 1267.25, 0.05019534, NaN, NaN, NaN, 0.0335714, "- N/A -   "
30.12, 1270.58, 0.0503147, NaN, NaN, NaN, 0.0323506, "- N/A -   "
30.19, 1273.45, 0.0504175, NaN, NaN, NaN, 0.0384545, "- N/A -   "
30.26, 1276.43, 0.0505258, NaN, NaN, NaN, 0.04211683, "- N/A -   "
30.33, 1279.65, 0.0506368, NaN, NaN, NaN, 0.0445584, "- N/A -   "
30.4, 1283.11, 0.050759, NaN, NaN, NaN, 0.04211683, "- N/A -   "
30.47, 1286.8, 0.0508923, NaN, NaN, NaN, 0.0347922, "- N/A -   "
30.54, 1290.14, 0.0510089, NaN, NaN, NaN, 0.0347922, "- N/A -   "
30.61, 1293.36, 0.05112833, NaN, NaN, NaN, 0.0335714, "- N/A -   "
30.68, 1296.82, 0.0512533, NaN, NaN, NaN, 0.0299091, "- N/A -   "
30.75, 1299.8, 0.05136158, NaN, NaN, NaN, 0.0335714, "- N/A -   "
30.82, 1302.78, 0.0514699, NaN, NaN, NaN, 0.0384545, "- N/A -   "
30.89, 1305.41, 0.0515698, NaN, NaN, NaN, 0.04699994, "- N/A -   "
30.96, 1308.51, 0.05167813, NaN, NaN, NaN, 0.0494415, "- N/A -   "
31.03, 1312.44, 0.051817, NaN, NaN, NaN, 0.0396753, "- N/A -   "
31.1, 1316.02, 0.0519447, NaN, NaN, NaN, 0.0347922, "- N/A -   "
31.17, 1319.48, 0.0520641, NaN, NaN, NaN, 0.0335714, "- N/A -   "
31.24, 1322.94, 0.05218905, NaN, NaN, NaN, 0.0299091, "- N/A -   "
31.31, 1326.39, 0.052314, NaN, NaN, NaN, 0.0274675, "- N/A -   "
31.38, 1329.26, 0.05241952, NaN, NaN, NaN, 0.03112983, "- N/A -   "
31.45, 1331.999, 0.0525223, NaN, NaN, NaN, 0.0384545, "- N/A -   "
31.52, 1334.98, 0.052625, NaN, NaN, NaN, 0.0433376, "- N/A -   "
31.59, 1338.2, 0.0527388, NaN, NaN, NaN, 0.0445584, "- N/A -   "
31.66, 1341.42, 0.0528527, NaN, NaN, NaN, 0.04577916, "- N/A -   "
31.73, 1344.88, 0.0529776, NaN, NaN, NaN, 0.04211683, "- N/A -   "
31.8, 1348.81, 0.0531165, NaN, NaN, NaN, 0.0335714, "- N/A -   "
31.87, 1352.15, 0.05323866, NaN, NaN, NaN, 0.0299091, "- N/A -   "
31.94, 1355.37, 0.0533497, NaN, NaN, NaN, 0.0323506, "- N/A -   "
32.01, 1358.47, 0.053458, NaN, NaN, NaN, 0.03601294, "- N/A -   "
32.08, 1361.57, 0.05356632, NaN, NaN, NaN, 0.0396753, "- N/A -   "
32.15, 1364.79, 0.05368572, NaN, NaN, NaN, 0.0384545, "- N/A -   "
32.22, 1367.77, 0.0537912, NaN, NaN, NaN, 0.0433376, "- N/A -   "
32.29, 1370.76, 0.05389953, NaN, NaN, NaN, 0.04699994, "- N/A -   "
32.36, 1374.33, 0.05402726, NaN, NaN, NaN, 0.04211683, "- N/A -   "
32.43, 1378.51, 0.05417165, NaN, NaN, NaN, 0.0299091, "- N/A -   "
32.5, 1381.727, 0.05429105, NaN, NaN, NaN, 0.0286883, "- N/A -   "
32.57, 1384.83, 0.0543993, NaN, NaN, NaN, 0.0335714, "- N/A -   "
32.64, 1387.81, 0.05450764, NaN, NaN, NaN, 0.03601294, "- N/A -   "
32.71, 1391.51, 0.0546354, NaN, NaN, NaN, 0.03112983, "- N/A -   "
32.78, 1394.61, 0.0547464, NaN, NaN, NaN, 0.0335714, "- N/A -   "
32.85, 1397.349, 0.0548492, NaN, NaN, NaN, 0.0396753, "- N/A -   "
32.92, 1400.45, 0.0549602, NaN, NaN, NaN, 0.04211683, "- N/A -   "
32.99, 1403.79, 0.05508242, NaN, NaN, NaN, 0.0396753, "- N/A -   "
33.06, 1407.247, 0.05519905, NaN, NaN, NaN, 0.0396753, "- N/A -   "
33.13, 1410.71, 0.055324, NaN, NaN, NaN, 0.03601294, "- N/A -   "
33.2, 1413.81, 0.0554406, NaN, NaN, NaN, 0.03601294, "- N/A -   "
33.27, 1417.38, 0.0555628, NaN, NaN, NaN, 0.0335714, "- N/A -   "
33.34, 1420.484, 0.05567665, NaN, NaN, NaN, 0.0347922, "- N/A -   "
33.41, 1423.7, 0.0557905, NaN, NaN, NaN, 0.0372337, "- N/A -   "
33.48, 1426.92, 0.05590712, NaN, NaN, NaN, 0.03601294, "- N/A -   "
33.55, 1430.382, 0.0560293, NaN, NaN, NaN, 0.0347922, "- N/A -   "
33.62, 1433.244, 0.0561348, NaN, NaN, NaN, 0.0396753, "- N/A -   "
33.69, 1436.23, 0.05624033, NaN, NaN, NaN, 0.0433376, "- N/A -   "
33.76, 1439.56, 0.056357, NaN, NaN, NaN, 0.0433376, "- N/A -   "
33.83, 1443.38, 0.056493, NaN, NaN, NaN, 0.0347922, "- N/A -   "
33.9, 1446.72, 0.056618, NaN, NaN, NaN, 0.0323506, "- N/A -   "
33.97, 1450.06, 0.05673459, NaN, NaN, NaN, 0.03112983, "- N/A -   "
34.04, 1453.64, 0.05686232, NaN, NaN, NaN, 0.0274675, "- N/A -   "
34.11, 1457.21, 0.05698172, NaN, NaN, NaN, 0.0250259, "- N/A -   "
34.18, 1459.84, 0.05708169, NaN, NaN, NaN, 0.0323506, "- N/A -   "
34.25, 1462.58, 0.05717887, NaN, NaN, NaN, 0.04089605, "- N/A -   "
34.32, 1465.32, 0.0572816, NaN, NaN, NaN, 0.04699994, "- N/A -   "
34.39, 1468.42, 0.05739546, NaN, NaN, NaN, 0.0494415, "- N/A -   "
34.46, 1472.36, 0.0575343, NaN, NaN, NaN, 0.0396753, "- N/A -   "
34.53, 1475.82, 0.0576537, NaN, NaN, NaN, 0.0372337, "- N/A -   "
34.6, 1479.28, 0.0577787, NaN, NaN, NaN, 0.0335714, "- N/A -   "
34.67, 1482.73, 0.0579036, NaN, NaN, NaN, 0.0299091, "- N/A -   "
34.74, 1485.95, 0.0580202, NaN, NaN, NaN, 0.03112983, "- N/A -   "
34.81, 1489.05, 0.0581313, NaN, NaN, NaN, 0.0323506, "- N/A -   "
34.88, 1491.916, 0.05823126, NaN, NaN, NaN, 0.0396753, "- N/A -   "
34.95, 1494.66, 0.0583396, NaN, NaN, NaN, 0.0433376, "- N/A -   "
35.02, 1498.117, 0.05846173, NaN, NaN, NaN, 0.04211683, "- N/A -   "
35.09, 1501.34, 0.0585756, NaN, NaN, NaN, 0.0433376, "- N/A -   "
35.16, 1504.8, 0.0586978, NaN, NaN, NaN, 0.0396753, "- N/A -   "
35.23, 1509.09, 0.0588449, NaN, NaN, NaN, 0.0262467, "- N/A -   "
35.3, 1512.07, 0.05895877, NaN, NaN, NaN, 0.0286883, "- N/A -   "
35.37, 1515.29, 0.0590726, NaN, NaN, NaN, 0.0299091, "- N/A -   "
35.44, 1518.39, 0.05918091, NaN, NaN, NaN, 0.0335714, "- N/A -   "
35.51, 1521.49, 0.0592948, NaN, NaN, NaN, 0.0347922, "- N/A -   "
35.58, 1524.591, 0.0594058, NaN, NaN, NaN, 0.0372337, "- N/A -   "
35.65, 1527.33, 0.05950579, NaN, NaN, NaN, 0.0445584, "- N/A -   "
35.72, 1530.67, 0.05961964, NaN, NaN, NaN, 0.04577916, "- N/A -   "
35.79, 1534.25, 0.0597474, NaN, NaN, NaN, 0.04089605, "- N/A -   "
35.86, 1537.95, 0.05988065, NaN, NaN, NaN, 0.0335714, "- N/A -   "
35.93, 1541.05, 0.0599945, NaN, NaN, NaN, 0.0347922, "- N/A -   "
36, 1544.15, 0.0601028, NaN, NaN, NaN, 0.0384545, "- N/A -   "
36.07, 1547.368, 0.0602222, NaN, NaN, NaN, 0.0372337, "- N/A -   "
36.14, 1550.95, 0.0603471, NaN, NaN, NaN, 0.0335714, "- N/A -   "
36.21, 1554.17, 0.0604582, NaN, NaN, NaN, 0.03601294, "- N/A -   "
36.28, 1556.789, 0.0605637, NaN, NaN, NaN, 0.04211683, "- N/A -   "
36.35, 1560.128, 0.0606804, NaN, NaN, NaN, 0.04089605, "- N/A -   "
36.42, 1563.71, 0.06080253, NaN, NaN, NaN, 0.0384545, "- N/A -   "
36.49, 1566.81, 0.06091916, NaN, NaN, NaN, 0.0384545, "- N/A -   "
36.56, 1570.26, 0.0610413, NaN, NaN, NaN, 0.03601294, "- N/A -   "
36.63, 1573.6, 0.0611607, NaN, NaN, NaN, 0.0347922, "- N/A -   "
36.7, 1577.06, 0.06128014, NaN, NaN, NaN, 0.0335714, "- N/A -   "
36.77, 1580.28, 0.0613995, NaN, NaN, NaN, 0.0323506, "- N/A -   "
36.84, 1583.86, 0.06152449, NaN, NaN, NaN, 0.0286883, "- N/A -   "
36.91, 1586.84, 0.06163556, NaN, NaN, NaN, 0.03112983, "- N/A -   "
36.98, 1589.7, 0.0617383, NaN, NaN, NaN, 0.0372337, "- N/A -   "
37.05, 1592.56, 0.0618438, NaN, NaN, NaN, 0.0433376, "- N/A -   "
37.12, 1595.55, 0.06194933, NaN, NaN, NaN, 0.04699994, "- N/A -   "
37.19, 1598.77, 0.062066, NaN, NaN, NaN, 0.0482207, "- N/A -   "
37.26, 1602.7, 0.062202, NaN, NaN, NaN, 0.0384545, "- N/A -   "
37.33, 1606.16, 0.0623242, NaN, NaN, NaN, 0.0372337, "- N/A -   "
37.4, 1609.5, 0.06244637, NaN, NaN, NaN, 0.0335714, "- N/A -   "
37.47, 1613.2, 0.0625713, NaN, NaN, NaN, 0.0299091, "- N/A -   "
37.54, 1616.3, 0.06268518, NaN, NaN, NaN, 0.03112983, "- N/A -   "
37.61, 1619.04, 0.06279069, NaN, NaN, NaN, 0.03601294, "- N/A -   "
37.68, 1621.9, 0.06289343, NaN, NaN, NaN, 0.0433376, "- N/A -   "
37.75, 1625, 0.0630045, NaN, NaN, NaN, 0.0445584, "- N/A -   "
37.82, 1628.46, 0.0631267, NaN, NaN, NaN, 0.04211683, "- N/A -   "
37.89, 1631.92, 0.06325163, NaN, NaN, NaN, 0.0384545, "- N/A -   "
37.96, 1635.73, 0.0633821, NaN, NaN, NaN, 0.0323506, "- N/A -   "
38.03, 1638.95, 0.06350154, NaN, NaN, NaN, 0.0323506, "- N/A -   "
38.1, 1642.29, 0.06362094, NaN, NaN, NaN, 0.0299091, "- N/A -   "
38.17, 1645.63, 0.06374589, NaN, NaN, NaN, 0.0262467, "- N/A -   "
38.24, 1648.613, 0.06385141, NaN, NaN, NaN, 0.03112983, "- N/A -   "
38.31, 1651.24, 0.0639486, NaN, NaN, NaN, 0.04089605, "- N/A -   "
38.38, 1654.1, 0.06405134, NaN, NaN, NaN, 0.04577916, "- N/A -   "
38.45, 1657.32, 0.06417073, NaN, NaN, NaN, 0.04577916, "- N/A -   "
38.52, 1660.66, 0.0642901, NaN, NaN, NaN, 0.0433376, "- N/A -   "
38.59, 1664.35, 0.06441786, NaN, NaN, NaN, 0.0384545, "- N/A -   "
38.66, 1668.29, 0.0645567, NaN, NaN, NaN, 0.0286883, "- N/A -   "
38.73, 1671.51, 0.06467055, NaN, NaN, NaN, 0.0299091, "- N/A -   "
38.8, 1674.49, 0.06477884, NaN, NaN, NaN, 0.0335714, "- N/A -   "
38.87, 1677.59, 0.0648871, NaN, NaN, NaN, 0.0372337, "- N/A -   "
38.94, 1680.69, 0.06500098, NaN, NaN, NaN, 0.0384545, "- N/A -   "
39.01, 1684.03, 0.0651204, NaN, NaN, NaN, 0.0372337, "- N/A -   "
39.08, 1687.01, 0.0652259, NaN, NaN, NaN, 0.0433376, "- N/A -   "
39.15, 1690.23, 0.06534252, NaN, NaN, NaN, 0.0433376, "- N/A -   "
39.22, 1694.048, 0.0654786, NaN, NaN, NaN, 0.0335714, "- N/A -   "
39.29, 1697.51, 0.06560354, NaN, NaN, NaN, 0.0299091, "- N/A -   "
39.36, 1700.85, 0.06572294, NaN, NaN, NaN, 0.0299091, "- N/A -   "
39.43, 1703.71, 0.06582568, NaN, NaN, NaN, 0.0347922, "- N/A -   "
39.5, 1707.05, 0.06594508, NaN, NaN, NaN, 0.0335714, "- N/A -   "
39.57, 1710.39, 0.06606448, NaN, NaN, NaN, 0.0323506, "- N/A -   "
39.64, 1713.37, 0.06617277, NaN, NaN, NaN, 0.03601294, "- N/A -   "
39.71, 1716.23, 0.06627829, NaN, NaN, NaN, 0.04089605, "- N/A -   "
39.78, 1719.57, 0.06639769, NaN, NaN, NaN, 0.0396753, "- N/A -   "
39.85, 1722.55, 0.0665088, NaN, NaN, NaN, 0.0433376, "- N/A -   "
39.92, 1726.13, 0.06663649, NaN, NaN, NaN, 0.0384545, "- N/A -   "
39.99, 1729.585, 0.06675589, NaN, NaN, NaN, 0.0372337, "- N/A -   "
40.06, 1732.92, 0.0668753, NaN, NaN, NaN, 0.0372337, "- N/A -   "
40.13, 1736.26, 0.06699747, NaN, NaN, NaN, 0.0347922, "- N/A -   "
40.2, 1739.48, 0.06711131, NaN, NaN, NaN, 0.0347922, "- N/A -   "
40.27, 1742.345, 0.06722516, NaN, NaN, NaN, 0.0372337, "- N/A -   "
40.34, 1745.68, 0.06734179, NaN, NaN, NaN, 0.0372337, "- N/A -   "
40.41, 1748.67, 0.06745008, NaN, NaN, NaN, 0.0396753, "- N/A -   "
40.48, 1751.766, 0.06756392, NaN, NaN, NaN, 0.04089605, "- N/A -   "
40.55, 1754.99, 0.067675, NaN, NaN, NaN, 0.0433376, "- N/A -   "
40.62, 1758.56, 0.06780273, NaN, NaN, NaN, 0.0396753, "- N/A -   "
40.69, 1762.14, 0.06793323, NaN, NaN, NaN, 0.0323506, "- N/A -   "
40.76, 1765.36, 0.0680499, NaN, NaN, NaN, 0.0323506, "- N/A -   "
40.83, 1768.46, 0.0681637, NaN, NaN, NaN, 0.0335714, "- N/A -   "
40.9, 1771.92, 0.0682887, NaN, NaN, NaN, 0.03112983, "- N/A -   "
40.97, 1775.02, 0.06839973, NaN, NaN, NaN, 0.0323506, "- N/A -   "
41.04, 1778.12, 0.0685108, NaN, NaN, NaN, 0.0347922, "- N/A -   "
41.11, 1780.51, 0.06860521, NaN, NaN, NaN, 0.0445584, "- N/A -   "
41.18, 1783.49, 0.0687135, NaN, NaN, NaN, 0.0482207, "- N/A -   "
41.25, 1786.95, 0.0688385, NaN, NaN, NaN, 0.0445584, "- N/A -   "
41.32, 1790.64, 0.06897174, NaN, NaN, NaN, 0.0372337, "- N/A -   "
41.39, 1793.98, 0.06909669, NaN, NaN, NaN, 0.0335714, "- N/A -   "
41.46, 1797.56, 0.06921887, NaN, NaN, NaN, 0.03112983, "- N/A -   "
41.53, 1800.78, 0.06933827, NaN, NaN, NaN, 0.0299091, "- N/A -   "
41.6, 1803.879, 0.06945489, NaN, NaN, NaN, 0.0299091, "- N/A -   "
41.67, 1806.5, 0.06955486, NaN, NaN, NaN, 0.0372337, "- N/A -   "
41.74, 1809.13, 0.0696548, NaN, NaN, NaN, 0.0445584, "- N/A -   "
41.81, 1812.47, 0.06977145, NaN, NaN, NaN, 0.0445584, "- N/A -   "
41.88, 1815.57, 0.06989084, NaN, NaN, NaN, 0.0433376, "- N/A -   "
41.95, 1819.024, 0.0700158, NaN, NaN, NaN, 0.0396753, "- N/A -   "
42.02, 1822.96, 0.07014908, NaN, NaN, NaN, 0.0323506, "- N/A -   "
42.09, 1826.3, 0.07027404, NaN, NaN, NaN, 0.0286883, "- N/A -   "
42.16, 1829.64, 0.0703962, NaN, NaN, NaN, 0.0262467, "- N/A -   "
42.23, 1832.38, 0.07049617, NaN, NaN, NaN, 0.0335714, "- N/A -   "
42.3, 1835.48, 0.0706072, NaN, NaN, NaN, 0.03601294, "- N/A -   "
42.37, 1838.7, 0.07072942, NaN, NaN, NaN, 0.0335714, "- N/A -   "
42.44, 1841.56, 0.07083216, NaN, NaN, NaN, 0.0396753, "- N/A -   "
42.51, 1844.31, 0.0709349, NaN, NaN, NaN, 0.04577916, "- N/A -   "
42.58, 1847.64, 0.0710543, NaN, NaN, NaN, 0.0445584, "- N/A -   "
42.65, 1851.82, 0.0712015, NaN, NaN, NaN, 0.0323506, "- N/A -   "
42.72, 1855.16, 0.07132365, NaN, NaN, NaN, 0.0299091, "- N/A -   "
42.79, 1857.78, 0.07142361, NaN, NaN, NaN, 0.03601294, "- N/A -   "
42.86, 1860.643, 0.07152913, NaN, NaN, NaN, 0.04089605, "- N/A -   "
42.93, 1864.1, 0.07165408, NaN, NaN, NaN, 0.0384545, "- N/A -   "
43, 1867.2, 0.0717679, NaN, NaN, NaN, 0.0384545, "- N/A -   "
43.07, 1870.42, 0.07188455, NaN, NaN, NaN, 0.0384545, "- N/A -   "
43.14, 1873.52, 0.0719984, NaN, NaN, NaN, 0.0396753, "- N/A -   "
43.21, 1876.742, 0.0721178, NaN, NaN, NaN, 0.0396753, "- N/A -   "
43.28, 1879.96, 0.07223164, NaN, NaN, NaN, 0.0396753, "- N/A -   "
43.35, 1883.54, 0.0723594, NaN, NaN, NaN, 0.0347922, "- N/A -   "
43.42, 1886.76, 0.07248155, NaN, NaN, NaN, 0.0335714, "- N/A -   "
43.49, 1889.86, 0.07259262, NaN, NaN, NaN, 0.0347922, "- N/A -   "
43.56, 1893.32, 0.07272036, NaN, NaN, NaN, 0.03112983, "- N/A -   "
43.63, 1896.42, 0.07283142, NaN, NaN, NaN, 0.0323506, "- N/A -   "
43.7, 1899.64, 0.072948, NaN, NaN, NaN, 0.0335714, "- N/A -   "
43.77, 1902.86, 0.07306467, NaN, NaN, NaN, 0.0323506, "- N/A -   "
43.84, 1905.36, 0.07316741, NaN, NaN, NaN, 0.0384545, "- N/A -   "
43.91, 1908.34, 0.07327293, NaN, NaN, NaN, 0.0433376, "- N/A -   "
43.98, 1911.33, 0.07338677, NaN, NaN, NaN, 0.04577916, "- N/A -   "
44.05, 1915.02, 0.0735145, NaN, NaN, NaN, 0.0396753, "- N/A -   "
44.12, 1918.6, 0.07364501, NaN, NaN, NaN, 0.0347922, "- N/A -   "
44.19, 1921.82, 0.0737589, NaN, NaN, NaN, 0.0347922, "- N/A -   "
44.26, 1924.92, 0.07387548, NaN, NaN, NaN, 0.0347922, "- N/A -   "
44.33, 1928.62, 0.07400876, NaN, NaN, NaN, 0.0274675, "- N/A -   "
44.4, 1931.598, 0.07411706, NaN, NaN, NaN, 0.0323506, "- N/A -   "
44.47, 1934.1, 0.07421702, NaN, NaN, NaN, 0.0396753, "- N/A -   "
44.54, 1936.845, 0.0743198, NaN, NaN, NaN, 0.04577916, "- N/A -   "
44.61, 1939.95, 0.07443361, NaN, NaN, NaN, 0.04699994, "- N/A -   "
44.68, 1943.76, 0.07456689, NaN, NaN, NaN, 0.0396753, "- N/A -   "
44.75, 1947.46, 0.0746974, NaN, NaN, NaN, 0.0335714, "- N/A -   "
44.82, 1950.44, 0.07480847, NaN, NaN, NaN, 0.03601294, "- N/A -   "
44.89, 1953.898, 0.0749362, NaN, NaN, NaN, 0.03112983, "- N/A -   "
44.96, 1957.36, 0.07506393, NaN, NaN, NaN, 0.0262467, "- N/A -   "
45.03, 1960.1, 0.0751694, NaN, NaN, NaN, 0.0323506, "- N/A -   "
45.1, 1962.84, 0.07527219, NaN, NaN, NaN, 0.0384545, "- N/A -   "
45.17, 1965.58, 0.07537493, NaN, NaN, NaN, 0.0433376, "- N/A -   "
45.24, 1968.92, 0.0754888, NaN, NaN, NaN, 0.0445584, "- N/A -   "
45.31, 1971.91, 0.0756054, NaN, NaN, NaN, 0.0445584, "- N/A -   "
45.38, 1975.24, 0.0757276, NaN, NaN, NaN, 0.04211683, "- N/A -   "
45.45, 1979.06, 0.07586364, NaN, NaN, NaN, 0.0347922, "- N/A -   "
45.52, 1982.4, 0.07598581, NaN, NaN, NaN, 0.03112983, "- N/A -   "
45.59, 1985.619, 0.0761024, NaN, NaN, NaN, 0.03112983, "- N/A -   "
45.66, 1988.6, 0.07621073, NaN, NaN, NaN, 0.0347922, "- N/A -   "
45.73, 1991.58, 0.0763218, NaN, NaN, NaN, 0.0372337, "- N/A -   "
45.8, 1994.68, 0.07643843, NaN, NaN, NaN, 0.0372337, "- N/A -   "
45.87, 1997.425, 0.07654116, NaN, NaN, NaN, 0.0433376, "- N/A -   "
45.94, 2000.41, 0.07665224, NaN, NaN, NaN, 0.04577916, "- N/A -   "
46.01, 2004.103, 0.07678274, NaN, NaN, NaN, 0.0396753, "- N/A -   "
46.08, 2007.8, 0.076916, NaN, NaN, NaN, 0.0323506, "- N/A -   "
46.15, 2011.139, 0.07704098, NaN, NaN, NaN, 0.0299091, "- N/A -   "
46.22, 2013.52, 0.07713817, NaN, NaN, NaN, 0.0372337, "- N/A -   "
46.29, 2016.74, 0.07725479, NaN, NaN, NaN, 0.0384545, "- N/A -   "
46.36, 2020.56, 0.07739086, NaN, NaN, NaN, 0.0286883, "- N/A -   "
46.43, 2023.3, 0.07749637, NaN, NaN, NaN, 0.0335714, "- N/A -   "
46.5, 2026.05, 0.07760189, NaN, NaN, NaN, 0.0396753, "- N/A -   "
46.57, 2029.03, 0.0777129, NaN, NaN, NaN, 0.04089605, "- N/A -   "
46.64, 2032.13, 0.07782958, NaN, NaN, NaN, 0.04089605, "- N/A -   "
46.71, 2035.23, 0.07794898, NaN, NaN, NaN, 0.04089605, "- N/A -   "
46.78, 2038.81, 0.07807115, NaN, NaN, NaN, 0.0372337, "- N/A -   "
46.85, 2041.91, 0.07818778, NaN, NaN, NaN, 0.0372337, "- N/A -   "
46.92, 2045.01, 0.07830718, NaN, NaN, NaN, 0.0372337, "- N/A -   "
46.99, 2048.23, 0.07843213, NaN, NaN, NaN, 0.0335714, "- N/A -   "
47.06, 2051.327, 0.07854598, NaN, NaN, NaN, 0.0335714, "- N/A -   "
47.13, 2054.55, 0.07866538, NaN, NaN, NaN, 0.0323506, "- N/A -   "
47.2, 2057.528, 0.07877645, NaN, NaN, NaN, 0.0347922, "- N/A -   "
47.27, 2060.27, 0.07888197, NaN, NaN, NaN, 0.04089605, "- N/A -   "
47.34, 2063.01, 0.0789903, NaN, NaN, NaN, 0.0433376, "- N/A -   "
47.41, 2066.591, 0.07911243, NaN, NaN, NaN, 0.04089605, "- N/A -   "
47.48, 2070.05, 0.07924294, NaN, NaN, NaN, 0.0347922, "- N/A -   "
47.55, 2073.39, 0.07937068, NaN, NaN, NaN, 0.03112983, "- N/A -   "
47.62, 2076.37, 0.07947897, NaN, NaN, NaN, 0.0335714, "- N/A -   "
47.69, 2079.47, 0.0795956, NaN, NaN, NaN, 0.0335714, "- N/A -   "
47.76, 2082.81, 0.07972332, NaN, NaN, NaN, 0.0286883, "- N/A -   "
47.83, 2085.55, 0.0798288, NaN, NaN, NaN, 0.0335714, "- N/A -   "
47.9, 2088.3, 0.0799288, NaN, NaN, NaN, 0.04089605, "- N/A -   "
47.97, 2091.04, 0.0800371, NaN, NaN, NaN, 0.0445584, "- N/A -   "
48.04, 2094.14, 0.0801565, NaN, NaN, NaN, 0.0445584, "- N/A -   "
48.11, 2097.48, 0.0802814, NaN, NaN, NaN, 0.0396753, "- N/A -   "
48.18, 2100.94, 0.0804092, NaN, NaN, NaN, 0.0347922, "- N/A -   "
48.25, 2104.16, 0.08053135, NaN, NaN, NaN, 0.0335714, "- N/A -   "
48.32, 2107.256, 0.0806508, NaN, NaN, NaN, 0.03112983, "- N/A -   "
48.39, 2110.595, 0.08077571, NaN, NaN, NaN, 0.0274675, "- N/A -   "
48.46, 2113.338, 0.080884, NaN, NaN, NaN, 0.03112983, "- N/A -   "
48.53, 2115.96, 0.08098396, NaN, NaN, NaN, 0.0384545, "- N/A -   "
48.586, 2117.87, 0.08106171, NaN, NaN, NaN, 0.04577916, "- N/A -   "