File: 2_Tensile_Data/Hamel_ForceTest_Bolt8_Test8.csv
Time, Load (lb), Position (in), AxialStrain (in), TransverseStrain (in), Auxiliary (), Control Out (V), Stress (psi)
0.0, 9.671693, 0.0, NaN, NaN, NaN, -0.006714277, "- N/A -   "
0.01, 9.671693, 2.776752E-6, NaN, NaN, NaN, 6.103888E-4, "- N/A -   "
0.02, 9.671693, 2.776752E-6, NaN, NaN, NaN, 0.006714277, "- N/A -   "
0.03, 9.671693, 2.776752E-6, NaN, NaN, NaN, 0.0250259, "- N/A -   "
0.04, 9.78964, 8.330256E-6, NaN, NaN, NaN, 0.04211683, "- N/A -   "
0.05, 9.907588, 1.94373e-05, NaN, NaN, NaN, 0.0579869, "- N/A -   "
0.06, 10.1435, 3.3321e-05, NaN, NaN, NaN, 0.0701947, "- N/A -   "
0.07, 10.26143, 5.5535e-05, NaN, NaN, NaN, 0.0799609, "- N/A -   "
0.08, 10.6153, 8.05258E-5, NaN, NaN, NaN, 0.0897272, "- N/A -   "
0.09, 10.9691, 0.000108293, NaN, NaN, NaN, 0.095831, "- N/A -   "
0.1, 11.4409, 1.388376E-4, NaN, NaN, NaN, 0.09949338, "- N/A -   "
0.11, 11.7947, 0.000172159, NaN, NaN, NaN, 0.09216871, "- N/A -   "
0.12, 12.14859, 0.000202703, NaN, NaN, NaN, 0.0872856, "- N/A -   "
0.13, 12.5024, 0.000227694, NaN, NaN, NaN, 0.08240249, "- N/A -   "
0.14, 12.7383, 0.000255461, NaN, NaN, NaN, 0.07751938, "- N/A -   "
0.15, 13.09217, 0.000280452, NaN, NaN, NaN, 0.07385705, "- N/A -   "
0.16, 13.3281, 3.054427E-4, NaN, NaN, NaN, 0.07141549, "- N/A -   "
0.17, 13.564, 0.00032488, NaN, NaN, NaN, 0.0689739, "- N/A -   "
0.18, 13.9178, 0.000344317, NaN, NaN, NaN, 0.06775316, "- N/A -   "
0.19, 14.0357, 3.637545E-4, NaN, NaN, NaN, 0.06653238, "- N/A -   "
0.2, 14.2716, 0.000383192, NaN, NaN, NaN, 0.0653116, "- N/A -   "
0.21, 14.5075, 0.000399852, NaN, NaN, NaN, 0.0653116, "- N/A -   "
0.22, 14.6255, 4.192895E-4, NaN, NaN, NaN, 0.0640908, "- N/A -   "
0.23, 14.9793, 4.387268E-4, NaN, NaN, NaN, 0.06287005, "- N/A -   "
0.24, 15.0973, 0.000458164, NaN, NaN, NaN, 0.06287005, "- N/A -   "
0.25, 15.3332, 0.000474825, NaN, NaN, NaN, 0.06164927, "- N/A -   "
0.26, 15.5691, 4.942618E-4, NaN, NaN, NaN, 0.0604285, "- N/A -   "
0.27, 15.687, 5.136991E-4, NaN, NaN, NaN, 0.0592077, "- N/A -   "
0.28, 16.0409, 5.359131E-4, NaN, NaN, NaN, 0.05676616, "- N/A -   "
0.29, 16.1588, 5.553504E-4, NaN, NaN, NaN, 0.0555454, "- N/A -   "
0.3, 16.3947, 5.747876E-4, NaN, NaN, NaN, 0.0543246, "- N/A -   "
0.31, 16.74854, 5.942249E-4, NaN, NaN, NaN, 0.0531038, "- N/A -   "
0.32, 16.9844, 6.136621E-4, NaN, NaN, NaN, 0.05188305, "- N/A -   "
0.33, 17.2203, 6.330994E-4, NaN, NaN, NaN, 0.05066227, "- N/A -   "
0.34, 17.3383, 6.525367E-4, NaN, NaN, NaN, 0.0494415, "- N/A -   "
0.35, 17.5742, 6.747507E-4, NaN, NaN, NaN, 0.04699994, "- N/A -   "
0.36, 17.8101, 0.000694188, NaN, NaN, NaN, 0.04577916, "- N/A -   "
0.37, 18.046, 7.136252E-4, NaN, NaN, NaN, 0.0445584, "- N/A -   "
0.38, 18.16391, 0.000733062, NaN, NaN, NaN, 0.0433376, "- N/A -   "
0.39, 18.3998, 7.49723E-4, NaN, NaN, NaN, 0.0433376, "- N/A -   "
0.4, 18.6357, 7.691603E-4, NaN, NaN, NaN, 0.04211683, "- N/A -   "
0.46, 19.8152, 8.746768E-4, NaN, NaN, NaN, 0.04089605, "- N/A -   "
0.52, 21.1126, 9.829701E-4, NaN, NaN, NaN, 0.03601294, "- N/A -   "
0.58, 22.41, 0.001096817, NaN, NaN, NaN, 0.0299091, "- N/A -   "
0.64, 23.5895, 0.00119678, NaN, NaN, NaN, 0.03112983, "- N/A -   "
0.7, 24.65102, 0.00128841, NaN, NaN, NaN, 0.0335714, "- N/A -   "
0.76, 25.5946, 0.00137449, NaN, NaN, NaN, 0.0396753, "- N/A -   "
0.82, 26.6561, 0.00146335, NaN, NaN, NaN, 0.0445584, "- N/A -   "
0.88, 27.8356, 0.00156609, NaN, NaN, NaN, 0.0433376, "- N/A -   "
0.94, 29.133, 0.0016716, NaN, NaN, NaN, 0.04211683, "- N/A -   "
1, 30.3125, 0.00176879, NaN, NaN, NaN, 0.04211683, "- N/A -   "
1.06, 31.72787, 0.00188264, NaN, NaN, NaN, 0.03601294, "- N/A -   "
1.12, 33.02529, 0.00200481, NaN, NaN, NaN, 0.0262467, "- N/A -   "
1.18, 34.3227, 0.002102001, NaN, NaN, NaN, 0.0274675, "- N/A -   "
1.24, 35.3842, 0.00219641, NaN, NaN, NaN, 0.03112983, "- N/A -   "
1.3, 36.5637, 0.00228804, NaN, NaN, NaN, 0.0335714, "- N/A -   "
1.36, 37.74319, 0.002382453, NaN, NaN, NaN, 0.03601294, "- N/A -   "
1.42, 38.9227, 0.002485193, NaN, NaN, NaN, 0.03601294, "- N/A -   "
1.48, 39.98419, 0.00257127, NaN, NaN, NaN, 0.04089605, "- N/A -   "
1.54, 41.16367, 0.00266846, NaN, NaN, NaN, 0.0433376, "- N/A -   "
1.6, 42.3431, 0.00276009, NaN, NaN, NaN, 0.04577916, "- N/A -   "
1.66, 43.6406, 0.00286561, NaN, NaN, NaN, 0.0433376, "- N/A -   "
1.72, 45.05593, 0.00298501, NaN, NaN, NaN, 0.0347922, "- N/A -   "
1.78, 46.4713, 0.0030933, NaN, NaN, NaN, 0.03112983, "- N/A -   "
1.84, 47.65078, 0.00318493, NaN, NaN, NaN, 0.0347922, "- N/A -   "
1.9, 48.83025, 0.003279344, NaN, NaN, NaN, 0.0384545, "- N/A -   "
1.96, 50.0097, 0.003379307, NaN, NaN, NaN, 0.0372337, "- N/A -   "
2.02, 51.543, 0.00349038, NaN, NaN, NaN, 0.0323506, "- N/A -   "
2.08, 52.72252, 0.00359312, NaN, NaN, NaN, 0.03112983, "- N/A -   "
2.14, 53.902, 0.00368197, NaN, NaN, NaN, 0.0372337, "- N/A -   "
2.2, 54.8456, 0.00376805, NaN, NaN, NaN, 0.0433376, "- N/A -   "
2.26, 56.37889, 0.00387912, NaN, NaN, NaN, 0.0384545, "- N/A -   "
2.32, 57.5584, 0.00397631, NaN, NaN, NaN, 0.0396753, "- N/A -   "
2.38, 58.9737, 0.00407905, NaN, NaN, NaN, 0.0372337, "- N/A -   "
2.44, 60.15321, 0.00418179, NaN, NaN, NaN, 0.03601294, "- N/A -   "
2.5, 61.45063, 0.004284528, NaN, NaN, NaN, 0.03601294, "- N/A -   "
2.56, 62.866, 0.00439282, NaN, NaN, NaN, 0.03112983, "- N/A -   "
2.62, 64.16342, 0.00449001, NaN, NaN, NaN, 0.0323506, "- N/A -   "
2.68, 65.4608, 0.00459275, NaN, NaN, NaN, 0.0323506, "- N/A -   "
2.74, 66.87622, 0.004687157, NaN, NaN, NaN, 0.0335714, "- N/A -   "
2.8, 68.05569, 0.00479267, NaN, NaN, NaN, 0.0323506, "- N/A -   "
2.86, 69.23517, 0.00488153, NaN, NaN, NaN, 0.03601294, "- N/A -   "
2.92, 70.5326, 0.00497316, NaN, NaN, NaN, 0.04089605, "- N/A -   "
2.98, 71.83001, 0.005067572, NaN, NaN, NaN, 0.04211683, "- N/A -   "
3.04, 73.12743, 0.00516476, NaN, NaN, NaN, 0.0433376, "- N/A -   "
3.1, 74.5428, 0.00527028, NaN, NaN, NaN, 0.04089605, "- N/A -   "
3.16, 76.19407, 0.00538412, NaN, NaN, NaN, 0.0347922, "- N/A -   "
3.22, 77.6094, 0.00548408, NaN, NaN, NaN, 0.0347922, "- N/A -   "
3.28, 78.90686, 0.00558127, NaN, NaN, NaN, 0.03601294, "- N/A -   "
3.34, 80.55813, 0.00569234, NaN, NaN, NaN, 0.0323506, "- N/A -   "
3.4, 81.97349, 0.005797858, NaN, NaN, NaN, 0.0286883, "- N/A -   "
3.46, 83.38886, 0.00589504, NaN, NaN, NaN, 0.03112983, "- N/A -   "
3.52, 84.56834, 0.00598112, NaN, NaN, NaN, 0.0372337, "- N/A -   "
3.58, 85.74781, 0.006064426, NaN, NaN, NaN, 0.0433376, "- N/A -   "
3.64, 87.16318, 0.00615884, NaN, NaN, NaN, 0.04699994, "- N/A -   "
3.7, 88.8144, 0.006267129, NaN, NaN, NaN, 0.0433376, "- N/A -   "
3.76, 90.58366, 0.006378199, NaN, NaN, NaN, 0.0396753, "- N/A -   "
3.82, 92.35287, 0.006486492, NaN, NaN, NaN, 0.03601294, "- N/A -   "
3.88, 94.1221, 0.00659479, NaN, NaN, NaN, 0.0323506, "- N/A -   "
3.94, 95.8913, 0.006703079, NaN, NaN, NaN, 0.0286883, "- N/A -   "
4, 97.54256, 0.00680027, NaN, NaN, NaN, 0.0286883, "- N/A -   "
4.06, 99.1938, 0.00689745, NaN, NaN, NaN, 0.0299091, "- N/A -   "
4.12, 100.6092, 0.00698631, NaN, NaN, NaN, 0.0347922, "- N/A -   "
4.18, 102.025, 0.00707239, NaN, NaN, NaN, 0.04089605, "- N/A -   "
4.24, 103.676, 0.00716402, NaN, NaN, NaN, 0.0445584, "- N/A -   "
4.3, 105.327, 0.00726121, NaN, NaN, NaN, 0.04699994, "- N/A -   "
4.36, 107.214, 0.00736117, NaN, NaN, NaN, 0.04577916, "- N/A -   "
4.42, 109.101, 0.00746946, NaN, NaN, NaN, 0.04211683, "- N/A -   "
4.48, 110.989, 0.00758053, NaN, NaN, NaN, 0.0372337, "- N/A -   "
4.54, 112.876, 0.007697156, NaN, NaN, NaN, 0.03112983, "- N/A -   "
4.6, 114.645, 0.007794343, NaN, NaN, NaN, 0.03112983, "- N/A -   "
4.66, 116.178, 0.007888752, NaN, NaN, NaN, 0.0335714, "- N/A -   "
4.72, 118.065, 0.007985938, NaN, NaN, NaN, 0.0347922, "- N/A -   "
4.78, 119.717, 0.008083125, NaN, NaN, NaN, 0.0372337, "- N/A -   "
4.84, 121.604, 0.008183088, NaN, NaN, NaN, 0.03601294, "- N/A -   "
4.9, 123.137, 0.00827472, NaN, NaN, NaN, 0.0396753, "- N/A -   "
4.96, 124.788, 0.008363577, NaN, NaN, NaN, 0.0445584, "- N/A -   "
5.02, 126.676, 0.008463539, NaN, NaN, NaN, 0.0445584, "- N/A -   "
5.08, 129.035, 0.008580163, NaN, NaN, NaN, 0.0384545, "- N/A -   "
5.14, 131.1576, 0.008691234, NaN, NaN, NaN, 0.0323506, "- N/A -   "
5.2, 133.399, 0.00879675, NaN, NaN, NaN, 0.0299091, "- N/A -   "
5.26, 135.1678, 0.00889116, NaN, NaN, NaN, 0.0335714, "- N/A -   "
5.32, 137.173, 0.008985569, NaN, NaN, NaN, 0.03601294, "- N/A -   "
5.38, 139.414, 0.009091086, NaN, NaN, NaN, 0.0335714, "- N/A -   "
5.44, 141.537, 0.009191048, NaN, NaN, NaN, 0.0323506, "- N/A -   "
5.5, 143.424, 0.009282682, NaN, NaN, NaN, 0.03601294, "- N/A -   "
5.56, 145.429, 0.009374314, NaN, NaN, NaN, 0.0396753, "- N/A -   "
5.62, 147.198, 0.009463171, NaN, NaN, NaN, 0.0445584, "- N/A -   "
5.68, 149.439, 0.009568687, NaN, NaN, NaN, 0.04211683, "- N/A -   "
5.74, 151.445, 0.009674203, NaN, NaN, NaN, 0.0396753, "- N/A -   "
5.8, 153.921, 0.009779719, NaN, NaN, NaN, 0.0372337, "- N/A -   "
5.86, 156.0445, 0.009879682, NaN, NaN, NaN, 0.0372337, "- N/A -   "
5.92, 157.932, 0.009979647, NaN, NaN, NaN, 0.0384545, "- N/A -   "
5.98, 160.173, 0.0100824, NaN, NaN, NaN, 0.03601294, "- N/A -   "
6.04, 162.414, 0.0101879, NaN, NaN, NaN, 0.0335714, "- N/A -   "
6.1, 164.537, 0.0102879, NaN, NaN, NaN, 0.0335714, "- N/A -   "
6.16, 166.66, 0.0103906, NaN, NaN, NaN, 0.0323506, "- N/A -   "
6.22, 168.665, 0.0104906, NaN, NaN, NaN, 0.0335714, "- N/A -   "
6.28, 170.67, 0.010585, NaN, NaN, NaN, 0.0347922, "- N/A -   "
6.34, 172.6751, 0.0106766, NaN, NaN, NaN, 0.0384545, "- N/A -   "
6.4, 174.4443, 0.0107627, NaN, NaN, NaN, 0.0445584, "- N/A -   "
6.46, 176.6853, 0.0108654, NaN, NaN, NaN, 0.0433376, "- N/A -   "
6.52, 178.926, 0.0109765, NaN, NaN, NaN, 0.0384545, "- N/A -   "
6.58, 181.403, 0.0110931, NaN, NaN, NaN, 0.0323506, "- N/A -   "
6.64, 183.526, 0.0111931, NaN, NaN, NaN, 0.03112983, "- N/A -   "
6.7, 185.531, 0.01129305, NaN, NaN, NaN, 0.0323506, "- N/A -   "
6.76, 187.772, 0.0113986, NaN, NaN, NaN, 0.0286883, "- N/A -   "
6.82, 189.777, 0.0115013, NaN, NaN, NaN, 0.0286883, "- N/A -   "
6.88, 191.665, 0.0115902, NaN, NaN, NaN, 0.0323506, "- N/A -   "
6.94, 193.3159, 0.011679, NaN, NaN, NaN, 0.0384545, "- N/A -   "
7, 195.085, 0.0117651, NaN, NaN, NaN, 0.0445584, "- N/A -   "
7.06, 196.972, 0.011854, NaN, NaN, NaN, 0.0482207, "- N/A -   "
7.12, 199.095, 0.0119678, NaN, NaN, NaN, 0.04211683, "- N/A -   "
7.18, 201.336, 0.0120761, NaN, NaN, NaN, 0.0384545, "- N/A -   "
7.24, 203.459, 0.0121788, NaN, NaN, NaN, 0.0372337, "- N/A -   "
7.3, 205.465, 0.0122816, NaN, NaN, NaN, 0.0372337, "- N/A -   "
7.36, 207.705, 0.01239542, NaN, NaN, NaN, 0.03112983, "- N/A -   "
7.42, 209.711, 0.0124954, NaN, NaN, NaN, 0.03112983, "- N/A -   "
7.48, 211.834, 0.0125981, NaN, NaN, NaN, 0.0286883, "- N/A -   "
7.54, 213.603, 0.0126898, NaN, NaN, NaN, 0.0323506, "- N/A -   "
7.6, 215.372, 0.0127786, NaN, NaN, NaN, 0.0384545, "- N/A -   "
7.66, 217.141, 0.0128702, NaN, NaN, NaN, 0.04089605, "- N/A -   "
7.72, 219.1464, 0.0129702, NaN, NaN, NaN, 0.04089605, "- N/A -   "
7.78, 220.798, 0.01306184, NaN, NaN, NaN, 0.04577916, "- N/A -   "
7.84, 223.157, 0.0131729, NaN, NaN, NaN, 0.04089605, "- N/A -   "
7.9, 225.398, 0.013284, NaN, NaN, NaN, 0.0347922, "- N/A -   "
7.96, 227.757, 0.0133978, NaN, NaN, NaN, 0.0286883, "- N/A -   "
8.02, 229.762, 0.0135006, NaN, NaN, NaN, 0.0274675, "- N/A -   "
8.08, 231.531, 0.013595, NaN, NaN, NaN, 0.0299091, "- N/A -   "
8.14, 233.536, 0.0136922, NaN, NaN, NaN, 0.03112983, "- N/A -   "
8.2, 235.423, 0.0137838, NaN, NaN, NaN, 0.03601294, "- N/A -   "
8.26, 237.3103, 0.01388376, NaN, NaN, NaN, 0.03601294, "- N/A -   "
8.32, 239.08, 0.0139754, NaN, NaN, NaN, 0.04089605, "- N/A -   "
8.38, 240.967, 0.014067, NaN, NaN, NaN, 0.0433376, "- N/A -   "
8.44, 242.736, 0.0141587, NaN, NaN, NaN, 0.04699994, "- N/A -   "
8.5, 245.092, 0.0142725, NaN, NaN, NaN, 0.04089605, "- N/A -   "
8.56, 247.331, 0.0143836, NaN, NaN, NaN, 0.03601294, "- N/A -   "
8.62, 249.452, 0.0144891, NaN, NaN, NaN, 0.0335714, "- N/A -   "
8.68, 251.337, 0.0145835, NaN, NaN, NaN, 0.03601294, "- N/A -   "
8.74, 253.104, 0.0146807, NaN, NaN, NaN, 0.0384545, "- N/A -   "
8.8, 255.225, 0.0147834, NaN, NaN, NaN, 0.03601294, "- N/A -   "
8.86, 257.346, 0.0148917, NaN, NaN, NaN, 0.0323506, "- N/A -   "
8.92, 259.231, 0.0149889, NaN, NaN, NaN, 0.0335714, "- N/A -   "
8.98, 260.9987, 0.015075, NaN, NaN, NaN, 0.0396753, "- N/A -   "
9.04, 263.002, 0.0151722, NaN, NaN, NaN, 0.04089605, "- N/A -   "
9.1, 265.0048, 0.0152777, NaN, NaN, NaN, 0.0384545, "- N/A -   "
9.16, 267.126, 0.0153749, NaN, NaN, NaN, 0.0396753, "- N/A -   "
9.22, 269.1287, 0.0154804, NaN, NaN, NaN, 0.0372337, "- N/A -   "
9.28, 271.25, 0.0155831, NaN, NaN, NaN, 0.03601294, "- N/A -   "
9.34, 273.253, 0.0156831, NaN, NaN, NaN, 0.0372337, "- N/A -   "
9.4, 275.609, 0.0157914, NaN, NaN, NaN, 0.0323506, "- N/A -   "
9.46, 277.494, 0.0158886, NaN, NaN, NaN, 0.0335714, "- N/A -   "
9.52, 279.615, 0.0159913, NaN, NaN, NaN, 0.0323506, "- N/A -   "
9.58, 281.3826, 0.0160913, NaN, NaN, NaN, 0.0335714, "- N/A -   "
9.64, 283.6213, 0.01619124, NaN, NaN, NaN, 0.0323506, "- N/A -   "
9.7, 285.153, 0.0162773, NaN, NaN, NaN, 0.0384545, "- N/A -   "
9.76, 287.038, 0.01637173, NaN, NaN, NaN, 0.04089605, "- N/A -   "
9.82, 288.806, 0.0164634, NaN, NaN, NaN, 0.04577916, "- N/A -   "
9.88, 290.8087, 0.0165605, NaN, NaN, NaN, 0.04699994, "- N/A -   "
9.94, 293.165, 0.0166716, NaN, NaN, NaN, 0.04089605, "- N/A -   "
10, 295.522, 0.0167855, NaN, NaN, NaN, 0.0347922, "- N/A -   "
10.06, 297.6426, 0.0168882, NaN, NaN, NaN, 0.0335714, "- N/A -   "
10.12, 299.528, 0.0169854, NaN, NaN, NaN, 0.0347922, "- N/A -   "
10.18, 301.7665, 0.01709091, NaN, NaN, NaN, 0.0323506, "- N/A -   "
10.24, 304.005, 0.0171992, NaN, NaN, NaN, 0.0286883, "- N/A -   "
10.3, 305.8904, 0.0172908, NaN, NaN, NaN, 0.0323506, "- N/A -   "
10.36, 307.54, 0.0173769, NaN, NaN, NaN, 0.0384545, "- N/A -   "
10.42, 309.425, 0.0174685, NaN, NaN, NaN, 0.04211683, "- N/A -   "
10.48, 311.6639, 0.0175713, NaN, NaN, NaN, 0.04089605, "- N/A -   "
10.54, 313.4313, 0.0176712, NaN, NaN, NaN, 0.04089605, "- N/A -   "
10.6, 315.67, 0.01777399, NaN, NaN, NaN, 0.04089605, "- N/A -   "
10.66, 318.027, 0.0178823, NaN, NaN, NaN, 0.03601294, "- N/A -   "
10.72, 320.03, 0.0179822, NaN, NaN, NaN, 0.03601294, "- N/A -   "
10.78, 322.268, 0.0180905, NaN, NaN, NaN, 0.0335714, "- N/A -   "
10.84, 324.2713, 0.0181933, NaN, NaN, NaN, 0.03112983, "- N/A -   "
10.9, 326.6278, 0.01830157, NaN, NaN, NaN, 0.0274675, "- N/A -   "
10.96, 328.513, 0.0183904, NaN, NaN, NaN, 0.0323506, "- N/A -   "
11.02, 330.1626, 0.0184765, NaN, NaN, NaN, 0.0384545, "- N/A -   "
11.08, 332.048, 0.01856814, NaN, NaN, NaN, 0.04211683, "- N/A -   "
11.14, 334.1687, 0.0186653, NaN, NaN, NaN, 0.0433376, "- N/A -   "
11.2, 336.172, 0.0187625, NaN, NaN, NaN, 0.0445584, "- N/A -   "
11.26, 338.528, 0.0188708, NaN, NaN, NaN, 0.04211683, "- N/A -   "
11.32, 341.12, 0.0189902, NaN, NaN, NaN, 0.0323506, "- N/A -   "
11.38, 343.477, 0.0190985, NaN, NaN, NaN, 0.0286883, "- N/A -   "
11.44, 345.48, 0.0191985, NaN, NaN, NaN, 0.0299091, "- N/A -   "
11.5, 347.365, 0.0192929, NaN, NaN, NaN, 0.0323506, "- N/A -   "
11.56, 349.3683, 0.0193817, NaN, NaN, NaN, 0.03601294, "- N/A -   "
11.62, 351.371, 0.0194761, NaN, NaN, NaN, 0.0384545, "- N/A -   "
11.68, 353.61, 0.0195761, NaN, NaN, NaN, 0.0384545, "- N/A -   "
11.74, 355.4952, 0.0196705, NaN, NaN, NaN, 0.04089605, "- N/A -   "
11.8, 357.498, 0.0197677, NaN, NaN, NaN, 0.0433376, "- N/A -   "
11.86, 359.6191, 0.0198649, NaN, NaN, NaN, 0.0433376, "- N/A -   "
11.92, 362.093, 0.01997873, NaN, NaN, NaN, 0.0372337, "- N/A -   "
11.98, 364.686, 0.0200926, NaN, NaN, NaN, 0.0323506, "- N/A -   "
12.04, 366.924, 0.02020087, NaN, NaN, NaN, 0.0274675, "- N/A -   "
12.1, 368.9274, 0.0202925, NaN, NaN, NaN, 0.03112983, "- N/A -   "
12.16, 370.813, 0.0203814, NaN, NaN, NaN, 0.03601294, "- N/A -   "
12.22, 373.169, 0.0204897, NaN, NaN, NaN, 0.0335714, "- N/A -   "
12.28, 375.4078, 0.0205896, NaN, NaN, NaN, 0.0323506, "- N/A -   "
12.34, 377.4109, 0.0206812, NaN, NaN, NaN, 0.03601294, "- N/A -   "
12.4, 379.414, 0.02077288, NaN, NaN, NaN, 0.04089605, "- N/A -   "
12.46, 381.417, 0.0208701, NaN, NaN, NaN, 0.04211683, "- N/A -   "
12.52, 383.656, 0.02097003, NaN, NaN, NaN, 0.04089605, "- N/A -   "
12.58, 386.012, 0.0210755, NaN, NaN, NaN, 0.0384545, "- N/A -   "
12.64, 388.487, 0.0211866, NaN, NaN, NaN, 0.0347922, "- N/A -   "
12.7, 390.843, 0.0212894, NaN, NaN, NaN, 0.0335714, "- N/A -   "
12.76, 392.8461, 0.0213865, NaN, NaN, NaN, 0.0347922, "- N/A -   "
12.82, 395.085, 0.0214837, NaN, NaN, NaN, 0.03601294, "- N/A -   "
12.88, 397.0878, 0.0215837, NaN, NaN, NaN, 0.03601294, "- N/A -   "
12.94, 399.444, 0.0216809, NaN, NaN, NaN, 0.0372337, "- N/A -   "
13, 401.447, 0.0217808, NaN, NaN, NaN, 0.0372337, "- N/A -   "
13.06, 403.804, 0.0218864, NaN, NaN, NaN, 0.0347922, "- N/A -   "
13.12, 406.0426, 0.0219808, NaN, NaN, NaN, 0.0384545, "- N/A -   "
13.18, 408.163, 0.0220752, NaN, NaN, NaN, 0.0396753, "- N/A -   "
13.24, 410.284, 0.0221724, NaN, NaN, NaN, 0.04089605, "- N/A -   "
13.3, 412.4052, 0.0222668, NaN, NaN, NaN, 0.0433376, "- N/A -   "
13.36, 415.1152, 0.0223806, NaN, NaN, NaN, 0.0372337, "- N/A -   "
13.42, 417.7074, 0.0224945, NaN, NaN, NaN, 0.03112983, "- N/A -   "
13.48, 419.71, 0.0225889, NaN, NaN, NaN, 0.0347922, "- N/A -   "
13.54, 421.831, 0.0226861, NaN, NaN, NaN, 0.0347922, "- N/A -   "
13.6, 424.423, 0.02279991, NaN, NaN, NaN, 0.0299091, "- N/A -   "
13.66, 426.78, 0.0228999, NaN, NaN, NaN, 0.0286883, "- N/A -   "
13.72, 428.783, 0.0229915, NaN, NaN, NaN, 0.0335714, "- N/A -   "
13.78, 430.4326, 0.02307203, NaN, NaN, NaN, 0.04089605, "- N/A -   "
13.84, 432.436, 0.0231609, NaN, NaN, NaN, 0.04577916, "- N/A -   "
13.9, 434.557, 0.0232553, NaN, NaN, NaN, 0.0494415, "- N/A -   "
13.96, 437.031, 0.0233691, NaN, NaN, NaN, 0.04211683, "- N/A -   "
14.02, 439.623, 0.0234802, NaN, NaN, NaN, 0.0384545, "- N/A -   "
14.08, 442.215, 0.0235885, NaN, NaN, NaN, 0.0335714, "- N/A -   "
14.14, 444.3361, 0.0236912, NaN, NaN, NaN, 0.0323506, "- N/A -   "
14.2, 446.928, 0.0238023, NaN, NaN, NaN, 0.0286883, "- N/A -   "
14.26, 449.167, 0.0238967, NaN, NaN, NaN, 0.03112983, "- N/A -   "
14.32, 451.17, 0.0239884, NaN, NaN, NaN, 0.0335714, "- N/A -   "
14.38, 453.173, 0.0240772, NaN, NaN, NaN, 0.0384545, "- N/A -   "
14.44, 455.1761, 0.02416607, NaN, NaN, NaN, 0.0433376, "- N/A -   "
14.5, 457.297, 0.0242605, NaN, NaN, NaN, 0.04577916, "- N/A -   "
14.56, 459.653, 0.024366, NaN, NaN, NaN, 0.0445584, "- N/A -   "
14.62, 462.246, 0.0244715, NaN, NaN, NaN, 0.04089605, "- N/A -   "
14.68, 464.602, 0.02457703, NaN, NaN, NaN, 0.0396753, "- N/A -   "
14.74, 467.194, 0.0246881, NaN, NaN, NaN, 0.0335714, "- N/A -   "
14.8, 469.787, 0.02479917, NaN, NaN, NaN, 0.0286883, "- N/A -   "
14.86, 472.0252, 0.0248991, NaN, NaN, NaN, 0.0286883, "- N/A -   "
14.92, 474.028, 0.0249908, NaN, NaN, NaN, 0.0323506, "- N/A -   "
14.98, 476.3848, 0.025088, NaN, NaN, NaN, 0.0335714, "- N/A -   "
15.04, 478.6235, 0.02518514, NaN, NaN, NaN, 0.0347922, "- N/A -   "
15.1, 480.744, 0.0252823, NaN, NaN, NaN, 0.03601294, "- N/A -   "
15.16, 482.8652, 0.0253712, NaN, NaN, NaN, 0.04089605, "- N/A -   "
15.22, 484.868, 0.0254628, NaN, NaN, NaN, 0.0445584, "- N/A -   "
15.28, 487.107, 0.02556, NaN, NaN, NaN, 0.04577916, "- N/A -   "
15.34, 489.935, 0.0256766, NaN, NaN, NaN, 0.0396753, "- N/A -   "
15.4, 492.6448, 0.0257877, NaN, NaN, NaN, 0.0335714, "- N/A -   "
15.46, 495.119, 0.025896, NaN, NaN, NaN, 0.0299091, "- N/A -   "
15.52, 497.122, 0.0259848, NaN, NaN, NaN, 0.0347922, "- N/A -   "
15.58, 499.361, 0.02608203, NaN, NaN, NaN, 0.03601294, "- N/A -   "
15.64, 501.8352, 0.0261903, NaN, NaN, NaN, 0.0323506, "- N/A -   "
15.7, 504.31, 0.0262931, NaN, NaN, NaN, 0.03112983, "- N/A -   "
15.76, 506.313, 0.0263847, NaN, NaN, NaN, 0.0347922, "- N/A -   "
15.82, 508.433, 0.0264708, NaN, NaN, NaN, 0.04211683, "- N/A -   "
15.88, 510.79, 0.02657074, NaN, NaN, NaN, 0.04089605, "- N/A -   "
15.94, 513.264, 0.0266763, NaN, NaN, NaN, 0.0384545, "- N/A -   "
16, 515.8656, 0.0267818, NaN, NaN, NaN, 0.0372337, "- N/A -   "
16.06, 518.231, 0.0268817, NaN, NaN, NaN, 0.0372337, "- N/A -   "
16.12, 520.242, 0.0269761, NaN, NaN, NaN, 0.0396753, "- N/A -   "
16.18, 522.8442, 0.0270844, NaN, NaN, NaN, 0.0347922, "- N/A -   "
16.24, 525.446, 0.02719273, NaN, NaN, NaN, 0.03112983, "- N/A -   "
16.3, 527.575, 0.02728714, NaN, NaN, NaN, 0.0335714, "- N/A -   "
16.36, 530.1776, 0.0273927, NaN, NaN, NaN, 0.0323506, "- N/A -   "
16.42, 532.4249, 0.02749262, NaN, NaN, NaN, 0.03112983, "- N/A -   "
16.48, 534.9088, 0.0275926, NaN, NaN, NaN, 0.0323506, "- N/A -   "
16.54, 536.9196, 0.02768144, NaN, NaN, NaN, 0.03601294, "- N/A -   "
16.6, 539.0487, 0.0277703, NaN, NaN, NaN, 0.04211683, "- N/A -   "
16.66, 541.178, 0.0278619, NaN, NaN, NaN, 0.0445584, "- N/A -   "
16.72, 543.6616, 0.0279647, NaN, NaN, NaN, 0.0433376, "- N/A -   "
16.78, 546.619, 0.0280841, NaN, NaN, NaN, 0.03601294, "- N/A -   "
16.84, 549.3391, 0.02819236, NaN, NaN, NaN, 0.03112983, "- N/A -   "
16.9, 551.5864, 0.0282895, NaN, NaN, NaN, 0.0323506, "- N/A -   "
16.96, 553.952, 0.02838951, NaN, NaN, NaN, 0.0323506, "- N/A -   "
17.02, 556.6725, 0.0284978, NaN, NaN, NaN, 0.0286883, "- N/A -   "
17.08, 559.038, 0.0285978, NaN, NaN, NaN, 0.0286883, "- N/A -   "
17.14, 561.0489, 0.0286838, NaN, NaN, NaN, 0.0347922, "- N/A -   "
17.2, 562.9414, 0.0287699, NaN, NaN, NaN, 0.04211683, "- N/A -   "
17.26, 565.1887, 0.0288616, NaN, NaN, NaN, 0.04577916, "- N/A -   "
17.32, 567.4361, 0.0289587, NaN, NaN, NaN, 0.0482207, "- N/A -   "
17.38, 570.275, 0.0290726, NaN, NaN, NaN, 0.04211683, "- N/A -   "
17.44, 572.9953, 0.0291809, NaN, NaN, NaN, 0.0372337, "- N/A -   "
17.5, 575.4792, 0.0292836, NaN, NaN, NaN, 0.03601294, "- N/A -   "
17.56, 578.2, 0.0293947, NaN, NaN, NaN, 0.03112983, "- N/A -   "
17.62, 580.8018, 0.0295058, NaN, NaN, NaN, 0.0262467, "- N/A -   "
17.68, 583.049, 0.0296002, NaN, NaN, NaN, 0.0286883, "- N/A -   "
17.74, 585.2965, 0.02968903, NaN, NaN, NaN, 0.0335714, "- N/A -   "
17.8, 587.307, 0.0297779, NaN, NaN, NaN, 0.0384545, "- N/A -   "
17.86, 589.555, 0.0298695, NaN, NaN, NaN, 0.04211683, "- N/A -   "
17.92, 591.802, 0.0299667, NaN, NaN, NaN, 0.0445584, "- N/A -   "
17.98, 594.049, 0.0300611, NaN, NaN, NaN, 0.04577916, "- N/A -   "
18.04, 596.6514, 0.0301639, NaN, NaN, NaN, 0.0445584, "- N/A -   "
18.1, 599.3719, 0.0302721, NaN, NaN, NaN, 0.04089605, "- N/A -   "
18.16, 602.211, 0.0303888, NaN, NaN, NaN, 0.0335714, "- N/A -   "
18.22, 604.9311, 0.0304971, NaN, NaN, NaN, 0.0299091, "- N/A -   "
18.28, 607.415, 0.0305998, NaN, NaN, NaN, 0.0286883, "- N/A -   "
18.34, 609.544, 0.0306914, NaN, NaN, NaN, 0.0335714, "- N/A -   "
18.4, 611.91, 0.0307858, NaN, NaN, NaN, 0.03601294, "- N/A -   "
18.46, 614.157, 0.0308803, NaN, NaN, NaN, 0.0384545, "- N/A -   "
18.52, 616.5226, 0.0309774, NaN, NaN, NaN, 0.0384545, "- N/A -   "
18.58, 618.7699, 0.0310663, NaN, NaN, NaN, 0.0433376, "- N/A -   "
18.64, 621.0173, 0.0311607, NaN, NaN, NaN, 0.04577916, "- N/A -   "
18.7, 623.619, 0.0312662, NaN, NaN, NaN, 0.0445584, "- N/A -   "
18.76, 626.695, 0.0313856, NaN, NaN, NaN, 0.0347922, "- N/A -   "
18.82, 629.4152, 0.0314967, NaN, NaN, NaN, 0.0299091, "- N/A -   "
18.88, 631.663, 0.0315911, NaN, NaN, NaN, 0.0323506, "- N/A -   "
18.94, 633.9099, 0.0316827, NaN, NaN, NaN, 0.03601294, "- N/A -   "
19, 636.5121, 0.0317855, NaN, NaN, NaN, 0.03601294, "- N/A -   "
19.06, 639.3508, 0.03189377, NaN, NaN, NaN, 0.0323506, "- N/A -   "
19.12, 641.3616, 0.03198818, NaN, NaN, NaN, 0.0347922, "- N/A -   "
19.18, 643.727, 0.0320798, NaN, NaN, NaN, 0.0384545, "- N/A -   "
19.24, 645.856, 0.03216867, NaN, NaN, NaN, 0.04211683, "- N/A -   "
19.3, 648.458, 0.0322742, NaN, NaN, NaN, 0.04089605, "- N/A -   "
19.36, 651.061, 0.0323769, NaN, NaN, NaN, 0.0396753, "- N/A -   "
19.42, 653.663, 0.03247689, NaN, NaN, NaN, 0.0384545, "- N/A -   "
19.48, 656.1467, 0.0325796, NaN, NaN, NaN, 0.0372337, "- N/A -   "
19.54, 658.7489, 0.03268237, NaN, NaN, NaN, 0.0372337, "- N/A -   "
19.6, 661.2328, 0.0327851, NaN, NaN, NaN, 0.03601294, "- N/A -   "
19.66, 663.953, 0.0328906, NaN, NaN, NaN, 0.0335714, "- N/A -   "
19.72, 666.319, 0.032985, NaN, NaN, NaN, 0.0347922, "- N/A -   "
19.78, 668.684, 0.033085, NaN, NaN, NaN, 0.03601294, "- N/A -   "
19.84, 671.2866, 0.0331877, NaN, NaN, NaN, 0.0335714, "- N/A -   "
19.9, 673.534, 0.0332821, NaN, NaN, NaN, 0.0372337, "- N/A -   "
19.96, 675.8996, 0.03337378, NaN, NaN, NaN, 0.0396753, "- N/A -   "
20.02, 678.3835, 0.033471, NaN, NaN, NaN, 0.04211683, "- N/A -   "
20.08, 680.7491, 0.03356815, NaN, NaN, NaN, 0.04211683, "- N/A -   "
20.14, 683.47, 0.03367367, NaN, NaN, NaN, 0.0396753, "- N/A -   "
20.2, 686.545, 0.03379307, NaN, NaN, NaN, 0.03112983, "- N/A -   "
20.26, 688.7922, 0.03388748, NaN, NaN, NaN, 0.0335714, "- N/A -   "
20.32, 691.158, 0.0339874, NaN, NaN, NaN, 0.0347922, "- N/A -   "
20.38, 693.76, 0.03409296, NaN, NaN, NaN, 0.03112983, "- N/A -   "
20.44, 696.717, 0.0342013, NaN, NaN, NaN, 0.0274675, "- N/A -   "
20.5, 698.964, 0.0342929, NaN, NaN, NaN, 0.03112983, "- N/A -   "
20.56, 701.2117, 0.0343873, NaN, NaN, NaN, 0.0335714, "- N/A -   "
20.62, 703.2225, 0.0344734, NaN, NaN, NaN, 0.0396753, "- N/A -   "
20.68, 705.47, 0.03456223, NaN, NaN, NaN, 0.0445584, "- N/A -   "
20.74, 707.835, 0.03465664, NaN, NaN, NaN, 0.04699994, "- N/A -   "
20.8, 710.5559, 0.03476771, NaN, NaN, NaN, 0.04211683, "- N/A -   "
20.86, 713.395, 0.0348816, NaN, NaN, NaN, 0.0372337, "- N/A -   "
20.92, 715.9968, 0.03498985, NaN, NaN, NaN, 0.0335714, "- N/A -   "
20.98, 718.8356, 0.0350981, NaN, NaN, NaN, 0.0299091, "- N/A -   "
21.04, 721.438, 0.0351981, NaN, NaN, NaN, 0.0286883, "- N/A -   "
21.1, 723.922, 0.0352953, NaN, NaN, NaN, 0.03112983, "- N/A -   "
21.16, 726.169, 0.0353897, NaN, NaN, NaN, 0.0323506, "- N/A -   "
21.22, 728.416, 0.03547856, NaN, NaN, NaN, 0.0372337, "- N/A -   "
21.28, 730.427, 0.03556464, NaN, NaN, NaN, 0.0445584, "- N/A -   "
21.34, 732.911, 0.0356646, NaN, NaN, NaN, 0.0433376, "- N/A -   "
21.4, 735.5131, 0.0357646, NaN, NaN, NaN, 0.0433376, "- N/A -   "
21.46, 737.997, 0.03587008, NaN, NaN, NaN, 0.04211683, "- N/A -   "
21.52, 740.954, 0.0359784, NaN, NaN, NaN, 0.0372337, "- N/A -   "
21.58, 744.148, 0.0361033, NaN, NaN, NaN, 0.0274675, "- N/A -   "
21.64, 746.632, 0.0361977, NaN, NaN, NaN, 0.0286883, "- N/A -   "
21.7, 748.997, 0.0362949, NaN, NaN, NaN, 0.03112983, "- N/A -   "
21.76, 751.363, 0.0363893, NaN, NaN, NaN, 0.0335714, "- N/A -   "
21.82, 753.965, 0.0364893, NaN, NaN, NaN, 0.0335714, "- N/A -   "
21.88, 756.2123, 0.0365837, NaN, NaN, NaN, 0.03601294, "- N/A -   "
21.94, 758.5779, 0.0366753, NaN, NaN, NaN, 0.0396753, "- N/A -   "
22, 760.707, 0.0367642, NaN, NaN, NaN, 0.0445584, "- N/A -   "
22.06, 763.309, 0.0368614, NaN, NaN, NaN, 0.04577916, "- N/A -   "
22.12, 765.793, 0.03696412, NaN, NaN, NaN, 0.0445584, "- N/A -   "
22.18, 768.987, 0.03708352, NaN, NaN, NaN, 0.0372337, "- N/A -   "
22.24, 771.8254, 0.03719459, NaN, NaN, NaN, 0.0323506, "- N/A -   "
22.3, 774.309, 0.0372918, NaN, NaN, NaN, 0.0323506, "- N/A -   "
22.36, 776.675, 0.0373862, NaN, NaN, NaN, 0.0347922, "- N/A -   "
22.42, 779.159, 0.0374834, NaN, NaN, NaN, 0.0372337, "- N/A -   "
22.48, 781.761, 0.03758611, NaN, NaN, NaN, 0.0347922, "- N/A -   "
22.54, 784.2449, 0.0376833, NaN, NaN, NaN, 0.03601294, "- N/A -   "
22.6, 786.6105, 0.03777493, NaN, NaN, NaN, 0.0396753, "- N/A -   "
22.66, 788.858, 0.03786934, NaN, NaN, NaN, 0.0433376, "- N/A -   "
22.72, 791.46, 0.0379693, NaN, NaN, NaN, 0.0433376, "- N/A -   "
22.78, 794.0622, 0.038072, NaN, NaN, NaN, 0.04211683, "- N/A -   "
22.84, 796.783, 0.0381803, NaN, NaN, NaN, 0.0372337, "- N/A -   "
22.9, 799.5031, 0.0382803, NaN, NaN, NaN, 0.0372337, "- N/A -   "
22.96, 802.1053, 0.0383886, NaN, NaN, NaN, 0.0335714, "- N/A -   "
23.02, 804.707, 0.0384913, NaN, NaN, NaN, 0.0323506, "- N/A -   "
23.08, 807.31, 0.0385913, NaN, NaN, NaN, 0.0323506, "- N/A -   "
23.14, 809.675, 0.03869126, NaN, NaN, NaN, 0.0323506, "- N/A -   "
23.2, 812.277, 0.0387912, NaN, NaN, NaN, 0.0323506, "- N/A -   "
23.26, 814.9979, 0.038894, NaN, NaN, NaN, 0.03112983, "- N/A -   "
23.32, 817.4818, 0.03899115, NaN, NaN, NaN, 0.0323506, "- N/A -   "
23.38, 819.847, 0.03908556, NaN, NaN, NaN, 0.0347922, "- N/A -   "
23.44, 821.858, 0.03917164, NaN, NaN, NaN, 0.04211683, "- N/A -   "
23.5, 824.105, 0.0392605, NaN, NaN, NaN, 0.04577916, "- N/A -   "
23.56, 826.708, 0.03936324, NaN, NaN, NaN, 0.04577916, "- N/A -   "
23.62, 829.6647, 0.0394743, NaN, NaN, NaN, 0.0396753, "- N/A -   "
23.68, 832.267, 0.03957705, NaN, NaN, NaN, 0.0384545, "- N/A -   "
23.74, 834.5142, 0.0396687, NaN, NaN, NaN, 0.04211683, "- N/A -   "
23.8, 837.5895, 0.03977975, NaN, NaN, NaN, 0.0372337, "- N/A -   "
23.86, 840.7831, 0.0399047, NaN, NaN, NaN, 0.0262467, "- N/A -   "
23.92, 843.1487, 0.0399991, NaN, NaN, NaN, 0.0286883, "- N/A -   "
23.98, 845.2778, 0.0400852, NaN, NaN, NaN, 0.0347922, "- N/A -   "
24.04, 847.5251, 0.0401685, NaN, NaN, NaN, 0.04211683, "- N/A -   "
24.1, 849.6542, 0.0402601, NaN, NaN, NaN, 0.04699994, "- N/A -   "
24.16, 852.256, 0.0403573, NaN, NaN, NaN, 0.04699994, "- N/A -   "
24.22, 855.3316, 0.0404767, NaN, NaN, NaN, 0.0396753, "- N/A -   "
24.28, 858.17, 0.0405878, NaN, NaN, NaN, 0.0335714, "- N/A -   "
24.34, 860.8908, 0.04069608, NaN, NaN, NaN, 0.0299091, "- N/A -   "
24.4, 863.611, 0.0407988, NaN, NaN, NaN, 0.0286883, "- N/A -   "
24.46, 866.095, 0.0408988, NaN, NaN, NaN, 0.0299091, "- N/A -   "
24.52, 868.6974, 0.0410015, NaN, NaN, NaN, 0.0274675, "- N/A -   "
24.58, 871.1813, 0.0410959, NaN, NaN, NaN, 0.0299091, "- N/A -   "
24.64, 873.1921, 0.04117923, NaN, NaN, NaN, 0.0372337, "- N/A -   "
24.7, 875.3211, 0.0412653, NaN, NaN, NaN, 0.0433376, "- N/A -   "
24.76, 877.9233, 0.0413653, NaN, NaN, NaN, 0.0445584, "- N/A -   "
24.82, 880.407, 0.04146246, NaN, NaN, NaN, 0.0445584, "- N/A -   "
24.88, 883.2459, 0.04156798, NaN, NaN, NaN, 0.04211683, "- N/A -   "
24.94, 886.085, 0.0416763, NaN, NaN, NaN, 0.0384545, "- N/A -   "
25, 889.16, 0.04179567, NaN, NaN, NaN, 0.0299091, "- N/A -   "
25.06, 891.644, 0.0418956, NaN, NaN, NaN, 0.0299091, "- N/A -   "
25.12, 894.246, 0.04199282, NaN, NaN, NaN, 0.03112983, "- N/A -   "
25.18, 896.7299, 0.0420872, NaN, NaN, NaN, 0.0335714, "- N/A -   "
25.24, 899.0956, 0.04218164, NaN, NaN, NaN, 0.0372337, "- N/A -   "
25.3, 901.698, 0.0422788, NaN, NaN, NaN, 0.0372337, "- N/A -   "
25.36, 904.063, 0.04237601, NaN, NaN, NaN, 0.0396753, "- N/A -   "
25.42, 906.3107, 0.0424649, NaN, NaN, NaN, 0.0445584, "- N/A -   "
25.48, 908.7946, 0.0425565, NaN, NaN, NaN, 0.04699994, "- N/A -   "
25.54, 911.5151, 0.042662, NaN, NaN, NaN, 0.0445584, "- N/A -   "
25.6, 914.7086, 0.0427842, NaN, NaN, NaN, 0.0347922, "- N/A -   "
25.66, 917.9022, 0.04290082, NaN, NaN, NaN, 0.0274675, "- N/A -   "
25.72, 920.2678, 0.042998, NaN, NaN, NaN, 0.0286883, "- N/A -   "
25.78, 922.6334, 0.04308964, NaN, NaN, NaN, 0.0323506, "- N/A -   "
25.84, 924.9991, 0.04318682, NaN, NaN, NaN, 0.0347922, "- N/A -   "
25.9, 928.1926, 0.0432951, NaN, NaN, NaN, 0.0299091, "- N/A -   "
25.96, 930.5582, 0.04339508, NaN, NaN, NaN, 0.0299091, "- N/A -   "
26.02, 932.8056, 0.04347838, NaN, NaN, NaN, 0.0372337, "- N/A -   "
26.08, 934.8164, 0.04356724, NaN, NaN, NaN, 0.0433376, "- N/A -   "
26.14, 937.655, 0.0436728, NaN, NaN, NaN, 0.04089605, "- N/A -   "
26.2, 940.3756, 0.0437727, NaN, NaN, NaN, 0.0396753, "- N/A -   "
26.26, 943.096, 0.04387824, NaN, NaN, NaN, 0.0396753, "- N/A -   "
26.32, 945.698, 0.0439782, NaN, NaN, NaN, 0.0384545, "- N/A -   "
26.38, 948.3004, 0.0440809, NaN, NaN, NaN, 0.0372337, "- N/A -   "
26.44, 951.139, 0.0441837, NaN, NaN, NaN, 0.03601294, "- N/A -   "
26.5, 953.86, 0.04428642, NaN, NaN, NaN, 0.03601294, "- N/A -   "
26.56, 956.3435, 0.0443836, NaN, NaN, NaN, 0.03601294, "- N/A -   "
26.62, 958.9457, 0.0444863, NaN, NaN, NaN, 0.0347922, "- N/A -   "
26.68, 961.666, 0.0445891, NaN, NaN, NaN, 0.0335714, "- N/A -   "
26.74, 964.032, 0.0446807, NaN, NaN, NaN, 0.0384545, "- N/A -   "
26.8, 966.2791, 0.04477235, NaN, NaN, NaN, 0.04089605, "- N/A -   "
26.86, 968.763, 0.04486398, NaN, NaN, NaN, 0.04577916, "- N/A -   "
26.92, 971.3652, 0.04496117, NaN, NaN, NaN, 0.04577916, "- N/A -   "
26.98, 974.4405, 0.045075, NaN, NaN, NaN, 0.0396753, "- N/A -   "
27.04, 977.516, 0.0451889, NaN, NaN, NaN, 0.0335714, "- N/A -   "
27.1, 980.1179, 0.0452888, NaN, NaN, NaN, 0.0335714, "- N/A -   "
27.16, 982.7201, 0.04539434, NaN, NaN, NaN, 0.03112983, "- N/A -   "
27.22, 985.322, 0.0454943, NaN, NaN, NaN, 0.03112983, "- N/A -   "
27.28, 988.161, 0.0456026, NaN, NaN, NaN, 0.0274675, "- N/A -   "
27.34, 990.6449, 0.045697, NaN, NaN, NaN, 0.0299091, "- N/A -   "
27.4, 992.8923, 0.0457831, NaN, NaN, NaN, 0.03601294, "- N/A -   "
27.46, 995.021, 0.0458664, NaN, NaN, NaN, 0.0445584, "- N/A -   "
27.52, 997.2687, 0.04595802, NaN, NaN, NaN, 0.04699994, "- N/A -   "
27.58, 1000.11, 0.0460635, NaN, NaN, NaN, 0.0445584, "- N/A -   "
27.64, 1003.06, 0.04617461, NaN, NaN, NaN, 0.0396753, "- N/A -   "
27.7, 1005.9, 0.0462829, NaN, NaN, NaN, 0.0372337, "- N/A -   "
27.76, 1008.51, 0.04638564, NaN, NaN, NaN, 0.0347922, "- N/A -   "
27.82, 1011.46, 0.0464939, NaN, NaN, NaN, 0.03112983, "- N/A -   "
27.88, 1014.19, 0.0465967, NaN, NaN, NaN, 0.0299091, "- N/A -   "
27.94, 1016.7, 0.04669386, NaN, NaN, NaN, 0.03112983, "- N/A -   "
28, 1019.2, 0.04679105, NaN, NaN, NaN, 0.0323506, "- N/A -   "
28.06, 1021.35, 0.0468771, NaN, NaN, NaN, 0.0396753, "- N/A -   "
28.12, 1023.61, 0.0469632, NaN, NaN, NaN, 0.0445584, "- N/A -   "
28.18, 1026.36, 0.0470659, NaN, NaN, NaN, 0.0433376, "- N/A -   "
28.24, 1028.98, 0.04716591, NaN, NaN, NaN, 0.0433376, "- N/A -   "
28.3, 1031.72, 0.0472714, NaN, NaN, NaN, 0.04211683, "- N/A -   "
28.36, 1034.58, 0.04737972, NaN, NaN, NaN, 0.0372337, "- N/A -   "
28.42, 1037.57, 0.0474936, NaN, NaN, NaN, 0.03112983, "- N/A -   "
28.48, 1040.19, 0.0475935, NaN, NaN, NaN, 0.03112983, "- N/A -   "
28.54, 1042.813, 0.04769349, NaN, NaN, NaN, 0.03112983, "- N/A -   "
28.6, 1045.56, 0.0477907, NaN, NaN, NaN, 0.0323506, "- N/A -   "
28.66, 1048.06, 0.0478879, NaN, NaN, NaN, 0.0335714, "- N/A -   "
28.72, 1050.92, 0.04799338, NaN, NaN, NaN, 0.03112983, "- N/A -   "
28.78, 1053.19, 0.0480822, NaN, NaN, NaN, 0.03601294, "- N/A -   "
28.84, 1055.45, 0.0481683, NaN, NaN, NaN, 0.04211683, "- N/A -   "
28.9, 1057.958, 0.0482655, NaN, NaN, NaN, 0.0433376, "- N/A -   "
28.96, 1061.18, 0.0483821, NaN, NaN, NaN, 0.03601294, "- N/A -   "
29.02, 1064.04, 0.0484849, NaN, NaN, NaN, 0.0347922, "- N/A -   "
29.08, 1066.31, 0.0485765, NaN, NaN, NaN, 0.0384545, "- N/A -   "
29.14, 1068.69, 0.04867091, NaN, NaN, NaN, 0.04089605, "- N/A -   "
29.2, 1071.31, 0.0487681, NaN, NaN, NaN, 0.04211683, "- N/A -   "
29.26, 1074.057, 0.04887361, NaN, NaN, NaN, 0.0396753, "- N/A -   "
29.32, 1076.92, 0.04897913, NaN, NaN, NaN, 0.0372337, "- N/A -   "
29.38, 1079.9, 0.0490902, NaN, NaN, NaN, 0.0323506, "- N/A -   "
29.44, 1082.52, 0.0491874, NaN, NaN, NaN, 0.0335714, "- N/A -   "
29.5, 1084.67, 0.04927624, NaN, NaN, NaN, 0.0384545, "- N/A -   "
29.56, 1087.65, 0.04938176, NaN, NaN, NaN, 0.0372337, "- N/A -   "
29.62, 1090.156, 0.04947617, NaN, NaN, NaN, 0.0396753, "- N/A -   "
29.68, 1092.9, 0.04957891, NaN, NaN, NaN, 0.0384545, "- N/A -   "
29.74, 1095.52, 0.04967887, NaN, NaN, NaN, 0.0372337, "- N/A -   "
29.8, 1098.15, 0.0497788, NaN, NaN, NaN, 0.0372337, "- N/A -   "
29.86, 1101.13, 0.04989268, NaN, NaN, NaN, 0.0323506, "- N/A -   "
29.92, 1103.99, 0.04999542, NaN, NaN, NaN, 0.03112983, "- N/A -   "
29.98, 1106.61, 0.0500926, NaN, NaN, NaN, 0.03112983, "- N/A -   "
30.04, 1109.12, 0.05018979, NaN, NaN, NaN, 0.0323506, "- N/A -   "
30.1, 1111.74, 0.0502925, NaN, NaN, NaN, 0.03112983, "- N/A -   "
30.16, 1114.13, 0.05038139, NaN, NaN, NaN, 0.03601294, "- N/A -   "
30.22, 1116.51, 0.05047302, NaN, NaN, NaN, 0.04089605, "- N/A -   "
30.28, 1118.9, 0.05056465, NaN, NaN, NaN, 0.0433376, "- N/A -   "
30.34, 1121.76, 0.05066462, NaN, NaN, NaN, 0.0433376, "- N/A -   "
30.4, 1124.74, 0.0507757, NaN, NaN, NaN, 0.0396753, "- N/A -   "
30.46, 1127.6, 0.0508868, NaN, NaN, NaN, 0.0347922, "- N/A -   "
30.52, 1130.22, 0.0509839, NaN, NaN, NaN, 0.03601294, "- N/A -   "
30.58, 1132.85, 0.05108113, NaN, NaN, NaN, 0.03601294, "- N/A -   "
30.64, 1135.71, 0.0511866, NaN, NaN, NaN, 0.0335714, "- N/A -   "
30.7, 1138.57, 0.0512922, NaN, NaN, NaN, 0.03112983, "- N/A -   "
30.76, 1141.08, 0.0513893, NaN, NaN, NaN, 0.0323506, "- N/A -   "
30.82, 1143.46, 0.051481, NaN, NaN, NaN, 0.0384545, "- N/A -   "
30.88, 1145.61, 0.0515643, NaN, NaN, NaN, 0.0445584, "- N/A -   "
30.94, 1148.11, 0.0516587, NaN, NaN, NaN, 0.0482207, "- N/A -   "
31, 1151.09, 0.0517642, NaN, NaN, NaN, 0.0445584, "- N/A -   "
31.06, 1154.19, 0.0518808, NaN, NaN, NaN, 0.0384545, "- N/A -   "
31.12, 1157.06, 0.0519863, NaN, NaN, NaN, 0.0347922, "- N/A -   "
31.18, 1159.8, 0.0520919, NaN, NaN, NaN, 0.0335714, "- N/A -   "
31.24, 1162.66, 0.0522002, NaN, NaN, NaN, 0.0286883, "- N/A -   "
31.3, 1165.52, 0.0523001, NaN, NaN, NaN, 0.0286883, "- N/A -   "
31.36, 1168.03, 0.0524001, NaN, NaN, NaN, 0.0286883, "- N/A -   "
31.42, 1170.17, 0.0524862, NaN, NaN, NaN, 0.0347922, "- N/A -   "
31.48, 1172.56, 0.052575, NaN, NaN, NaN, 0.0396753, "- N/A -   "
31.54, 1175.06, 0.0526667, NaN, NaN, NaN, 0.0433376, "- N/A -   "
31.6, 1177.81, 0.0527666, NaN, NaN, NaN, 0.0445584, "- N/A -   "
31.66, 1180.31, 0.052861, NaN, NaN, NaN, 0.04577916, "- N/A -   "
31.72, 1183.29, 0.0529665, NaN, NaN, NaN, 0.0433376, "- N/A -   "
31.78, 1186.27, 0.05308039, NaN, NaN, NaN, 0.0384545, "- N/A -   "
31.84, 1189.49, 0.05319701, NaN, NaN, NaN, 0.0299091, "- N/A -   "
31.9, 1192.12, 0.05329698, NaN, NaN, NaN, 0.0299091, "- N/A -   "
31.96, 1194.62, 0.0533886, NaN, NaN, NaN, 0.0347922, "- N/A -   "
32.02, 1197.125, 0.05348024, NaN, NaN, NaN, 0.0372337, "- N/A -   "
32.08, 1199.75, 0.05357743, NaN, NaN, NaN, 0.0384545, "- N/A -   "
32.14, 1202.37, 0.05368017, NaN, NaN, NaN, 0.0384545, "- N/A -   "
32.2, 1205.11, 0.05377458, NaN, NaN, NaN, 0.0396753, "- N/A -   "
32.26, 1207.5, 0.0538662, NaN, NaN, NaN, 0.0433376, "- N/A -   "
32.32, 1209.885, 0.05396062, NaN, NaN, NaN, 0.04577916, "- N/A -   "
32.38, 1213.224, 0.0540772, NaN, NaN, NaN, 0.0384545, "- N/A -   "
32.44, 1216.21, 0.05419109, NaN, NaN, NaN, 0.0335714, "- N/A -   "
32.5, 1219.19, 0.0542966, NaN, NaN, NaN, 0.0299091, "- N/A -   "
32.56, 1221.57, 0.05439102, NaN, NaN, NaN, 0.0323506, "- N/A -   "
32.62, 1224.2, 0.05448543, NaN, NaN, NaN, 0.0347922, "- N/A -   "
32.68, 1226.938, 0.0545909, NaN, NaN, NaN, 0.0323506, "- N/A -   "
32.74, 1229.92, 0.05469924, NaN, NaN, NaN, 0.0299091, "- N/A -   "
32.8, 1232.185, 0.05478532, NaN, NaN, NaN, 0.0347922, "- N/A -   "
32.86, 1234.45, 0.0548742, NaN, NaN, NaN, 0.0396753, "- N/A -   "
32.92, 1237.07, 0.0549714, NaN, NaN, NaN, 0.04211683, "- N/A -   "
32.98, 1240.06, 0.0550769, NaN, NaN, NaN, 0.0384545, "- N/A -   "
33.04, 1242.68, 0.05517406, NaN, NaN, NaN, 0.0396753, "- N/A -   "
33.1, 1245.54, 0.05527958, NaN, NaN, NaN, 0.0372337, "- N/A -   "
33.16, 1248.16, 0.05537954, NaN, NaN, NaN, 0.0372337, "- N/A -   "
33.22, 1250.79, 0.05547673, NaN, NaN, NaN, 0.0384545, "- N/A -   "
33.28, 1253.65, 0.055585, NaN, NaN, NaN, 0.03601294, "- N/A -   "
33.34, 1256.39, 0.05568776, NaN, NaN, NaN, 0.0335714, "- N/A -   "
33.4, 1258.9, 0.0557822, NaN, NaN, NaN, 0.03601294, "- N/A -   "
33.46, 1261.64, 0.0558821, NaN, NaN, NaN, 0.0372337, "- N/A -   "
33.52, 1264.38, 0.05598487, NaN, NaN, NaN, 0.0347922, "- N/A -   "
33.58, 1266.89, 0.0560793, NaN, NaN, NaN, 0.0372337, "- N/A -   "
33.64, 1269.27, 0.05616814, NaN, NaN, NaN, 0.04211683, "- N/A -   "
33.7, 1271.66, 0.05626255, NaN, NaN, NaN, 0.0445584, "- N/A -   "
33.76, 1274.88, 0.0563708, NaN, NaN, NaN, 0.04211683, "- N/A -   "
33.82, 1277.86, 0.0564791, NaN, NaN, NaN, 0.0372337, "- N/A -   "
33.88, 1280.72, 0.0565902, NaN, NaN, NaN, 0.0323506, "- N/A -   "
33.94, 1283.34, 0.05669017, NaN, NaN, NaN, 0.0323506, "- N/A -   "
34, 1286.21, 0.0567929, NaN, NaN, NaN, 0.03112983, "- N/A -   "
34.06, 1289.19, 0.05690398, NaN, NaN, NaN, 0.0262467, "- N/A -   "
34.12, 1291.811, 0.05700394, NaN, NaN, NaN, 0.0262467, "- N/A -   "
34.18, 1294.08, 0.05709, NaN, NaN, NaN, 0.0323506, "- N/A -   "
34.24, 1296.34, 0.0571761, NaN, NaN, NaN, 0.0396753, "- N/A -   "
34.3, 1298.73, 0.05726218, NaN, NaN, NaN, 0.04577916, "- N/A -   "
34.36, 1301.35, 0.0573594, NaN, NaN, NaN, 0.04699994, "- N/A -   "
34.42, 1304.21, 0.0574649, NaN, NaN, NaN, 0.0433376, "- N/A -   "
34.48, 1307.19, 0.057576, NaN, NaN, NaN, 0.0396753, "- N/A -   "
34.54, 1310.18, 0.057687, NaN, NaN, NaN, 0.0335714, "- N/A -   "
34.6, 1312.8, 0.0577842, NaN, NaN, NaN, 0.0347922, "- N/A -   "
34.66, 1315.9, 0.0579008, NaN, NaN, NaN, 0.0286883, "- N/A -   "
34.72, 1318.64, 0.0580008, NaN, NaN, NaN, 0.0286883, "- N/A -   "
34.78, 1321.15, 0.05809798, NaN, NaN, NaN, 0.0286883, "- N/A -   "
34.84, 1323.53, 0.0581868, NaN, NaN, NaN, 0.0335714, "- N/A -   "
34.9, 1325.56, 0.0582674, NaN, NaN, NaN, 0.04211683, "- N/A -   "
34.96, 1328.06, 0.0583618, NaN, NaN, NaN, 0.0445584, "- N/A -   "
35.02, 1330.69, 0.0584617, NaN, NaN, NaN, 0.0445584, "- N/A -   "
35.08, 1333.55, 0.0585645, NaN, NaN, NaN, 0.0433376, "- N/A -   "
35.14, 1336.53, 0.0586728, NaN, NaN, NaN, 0.04089605, "- N/A -   "
35.2, 1339.75, 0.0587922, NaN, NaN, NaN, 0.03112983, "- N/A -   "
35.26, 1342.73, 0.05890046, NaN, NaN, NaN, 0.0286883, "- N/A -   "
35.32, 1345.47, 0.05900043, NaN, NaN, NaN, 0.0286883, "- N/A -   "
35.38, 1348.098, 0.0591032, NaN, NaN, NaN, 0.0286883, "- N/A -   "
35.44, 1350.6, 0.05919202, NaN, NaN, NaN, 0.0323506, "- N/A -   "
35.5, 1353.226, 0.0592892, NaN, NaN, NaN, 0.0347922, "- N/A -   "
35.56, 1355.73, 0.0593836, NaN, NaN, NaN, 0.03601294, "- N/A -   "
35.62, 1358, 0.0594697, NaN, NaN, NaN, 0.04211683, "- N/A -   "
35.68, 1360.381, 0.0595641, NaN, NaN, NaN, 0.0445584, "- N/A -   "
35.74, 1363.12, 0.0596585, NaN, NaN, NaN, 0.04699994, "- N/A -   "
35.8, 1366.22, 0.0597696, NaN, NaN, NaN, 0.04211683, "- N/A -   "
35.86, 1369.44, 0.05988899, NaN, NaN, NaN, 0.0347922, "- N/A -   "
35.92, 1372.19, 0.0599917, NaN, NaN, NaN, 0.0323506, "- N/A -   "
35.98, 1374.69, 0.06008614, NaN, NaN, NaN, 0.03601294, "- N/A -   "
36.04, 1377.31, 0.0601805, NaN, NaN, NaN, 0.0372337, "- N/A -   "
36.1, 1379.819, 0.0602777, NaN, NaN, NaN, 0.0384545, "- N/A -   "
36.16, 1382.68, 0.06038325, NaN, NaN, NaN, 0.03601294, "- N/A -   "
36.22, 1385.424, 0.06048043, NaN, NaN, NaN, 0.0372337, "- N/A -   "
36.28, 1387.93, 0.0605721, NaN, NaN, NaN, 0.04089605, "- N/A -   "
36.34, 1390.55, 0.06067758, NaN, NaN, NaN, 0.0396753, "- N/A -   "
36.4, 1393.29, 0.06077755, NaN, NaN, NaN, 0.0384545, "- N/A -   "
36.46, 1396.04, 0.06087751, NaN, NaN, NaN, 0.0384545, "- N/A -   "
36.52, 1398.78, 0.06098025, NaN, NaN, NaN, 0.0372337, "- N/A -   "
36.58, 1401.523, 0.06107744, NaN, NaN, NaN, 0.0384545, "- N/A -   "
36.64, 1404.27, 0.061183, NaN, NaN, NaN, 0.03601294, "- N/A -   "
36.7, 1407.247, 0.0612912, NaN, NaN, NaN, 0.0323506, "- N/A -   "
36.76, 1409.87, 0.06139121, NaN, NaN, NaN, 0.0323506, "- N/A -   "
36.82, 1412.61, 0.0614939, NaN, NaN, NaN, 0.0323506, "- N/A -   "
36.88, 1415.36, 0.0615939, NaN, NaN, NaN, 0.03112983, "- N/A -   "
36.94, 1417.98, 0.06168832, NaN, NaN, NaN, 0.0335714, "- N/A -   "
37, 1420.25, 0.0617772, NaN, NaN, NaN, 0.0396753, "- N/A -   "
37.06, 1422.63, 0.06186881, NaN, NaN, NaN, 0.04211683, "- N/A -   "
37.12, 1425.25, 0.0619604, NaN, NaN, NaN, 0.04577916, "- N/A -   "
37.18, 1428, 0.06206596, NaN, NaN, NaN, 0.0445584, "- N/A -   "
37.24, 1431.1, 0.06217703, NaN, NaN, NaN, 0.0384545, "- N/A -   "
37.3, 1433.96, 0.0622853, NaN, NaN, NaN, 0.0347922, "- N/A -   "
37.36, 1436.82, 0.0623825, NaN, NaN, NaN, 0.03601294, "- N/A -   "
37.42, 1439.45, 0.06248525, NaN, NaN, NaN, 0.03601294, "- N/A -   "
37.48, 1442.43, 0.06259354, NaN, NaN, NaN, 0.0323506, "- N/A -   "
37.54, 1445.17, 0.0626963, NaN, NaN, NaN, 0.03112983, "- N/A -   "
37.6, 1447.67, 0.06278792, NaN, NaN, NaN, 0.0335714, "- N/A -   "
37.66, 1449.94, 0.0628768, NaN, NaN, NaN, 0.0384545, "- N/A -   "
37.72, 1452.21, 0.06296285, NaN, NaN, NaN, 0.0445584, "- N/A -   "
37.78, 1454.83, 0.06306004, NaN, NaN, NaN, 0.04699994, "- N/A -   "
37.84, 1457.81, 0.06316833, NaN, NaN, NaN, 0.04211683, "- N/A -   "
37.9, 1460.91, 0.06328218, NaN, NaN, NaN, 0.0372337, "- N/A -   "
37.96, 1464.011, 0.06339047, NaN, NaN, NaN, 0.0323506, "- N/A -   "
38.02, 1466.75, 0.06349321, NaN, NaN, NaN, 0.0323506, "- N/A -   "
38.08, 1469.62, 0.06359873, NaN, NaN, NaN, 0.0286883, "- N/A -   "
38.14, 1472.36, 0.0637015, NaN, NaN, NaN, 0.0274675, "- N/A -   "
38.2, 1474.98, 0.06379865, NaN, NaN, NaN, 0.0286883, "- N/A -   "
38.26, 1477.25, 0.0638847, NaN, NaN, NaN, 0.0347922, "- N/A -   "
38.32, 1479.51, 0.06396803, NaN, NaN, NaN, 0.04211683, "- N/A -   "
38.38, 1482.02, 0.06405967, NaN, NaN, NaN, 0.04577916, "- N/A -   "
38.44, 1484.88, 0.06416518, NaN, NaN, NaN, 0.0433376, "- N/A -   "
38.5, 1487.62, 0.0642679, NaN, NaN, NaN, 0.04211683, "- N/A -   "
38.56, 1490.37, 0.06436789, NaN, NaN, NaN, 0.04211683, "- N/A -   "
38.62, 1493.59, 0.0644817, NaN, NaN, NaN, 0.0372337, "- N/A -   "
38.68, 1496.69, 0.06459836, NaN, NaN, NaN, 0.0299091, "- N/A -   "
38.74, 1499.31, 0.0646955, NaN, NaN, NaN, 0.0299091, "- N/A -   "
38.8, 1501.81, 0.06478718, NaN, NaN, NaN, 0.0335714, "- N/A -   "
38.86, 1504.44, 0.0648816, NaN, NaN, NaN, 0.03601294, "- N/A -   "
38.92, 1507.06, 0.06498155, NaN, NaN, NaN, 0.0372337, "- N/A -   "
38.978, 1509.8, 0.06507596, NaN, NaN, NaN, 0.0384545, "- N/A -   "