File: 2_Tensile_Data/Hamel_ForceTest_Bolt6_Test2.csv
Time, Load (lb), Position (in), AxialStrain (in), TransverseStrain (in), Auxiliary (), Control Out (V), Stress (psi)
0.0, 1.06153, 0.0, NaN, NaN, NaN, 0.04699994, "- N/A -   "
0.00999999, 1.29742, 1.38838e-05, NaN, NaN, NaN, 0.0482207, "- N/A -   "
0.02, 1.29742, 3.054427E-5, NaN, NaN, NaN, 0.0482207, "- N/A -   "
0.03, 1.53332, 4.442803E-5, NaN, NaN, NaN, 0.0494415, "- N/A -   "
0.04, 1.53332, 6.108854E-5, NaN, NaN, NaN, 0.0494415, "- N/A -   "
0.05, 1.65126, 8.05258E-5, NaN, NaN, NaN, 0.0494415, "- N/A -   "
0.06, 1.76921, 9.718631E-5, NaN, NaN, NaN, 0.0494415, "- N/A -   "
0.07, 1.88716, 0.000116624, NaN, NaN, NaN, 0.0482207, "- N/A -   "
0.08, 2.005107, 0.000133284, NaN, NaN, NaN, 0.04699994, "- N/A -   "
0.09, 2.241, 1.554981E-4, NaN, NaN, NaN, 0.0445584, "- N/A -   "
0.1, 2.35895, 0.000174935, NaN, NaN, NaN, 0.0433376, "- N/A -   "
0.11, 2.35895, 0.000194373, NaN, NaN, NaN, 0.0433376, "- N/A -   "
0.12, 2.476897, 2.138099E-4, NaN, NaN, NaN, 0.04089605, "- N/A -   "
0.13, 2.59484, 2.304704E-4, NaN, NaN, NaN, 0.04089605, "- N/A -   "
0.14, 2.83074, 0.000249908, NaN, NaN, NaN, 0.0396753, "- N/A -   "
0.15, 2.83074, 2.721217E-4, NaN, NaN, NaN, 0.0384545, "- N/A -   "
0.16, 2.94869, 0.000288782, NaN, NaN, NaN, 0.0372337, "- N/A -   "
0.17, 3.06663, 3.109962E-4, NaN, NaN, NaN, 0.03601294, "- N/A -   "
0.18, 3.18458, 0.000327657, NaN, NaN, NaN, 0.0347922, "- N/A -   "
0.19, 3.30253, 0.000347094, NaN, NaN, NaN, 0.0335714, "- N/A -   "
0.2, 3.53842, 0.000366531, NaN, NaN, NaN, 0.0323506, "- N/A -   "
0.21, 3.65637, 3.859685E-4, NaN, NaN, NaN, 0.03112983, "- N/A -   "
0.22, 3.774319, 0.000402629, NaN, NaN, NaN, 0.03112983, "- N/A -   "
0.23, 3.89227, 0.000422066, NaN, NaN, NaN, 0.03112983, "- N/A -   "
0.24, 4.010214, 4.387268E-4, NaN, NaN, NaN, 0.0299091, "- N/A -   "
0.25, 4.12816, 4.553873E-4, NaN, NaN, NaN, 0.03112983, "- N/A -   "
0.26, 4.246109, 4.720478E-4, NaN, NaN, NaN, 0.0299091, "- N/A -   "
0.27, 4.36406, 4.887083E-4, NaN, NaN, NaN, 0.03112983, "- N/A -   "
0.28, 4.36406, 5.053688E-4, NaN, NaN, NaN, 0.0299091, "- N/A -   "
0.29, 4.59995, 0.000522029, NaN, NaN, NaN, 0.0299091, "- N/A -   "
0.3, 4.59995, 0.00053869, NaN, NaN, NaN, 0.0299091, "- N/A -   "
0.31, 4.717899, 5.553504E-4, NaN, NaN, NaN, 0.0299091, "- N/A -   "
0.32, 4.83585, 5.720109E-4, NaN, NaN, NaN, 0.0299091, "- N/A -   "
0.33, 4.953794, 0.000588671, NaN, NaN, NaN, 0.03112983, "- N/A -   "
0.34, 5.071741, 0.000602555, NaN, NaN, NaN, 0.03112983, "- N/A -   "
0.35, 5.071741, 6.164389E-4, NaN, NaN, NaN, 0.0323506, "- N/A -   "
0.36, 5.307636, 6.330994E-4, NaN, NaN, NaN, 0.0323506, "- N/A -   "
0.37, 5.425584, 6.497599E-4, NaN, NaN, NaN, 0.0323506, "- N/A -   "
0.38, 5.54353, 0.00066642, NaN, NaN, NaN, 0.0323506, "- N/A -   "
0.39, 5.66148, 6.803042E-4, NaN, NaN, NaN, 0.0335714, "- N/A -   "
0.4, 5.779426, 0.000694188, NaN, NaN, NaN, 0.0347922, "- N/A -   "
0.41, 5.779426, 7.108485E-4, NaN, NaN, NaN, 0.0347922, "- N/A -   "
0.42, 5.897373, 7.27509E-4, NaN, NaN, NaN, 0.0347922, "- N/A -   "
0.43, 6.01532, 0.000744169, NaN, NaN, NaN, 0.0347922, "- N/A -   "
0.44, 6.13327, 0.000758053, NaN, NaN, NaN, 0.03601294, "- N/A -   "
0.45, 6.369163, 0.000774714, NaN, NaN, NaN, 0.03601294, "- N/A -   "
0.46, 6.487111, 0.000791374, NaN, NaN, NaN, 0.03601294, "- N/A -   "
0.47, 6.723006, 8.080348E-4, NaN, NaN, NaN, 0.03601294, "- N/A -   "
0.48, 6.84095, 8.246953E-4, NaN, NaN, NaN, 0.0372337, "- N/A -   "
0.49, 6.9589, 8.413558E-4, NaN, NaN, NaN, 0.0372337, "- N/A -   "
0.5, 7.1948, 8.580163E-4, NaN, NaN, NaN, 0.03601294, "- N/A -   "
0.51, 7.430691, 8.746768E-4, NaN, NaN, NaN, 0.03601294, "- N/A -   "
0.55, 8.256323, 9.329886E-4, NaN, NaN, NaN, 0.0396753, "- N/A -   "
0.59, 9.081955, 9.968539E-4, NaN, NaN, NaN, 0.04089605, "- N/A -   "
0.63, 9.907588, 0.00106072, NaN, NaN, NaN, 0.0433376, "- N/A -   "
0.67, 10.8512, 0.00112458, NaN, NaN, NaN, 0.0445584, "- N/A -   "
0.71, 11.7947, 0.00118845, NaN, NaN, NaN, 0.0445584, "- N/A -   "
0.75, 12.9742, 0.0012662, NaN, NaN, NaN, 0.0396753, "- N/A -   "
0.79, 14.0357, 0.00134672, NaN, NaN, NaN, 0.0335714, "- N/A -   "
0.83, 15.0973, 0.00141892, NaN, NaN, NaN, 0.03112983, "- N/A -   "
0.87, 16.1588, 0.00149112, NaN, NaN, NaN, 0.0299091, "- N/A -   "
0.91, 17.1024, 0.0015522, NaN, NaN, NaN, 0.0323506, "- N/A -   "
0.95, 17.928, 0.00160774, NaN, NaN, NaN, 0.03601294, "- N/A -   "
0.99, 18.8716, 0.00166605, NaN, NaN, NaN, 0.0396753, "- N/A -   "
1.03, 19.9331, 0.00173547, NaN, NaN, NaN, 0.0396753, "- N/A -   "
1.07, 21.1126, 0.00180767, NaN, NaN, NaN, 0.03601294, "- N/A -   "
1.11, 22.29207, 0.00188264, NaN, NaN, NaN, 0.0335714, "- N/A -   "
1.15, 23.4715, 0.00194928, NaN, NaN, NaN, 0.0323506, "- N/A -   "
1.19, 24.4151, 0.00201037, NaN, NaN, NaN, 0.0347922, "- N/A -   "
1.23, 25.3587, 0.002071457, NaN, NaN, NaN, 0.0372337, "- N/A -   "
1.27, 26.4202, 0.00213255, NaN, NaN, NaN, 0.0396753, "- N/A -   "
1.31, 27.5997, 0.00220196, NaN, NaN, NaN, 0.0384545, "- N/A -   "
1.35, 28.7792, 0.00226861, NaN, NaN, NaN, 0.0396753, "- N/A -   "
1.39, 29.7228, 0.00232969, NaN, NaN, NaN, 0.04089605, "- N/A -   "
1.43, 31.0202, 0.00240189, NaN, NaN, NaN, 0.0384545, "- N/A -   "
1.47, 32.1997, 0.00247131, NaN, NaN, NaN, 0.0372337, "- N/A -   "
1.51, 33.49708, 0.00254073, NaN, NaN, NaN, 0.03601294, "- N/A -   "
1.55, 34.55861, 0.00260459, NaN, NaN, NaN, 0.0372337, "- N/A -   "
1.59, 35.7381, 0.00267124, NaN, NaN, NaN, 0.0372337, "- N/A -   "
1.63, 37.0355, 0.002740654, NaN, NaN, NaN, 0.03601294, "- N/A -   "
1.67, 38.3329, 0.00281563, NaN, NaN, NaN, 0.0323506, "- N/A -   "
1.71, 39.5124, 0.00288227, NaN, NaN, NaN, 0.0323506, "- N/A -   "
1.75, 40.69188, 0.00294613, NaN, NaN, NaN, 0.0335714, "- N/A -   "
1.79, 41.7534, 0.003009999, NaN, NaN, NaN, 0.0347922, "- N/A -   "
1.83, 43.0508, 0.00307664, NaN, NaN, NaN, 0.0347922, "- N/A -   "
1.87, 44.34825, 0.00314606, NaN, NaN, NaN, 0.0335714, "- N/A -   "
1.91, 45.40978, 0.003215479, NaN, NaN, NaN, 0.0323506, "- N/A -   "
1.95, 46.4713, 0.003271014, NaN, NaN, NaN, 0.0372337, "- N/A -   "
1.99, 47.65078, 0.0033321, NaN, NaN, NaN, 0.0396753, "- N/A -   "
2.03, 48.7123, 0.00339597, NaN, NaN, NaN, 0.04211683, "- N/A -   "
2.07, 49.8918, 0.00345428, NaN, NaN, NaN, 0.04577916, "- N/A -   "
2.11, 51.1892, 0.003523698, NaN, NaN, NaN, 0.0445584, "- N/A -   "
2.15, 52.48662, 0.00359312, NaN, NaN, NaN, 0.0433376, "- N/A -   "
2.19, 53.902, 0.00366809, NaN, NaN, NaN, 0.0384545, "- N/A -   "
2.23, 55.43531, 0.00374862, NaN, NaN, NaN, 0.0335714, "- N/A -   "
2.27, 56.6148, 0.00381803, NaN, NaN, NaN, 0.0323506, "- N/A -   "
2.31, 57.6763, 0.00388468, NaN, NaN, NaN, 0.03112983, "- N/A -   "
2.35, 58.9737, 0.00394854, NaN, NaN, NaN, 0.0323506, "- N/A -   "
2.39, 60.0353, 0.00400963, NaN, NaN, NaN, 0.0347922, "- N/A -   "
2.43, 61.45063, 0.004081825, NaN, NaN, NaN, 0.0323506, "- N/A -   "
2.47, 62.7481, 0.00415124, NaN, NaN, NaN, 0.03112983, "- N/A -   "
2.51, 64.04548, 0.00422066, NaN, NaN, NaN, 0.03112983, "- N/A -   "
2.55, 65.22495, 0.004287305, NaN, NaN, NaN, 0.0299091, "- N/A -   "
2.59, 66.16853, 0.004345617, NaN, NaN, NaN, 0.0335714, "- N/A -   "
2.63, 67.1121, 0.004398375, NaN, NaN, NaN, 0.0396753, "- N/A -   "
2.67, 68.17364, 0.004459463, NaN, NaN, NaN, 0.04211683, "- N/A -   "
2.71, 69.47106, 0.004523329, NaN, NaN, NaN, 0.0433376, "- N/A -   "
2.75, 70.5326, 0.004587194, NaN, NaN, NaN, 0.04577916, "- N/A -   "
2.79, 71.83001, 0.004656613, NaN, NaN, NaN, 0.0433376, "- N/A -   "
2.83, 73.36333, 0.00473159, NaN, NaN, NaN, 0.0396753, "- N/A -   "
2.87, 74.66075, 0.004806557, NaN, NaN, NaN, 0.03601294, "- N/A -   "
2.91, 75.8402, 0.004875976, NaN, NaN, NaN, 0.03601294, "- N/A -   "
2.95, 76.90175, 0.00494262, NaN, NaN, NaN, 0.03601294, "- N/A -   "
2.99, 78.08122, 0.005012037, NaN, NaN, NaN, 0.0347922, "- N/A -   "
3.03, 79.4966, 0.005087009, NaN, NaN, NaN, 0.03112983, "- N/A -   "
3.07, 80.67606, 0.005156428, NaN, NaN, NaN, 0.0286883, "- N/A -   "
3.11, 81.8555, 0.00522307, NaN, NaN, NaN, 0.0286883, "- N/A -   "
3.15, 83.03502, 0.00528971, NaN, NaN, NaN, 0.0286883, "- N/A -   "
3.19, 83.9786, 0.00534802, NaN, NaN, NaN, 0.0335714, "- N/A -   "
3.23, 84.92217, 0.00540911, NaN, NaN, NaN, 0.03601294, "- N/A -   "
3.27, 85.86576, 0.00546742, NaN, NaN, NaN, 0.04089605, "- N/A -   "
3.31, 86.80934, 0.00552574, NaN, NaN, NaN, 0.0433376, "- N/A -   "
3.35, 87.9888, 0.005592378, NaN, NaN, NaN, 0.0433376, "- N/A -   "
3.39, 89.16828, 0.005661797, NaN, NaN, NaN, 0.04211683, "- N/A -   "
3.43, 90.11186, 0.00572566, NaN, NaN, NaN, 0.0433376, "- N/A -   "
3.47, 91.40929, 0.005792304, NaN, NaN, NaN, 0.0433376, "- N/A -   "
3.51, 92.47082, 0.0058645, NaN, NaN, NaN, 0.04089605, "- N/A -   "
3.55, 93.76824, 0.005939472, NaN, NaN, NaN, 0.0372337, "- N/A -   "
3.59, 94.9477, 0.006014445, NaN, NaN, NaN, 0.0335714, "- N/A -   "
3.63, 96.12719, 0.006089417, NaN, NaN, NaN, 0.0299091, "- N/A -   "
3.67, 97.18872, 0.006156059, NaN, NaN, NaN, 0.0299091, "- N/A -   "
3.71, 98.2502, 0.006225478, NaN, NaN, NaN, 0.0299091, "- N/A -   "
3.75, 99.3118, 0.006286566, NaN, NaN, NaN, 0.03112983, "- N/A -   "
3.79, 100.3733, 0.006347655, NaN, NaN, NaN, 0.0335714, "- N/A -   "
3.83, 101.199, 0.006408743, NaN, NaN, NaN, 0.03601294, "- N/A -   "
3.87, 102.26, 0.00647261, NaN, NaN, NaN, 0.0372337, "- N/A -   "
3.91, 103.322, 0.00654203, NaN, NaN, NaN, 0.03601294, "- N/A -   "
3.95, 104.384, 0.006608669, NaN, NaN, NaN, 0.03601294, "- N/A -   "
3.99, 105.209, 0.0066642, NaN, NaN, NaN, 0.04211683, "- N/A -   "
4.03, 106.271, 0.006725293, NaN, NaN, NaN, 0.0445584, "- N/A -   "
4.07, 107.3322, 0.00679471, NaN, NaN, NaN, 0.04211683, "- N/A -   "
4.11, 108.512, 0.00686135, NaN, NaN, NaN, 0.0433376, "- N/A -   "
4.15, 109.5732, 0.006925219, NaN, NaN, NaN, 0.0433376, "- N/A -   "
4.19, 110.871, 0.00700297, NaN, NaN, NaN, 0.0396753, "- N/A -   "
4.23, 112.286, 0.00708072, NaN, NaN, NaN, 0.0347922, "- N/A -   "
4.27, 113.348, 0.00715291, NaN, NaN, NaN, 0.03112983, "- N/A -   "
4.31, 114.527, 0.007219555, NaN, NaN, NaN, 0.03112983, "- N/A -   "
4.35, 115.353, 0.007277867, NaN, NaN, NaN, 0.0347922, "- N/A -   "
4.39, 116.414, 0.007341732, NaN, NaN, NaN, 0.03601294, "- N/A -   "
4.43, 117.594, 0.00741115, NaN, NaN, NaN, 0.0347922, "- N/A -   "
4.47, 118.891, 0.007483346, NaN, NaN, NaN, 0.0335714, "- N/A -   "
4.51, 119.953, 0.007549988, NaN, NaN, NaN, 0.0323506, "- N/A -   "
4.55, 121.014, 0.00761663, NaN, NaN, NaN, 0.0323506, "- N/A -   "
4.59, 121.958, 0.007677719, NaN, NaN, NaN, 0.0347922, "- N/A -   "
4.63, 123.019, 0.007736031, NaN, NaN, NaN, 0.0384545, "- N/A -   "
4.67, 123.963, 0.007797119, NaN, NaN, NaN, 0.04211683, "- N/A -   "
4.71, 125.142, 0.007863761, NaN, NaN, NaN, 0.04089605, "- N/A -   "
4.75, 126.322, 0.007935957, NaN, NaN, NaN, 0.0384545, "- N/A -   "
4.79, 127.383, 0.00799982, NaN, NaN, NaN, 0.0396753, "- N/A -   "
4.83, 128.4448, 0.008060911, NaN, NaN, NaN, 0.04211683, "- N/A -   "
4.87, 129.624, 0.008135883, NaN, NaN, NaN, 0.0384545, "- N/A -   "
4.91, 130.922, 0.008205301, NaN, NaN, NaN, 0.0372337, "- N/A -   "
4.95, 131.983, 0.00827472, NaN, NaN, NaN, 0.03601294, "- N/A -   "
4.99, 133.045, 0.008341363, NaN, NaN, NaN, 0.03601294, "- N/A -   "
5.03, 134.224, 0.008410782, NaN, NaN, NaN, 0.0347922, "- N/A -   "
5.07, 135.522, 0.008485753, NaN, NaN, NaN, 0.0323506, "- N/A -   "
5.11, 136.583, 0.008549619, NaN, NaN, NaN, 0.0323506, "- N/A -   "
5.15, 137.763, 0.008613484, NaN, NaN, NaN, 0.0335714, "- N/A -   "
5.19, 138.942, 0.008680127, NaN, NaN, NaN, 0.0335714, "- N/A -   "
5.23, 139.8857, 0.008743991, NaN, NaN, NaN, 0.0347922, "- N/A -   "
5.27, 141.065, 0.008813411, NaN, NaN, NaN, 0.0347922, "- N/A -   "
5.31, 142.1267, 0.008880053, NaN, NaN, NaN, 0.0347922, "- N/A -   "
5.35, 143.188, 0.008943917, NaN, NaN, NaN, 0.03601294, "- N/A -   "
5.39, 144.368, 0.009002229, NaN, NaN, NaN, 0.0384545, "- N/A -   "
5.43, 145.311, 0.009068871, NaN, NaN, NaN, 0.0396753, "- N/A -   "
5.47, 146.3728, 0.009132737, NaN, NaN, NaN, 0.0396753, "- N/A -   "
5.51, 147.552, 0.009193826, NaN, NaN, NaN, 0.04211683, "- N/A -   "
5.55, 148.6138, 0.009257691, NaN, NaN, NaN, 0.0433376, "- N/A -   "
5.59, 149.793, 0.009324333, NaN, NaN, NaN, 0.0433376, "- N/A -   "
5.63, 151.327, 0.009407635, NaN, NaN, NaN, 0.0372337, "- N/A -   "
5.67, 152.742, 0.009485384, NaN, NaN, NaN, 0.0323506, "- N/A -   "
5.71, 153.8035, 0.009549249, NaN, NaN, NaN, 0.0323506, "- N/A -   "
5.75, 154.747, 0.009613115, NaN, NaN, NaN, 0.0347922, "- N/A -   "
5.79, 155.927, 0.009679758, NaN, NaN, NaN, 0.0347922, "- N/A -   "
5.83, 157.224, 0.009751953, NaN, NaN, NaN, 0.0323506, "- N/A -   "
5.87, 158.521, 0.009826926, NaN, NaN, NaN, 0.0274675, "- N/A -   "
5.91, 159.583, 0.00989079, NaN, NaN, NaN, 0.0299091, "- N/A -   "
5.95, 160.7624, 0.009949102, NaN, NaN, NaN, 0.0323506, "- N/A -   "
5.99, 161.706, 0.01001019, NaN, NaN, NaN, 0.0347922, "- N/A -   "
6.03, 162.65, 0.0100685, NaN, NaN, NaN, 0.0396753, "- N/A -   "
6.07, 163.593, 0.0101268, NaN, NaN, NaN, 0.04211683, "- N/A -   "
6.11, 164.773, 0.0101879, NaN, NaN, NaN, 0.0445584, "- N/A -   "
6.15, 165.834, 0.010249, NaN, NaN, NaN, 0.04699994, "- N/A -   "
6.19, 167.014, 0.0103184, NaN, NaN, NaN, 0.04577916, "- N/A -   "
6.23, 168.429, 0.01039616, NaN, NaN, NaN, 0.04089605, "- N/A -   "
6.27, 169.726, 0.0104684, NaN, NaN, NaN, 0.0384545, "- N/A -   "
6.31, 171.142, 0.0105433, NaN, NaN, NaN, 0.03601294, "- N/A -   "
6.35, 172.321, 0.0106155, NaN, NaN, NaN, 0.0323506, "- N/A -   "
6.39, 173.737, 0.0106849, NaN, NaN, NaN, 0.03112983, "- N/A -   "
6.43, 174.9161, 0.0107571, NaN, NaN, NaN, 0.0286883, "- N/A -   "
6.47, 176.096, 0.0108238, NaN, NaN, NaN, 0.0299091, "- N/A -   "
6.51, 177.275, 0.0108932, NaN, NaN, NaN, 0.0274675, "- N/A -   "
6.55, 178.455, 0.01095984, NaN, NaN, NaN, 0.0286883, "- N/A -   "
6.59, 179.634, 0.0110182, NaN, NaN, NaN, 0.03112983, "- N/A -   "
6.63, 180.46, 0.0110765, NaN, NaN, NaN, 0.0347922, "- N/A -   "
6.67, 181.521, 0.0111376, NaN, NaN, NaN, 0.0384545, "- N/A -   "
6.71, 182.583, 0.0111959, NaN, NaN, NaN, 0.04089605, "- N/A -   "
6.75, 183.762, 0.011257, NaN, NaN, NaN, 0.0433376, "- N/A -   "
6.79, 185.06, 0.0113236, NaN, NaN, NaN, 0.0433376, "- N/A -   "
6.83, 186.239, 0.011393, NaN, NaN, NaN, 0.0433376, "- N/A -   "
6.87, 187.419, 0.0114597, NaN, NaN, NaN, 0.04211683, "- N/A -   "
6.91, 188.716, 0.0115291, NaN, NaN, NaN, 0.04089605, "- N/A -   "
6.95, 190.131, 0.0115985, NaN, NaN, NaN, 0.0396753, "- N/A -   "
6.99, 191.665, 0.0116762, NaN, NaN, NaN, 0.0347922, "- N/A -   "
7.03, 193.198, 0.0117595, NaN, NaN, NaN, 0.0274675, "- N/A -   "
7.07, 194.495, 0.011829, NaN, NaN, NaN, 0.0262467, "- N/A -   "
7.11, 195.439, 0.0118901, NaN, NaN, NaN, 0.0286883, "- N/A -   "
7.15, 196.5, 0.0119511, NaN, NaN, NaN, 0.0323506, "- N/A -   "
7.19, 197.798, 0.0120122, NaN, NaN, NaN, 0.0335714, "- N/A -   "
7.23, 198.859, 0.0120761, NaN, NaN, NaN, 0.0347922, "- N/A -   "
7.27, 200.157, 0.0121427, NaN, NaN, NaN, 0.0347922, "- N/A -   "
7.31, 201.454, 0.0122066, NaN, NaN, NaN, 0.03601294, "- N/A -   "
7.35, 202.7517, 0.01227602, NaN, NaN, NaN, 0.0347922, "- N/A -   "
7.39, 203.813, 0.0123343, NaN, NaN, NaN, 0.0384545, "- N/A -   "
7.43, 204.7568, 0.0123926, NaN, NaN, NaN, 0.04211683, "- N/A -   "
7.47, 206.054, 0.0124565, NaN, NaN, NaN, 0.0433376, "- N/A -   "
7.51, 207.2337, 0.0125204, NaN, NaN, NaN, 0.0445584, "- N/A -   "
7.55, 208.531, 0.012587, NaN, NaN, NaN, 0.0445584, "- N/A -   "
7.59, 210.064, 0.0126648, NaN, NaN, NaN, 0.04089605, "- N/A -   "
7.63, 211.598, 0.0127397, NaN, NaN, NaN, 0.03601294, "- N/A -   "
7.67, 213.249, 0.0128203, NaN, NaN, NaN, 0.0299091, "- N/A -   "
7.71, 214.546, 0.0128952, NaN, NaN, NaN, 0.0262467, "- N/A -   "
7.75, 215.726, 0.0129563, NaN, NaN, NaN, 0.0299091, "- N/A -   "
7.79, 216.905, 0.0130174, NaN, NaN, NaN, 0.0323506, "- N/A -   "
7.83, 217.849, 0.0130757, NaN, NaN, NaN, 0.03601294, "- N/A -   "
7.87, 219.264, 0.0131451, NaN, NaN, NaN, 0.0347922, "- N/A -   "
7.91, 220.798, 0.01321734, NaN, NaN, NaN, 0.0323506, "- N/A -   "
7.95, 222.095, 0.013284, NaN, NaN, NaN, 0.0335714, "- N/A -   "
7.99, 223.157, 0.01334507, NaN, NaN, NaN, 0.0347922, "- N/A -   "
8.03, 224.336, 0.0134089, NaN, NaN, NaN, 0.03601294, "- N/A -   "
8.07, 225.28, 0.01346447, NaN, NaN, NaN, 0.04089605, "- N/A -   "
8.11, 226.577, 0.0135283, NaN, NaN, NaN, 0.04211683, "- N/A -   "
8.15, 227.992, 0.013595, NaN, NaN, NaN, 0.04211683, "- N/A -   "
8.19, 229.29, 0.0136644, NaN, NaN, NaN, 0.04089605, "- N/A -   "
8.23, 230.705, 0.0137366, NaN, NaN, NaN, 0.0384545, "- N/A -   "
8.27, 232.239, 0.013806, NaN, NaN, NaN, 0.0372337, "- N/A -   "
8.31, 233.654, 0.0138782, NaN, NaN, NaN, 0.0347922, "- N/A -   "
8.35, 234.951, 0.0139421, NaN, NaN, NaN, 0.03601294, "- N/A -   "
8.39, 236.131, 0.0140059, NaN, NaN, NaN, 0.0372337, "- N/A -   "
8.43, 237.428, 0.0140754, NaN, NaN, NaN, 0.0372337, "- N/A -   "
8.47, 238.844, 0.014142, NaN, NaN, NaN, 0.03601294, "- N/A -   "
8.51, 240.141, 0.01420864, NaN, NaN, NaN, 0.03601294, "- N/A -   "
8.55, 241.203, 0.0142725, NaN, NaN, NaN, 0.0372337, "- N/A -   "
8.59, 242.618, 0.0143391, NaN, NaN, NaN, 0.0384545, "- N/A -   "
8.63, 244.032, 0.0144058, NaN, NaN, NaN, 0.0372337, "- N/A -   "
8.67, 245.328, 0.0144752, NaN, NaN, NaN, 0.0372337, "- N/A -   "
8.71, 246.86, 0.0145474, NaN, NaN, NaN, 0.0347922, "- N/A -   "
8.75, 248.156, 0.014614, NaN, NaN, NaN, 0.0335714, "- N/A -   "
8.79, 249.216, 0.0146724, NaN, NaN, NaN, 0.0384545, "- N/A -   "
8.83, 250.512, 0.0147334, NaN, NaN, NaN, 0.0396753, "- N/A -   "
8.87, 251.69, 0.0147945, NaN, NaN, NaN, 0.04211683, "- N/A -   "
8.91, 252.8687, 0.0148556, NaN, NaN, NaN, 0.0445584, "- N/A -   "
8.95, 254.283, 0.0149223, NaN, NaN, NaN, 0.0445584, "- N/A -   "
8.99, 255.814, 0.0149945, NaN, NaN, NaN, 0.04211683, "- N/A -   "
9.03, 257.4639, 0.01507221, NaN, NaN, NaN, 0.0372337, "- N/A -   "
9.07, 259.113, 0.01515, NaN, NaN, NaN, 0.0323506, "- N/A -   "
9.11, 260.41, 0.0152194, NaN, NaN, NaN, 0.03112983, "- N/A -   "
9.15, 261.8235, 0.015286, NaN, NaN, NaN, 0.03112983, "- N/A -   "
9.19, 263.002, 0.0153471, NaN, NaN, NaN, 0.0347922, "- N/A -   "
9.23, 264.298, 0.015411, NaN, NaN, NaN, 0.0347922, "- N/A -   "
9.27, 265.9474, 0.0154887, NaN, NaN, NaN, 0.03112983, "- N/A -   "
9.31, 267.479, 0.0155609, NaN, NaN, NaN, 0.0286883, "- N/A -   "
9.35, 268.54, 0.015622, NaN, NaN, NaN, 0.0299091, "- N/A -   "
9.39, 269.9535, 0.0156831, NaN, NaN, NaN, 0.0323506, "- N/A -   "
9.43, 271.014, 0.0157442, NaN, NaN, NaN, 0.0347922, "- N/A -   "
9.47, 272.192, 0.0157997, NaN, NaN, NaN, 0.0396753, "- N/A -   "
9.51, 273.253, 0.0158553, NaN, NaN, NaN, 0.0445584, "- N/A -   "
9.55, 274.667, 0.01591912, NaN, NaN, NaN, 0.04577916, "- N/A -   "
9.59, 276.08, 0.0159885, NaN, NaN, NaN, 0.0445584, "- N/A -   "
9.63, 277.73, 0.0160663, NaN, NaN, NaN, 0.04089605, "- N/A -   "
9.67, 279.262, 0.01614126, NaN, NaN, NaN, 0.03601294, "- N/A -   "
9.71, 280.676, 0.0162079, NaN, NaN, NaN, 0.03601294, "- N/A -   "
9.75, 282.09, 0.01627732, NaN, NaN, NaN, 0.03601294, "- N/A -   "
9.79, 283.386, 0.016344, NaN, NaN, NaN, 0.03601294, "- N/A -   "
9.83, 285.035, 0.0164162, NaN, NaN, NaN, 0.0323506, "- N/A -   "
9.87, 286.685, 0.0164939, NaN, NaN, NaN, 0.0286883, "- N/A -   "
9.91, 287.981, 0.0165578, NaN, NaN, NaN, 0.0286883, "- N/A -   "
9.95, 289.277, 0.0166216, NaN, NaN, NaN, 0.03112983, "- N/A -   "
9.99, 290.573, 0.0166827, NaN, NaN, NaN, 0.0323506, "- N/A -   "
10.03, 291.7513, 0.016741, NaN, NaN, NaN, 0.0372337, "- N/A -   "
10.07, 293.0474, 0.0168049, NaN, NaN, NaN, 0.0384545, "- N/A -   "
10.11, 294.226, 0.0168604, NaN, NaN, NaN, 0.04211683, "- N/A -   "
10.15, 295.522, 0.0169243, NaN, NaN, NaN, 0.0445584, "- N/A -   "
10.19, 296.936, 0.0169909, NaN, NaN, NaN, 0.0433376, "- N/A -   "
10.23, 298.35, 0.0170576, NaN, NaN, NaN, 0.0445584, "- N/A -   "
10.27, 299.646, 0.0171215, NaN, NaN, NaN, 0.0445584, "- N/A -   "
10.31, 301.1774, 0.0171909, NaN, NaN, NaN, 0.0433376, "- N/A -   "
10.35, 302.827, 0.0172658, NaN, NaN, NaN, 0.04089605, "- N/A -   "
10.39, 304.477, 0.0173436, NaN, NaN, NaN, 0.03601294, "- N/A -   "
10.43, 306.2439, 0.01742134, NaN, NaN, NaN, 0.0299091, "- N/A -   "
10.47, 307.893, 0.0174935, NaN, NaN, NaN, 0.0274675, "- N/A -   "
10.51, 309.072, 0.0175574, NaN, NaN, NaN, 0.0286883, "- N/A -   "
10.55, 310.603, 0.017624, NaN, NaN, NaN, 0.0286883, "- N/A -   "
10.59, 311.782, 0.0176824, NaN, NaN, NaN, 0.0323506, "- N/A -   "
10.63, 313.196, 0.017749, NaN, NaN, NaN, 0.0323506, "- N/A -   "
10.67, 314.61, 0.01781564, NaN, NaN, NaN, 0.0323506, "- N/A -   "
10.71, 315.906, 0.01787673, NaN, NaN, NaN, 0.0347922, "- N/A -   "
10.75, 317.32, 0.0179406, NaN, NaN, NaN, 0.03601294, "- N/A -   "
10.79, 318.616, 0.0180045, NaN, NaN, NaN, 0.0372337, "- N/A -   "
10.83, 319.912, 0.0180683, NaN, NaN, NaN, 0.0396753, "- N/A -   "
10.87, 321.09, 0.01812386, NaN, NaN, NaN, 0.0433376, "- N/A -   "
10.91, 322.622, 0.0181877, NaN, NaN, NaN, 0.0445584, "- N/A -   "
10.95, 324.036, 0.0182571, NaN, NaN, NaN, 0.0433376, "- N/A -   "
10.99, 325.921, 0.0183377, NaN, NaN, NaN, 0.0372337, "- N/A -   "
11.03, 327.9239, 0.01842375, NaN, NaN, NaN, 0.0299091, "- N/A -   "
11.07, 329.6913, 0.0185015, NaN, NaN, NaN, 0.0250259, "- N/A -   "
11.11, 331.105, 0.0185681, NaN, NaN, NaN, 0.0250259, "- N/A -   "
11.15, 332.166, 0.0186292, NaN, NaN, NaN, 0.0274675, "- N/A -   "
11.19, 333.344, 0.0186792, NaN, NaN, NaN, 0.0347922, "- N/A -   "
11.23, 334.5222, 0.0187347, NaN, NaN, NaN, 0.0396753, "- N/A -   "
11.27, 335.7, 0.0187931, NaN, NaN, NaN, 0.04211683, "- N/A -   "
11.31, 337.232, 0.0188625, NaN, NaN, NaN, 0.04089605, "- N/A -   "
11.35, 338.882, 0.0189374, NaN, NaN, NaN, 0.0372337, "- N/A -   "
11.39, 340.413, 0.0190041, NaN, NaN, NaN, 0.0384545, "- N/A -   "
11.43, 341.4739, 0.01905685, NaN, NaN, NaN, 0.0445584, "- N/A -   "
11.47, 342.77, 0.0191124, NaN, NaN, NaN, 0.0482207, "- N/A -   "
11.51, 344.1839, 0.019179, NaN, NaN, NaN, 0.0482207, "- N/A -   "
11.55, 345.833, 0.019254, NaN, NaN, NaN, 0.0445584, "- N/A -   "
11.59, 347.837, 0.0193373, NaN, NaN, NaN, 0.0372337, "- N/A -   "
11.63, 349.6039, 0.019415, NaN, NaN, NaN, 0.0323506, "- N/A -   "
11.67, 351.253, 0.0194872, NaN, NaN, NaN, 0.03112983, "- N/A -   "
11.71, 352.55, 0.01955111, NaN, NaN, NaN, 0.03112983, "- N/A -   "
11.75, 353.846, 0.019615, NaN, NaN, NaN, 0.0335714, "- N/A -   "
11.79, 355.26, 0.0196816, NaN, NaN, NaN, 0.0335714, "- N/A -   "
11.83, 356.673, 0.0197455, NaN, NaN, NaN, 0.0335714, "- N/A -   "
11.87, 358.323, 0.0198121, NaN, NaN, NaN, 0.0335714, "- N/A -   "
11.91, 359.8548, 0.0198815, NaN, NaN, NaN, 0.0323506, "- N/A -   "
11.95, 361.269, 0.0199482, NaN, NaN, NaN, 0.0323506, "- N/A -   "
11.99, 362.918, 0.0200176, NaN, NaN, NaN, 0.0323506, "- N/A -   "
12.03, 364.45, 0.02008147, NaN, NaN, NaN, 0.0323506, "- N/A -   "
12.07, 365.864, 0.02015089, NaN, NaN, NaN, 0.0323506, "- N/A -   "
12.11, 367.278, 0.0202148, NaN, NaN, NaN, 0.0323506, "- N/A -   "
12.15, 368.692, 0.0202814, NaN, NaN, NaN, 0.0335714, "- N/A -   "
12.19, 369.988, 0.0203369, NaN, NaN, NaN, 0.0372337, "- N/A -   "
12.23, 371.2839, 0.0204008, NaN, NaN, NaN, 0.0384545, "- N/A -   "
12.27, 372.816, 0.02046466, NaN, NaN, NaN, 0.04089605, "- N/A -   "
12.31, 374.23, 0.0205285, NaN, NaN, NaN, 0.04211683, "- N/A -   "
12.35, 375.761, 0.0205896, NaN, NaN, NaN, 0.0445584, "- N/A -   "
12.39, 377.293, 0.020659, NaN, NaN, NaN, 0.0433376, "- N/A -   "
12.43, 379.178, 0.0207368, NaN, NaN, NaN, 0.0384545, "- N/A -   "
12.47, 380.828, 0.0208145, NaN, NaN, NaN, 0.0335714, "- N/A -   "
12.51, 382.36, 0.0208784, NaN, NaN, NaN, 0.0347922, "- N/A -   "
12.55, 383.7735, 0.0209395, NaN, NaN, NaN, 0.0372337, "- N/A -   "
12.59, 385.3052, 0.0210089, NaN, NaN, NaN, 0.03601294, "- N/A -   "
12.63, 386.955, 0.0210811, NaN, NaN, NaN, 0.0347922, "- N/A -   "
12.67, 388.722, 0.0211533, NaN, NaN, NaN, 0.03112983, "- N/A -   "
12.71, 390.1361, 0.0212227, NaN, NaN, NaN, 0.0299091, "- N/A -   "
12.75, 391.55, 0.0212838, NaN, NaN, NaN, 0.0335714, "- N/A -   "
12.79, 393.082, 0.02134767, NaN, NaN, NaN, 0.0335714, "- N/A -   "
12.83, 394.496, 0.0214088, NaN, NaN, NaN, 0.03601294, "- N/A -   "
12.87, 395.674, 0.0214671, NaN, NaN, NaN, 0.04089605, "- N/A -   "
12.91, 396.97, 0.0215226, NaN, NaN, NaN, 0.0445584, "- N/A -   "
12.95, 398.266, 0.0215837, NaN, NaN, NaN, 0.04699994, "- N/A -   "
12.99, 399.798, 0.0216476, NaN, NaN, NaN, 0.0482207, "- N/A -   "
13.03, 401.565, 0.0217253, NaN, NaN, NaN, 0.0445584, "- N/A -   "
13.07, 403.3326, 0.0217975, NaN, NaN, NaN, 0.04089605, "- N/A -   "
13.11, 404.982, 0.0218697, NaN, NaN, NaN, 0.0384545, "- N/A -   "
13.15, 406.8674, 0.0219474, NaN, NaN, NaN, 0.0347922, "- N/A -   "
13.19, 408.2813, 0.0220141, NaN, NaN, NaN, 0.0335714, "- N/A -   "
13.23, 409.931, 0.0220863, NaN, NaN, NaN, 0.0323506, "- N/A -   "
13.27, 411.58, 0.0221585, NaN, NaN, NaN, 0.0286883, "- N/A -   "
13.31, 413.23, 0.0222279, NaN, NaN, NaN, 0.0274675, "- N/A -   "
13.35, 414.644, 0.02229454, NaN, NaN, NaN, 0.0274675, "- N/A -   "
13.39, 416.058, 0.02235563, NaN, NaN, NaN, 0.0299091, "- N/A -   "
13.43, 417.4717, 0.0224167, NaN, NaN, NaN, 0.0323506, "- N/A -   "
13.47, 418.768, 0.0224723, NaN, NaN, NaN, 0.0372337, "- N/A -   "
13.51, 420.0639, 0.0225306, NaN, NaN, NaN, 0.04089605, "- N/A -   "
13.55, 421.4778, 0.0225889, NaN, NaN, NaN, 0.0445584, "- N/A -   "
13.59, 422.892, 0.0226555, NaN, NaN, NaN, 0.04577916, "- N/A -   "
13.63, 424.659, 0.02272216, NaN, NaN, NaN, 0.0445584, "- N/A -   "
13.67, 426.3087, 0.02279158, NaN, NaN, NaN, 0.0433376, "- N/A -   "
13.71, 427.84, 0.022861, NaN, NaN, NaN, 0.0433376, "- N/A -   "
13.75, 429.49, 0.0229304, NaN, NaN, NaN, 0.04089605, "- N/A -   "
13.79, 431.493, 0.0230082, NaN, NaN, NaN, 0.03601294, "- N/A -   "
13.83, 433.496, 0.0230915, NaN, NaN, NaN, 0.0286883, "- N/A -   "
13.87, 435.028, 0.02315811, NaN, NaN, NaN, 0.0286883, "- N/A -   "
13.91, 436.442, 0.0232192, NaN, NaN, NaN, 0.03112983, "- N/A -   "
13.95, 437.738, 0.0232831, NaN, NaN, NaN, 0.0323506, "- N/A -   "
13.99, 439.3874, 0.0233497, NaN, NaN, NaN, 0.0335714, "- N/A -   "
14.03, 441.037, 0.02341357, NaN, NaN, NaN, 0.0335714, "- N/A -   "
14.07, 442.451, 0.0234747, NaN, NaN, NaN, 0.03601294, "- N/A -   "
14.11, 443.9826, 0.0235385, NaN, NaN, NaN, 0.0384545, "- N/A -   "
14.15, 445.3965, 0.0235996, NaN, NaN, NaN, 0.0396753, "- N/A -   "
14.19, 447.046, 0.0236663, NaN, NaN, NaN, 0.0396753, "- N/A -   "
14.23, 448.46, 0.0237301, NaN, NaN, NaN, 0.04089605, "- N/A -   "
14.27, 449.992, 0.0237968, NaN, NaN, NaN, 0.04211683, "- N/A -   "
14.31, 451.523, 0.02386063, NaN, NaN, NaN, 0.04211683, "- N/A -   "
14.35, 453.0552, 0.0239273, NaN, NaN, NaN, 0.0433376, "- N/A -   "
14.39, 454.8226, 0.0239995, NaN, NaN, NaN, 0.0396753, "- N/A -   "
14.43, 456.708, 0.0240744, NaN, NaN, NaN, 0.03601294, "- N/A -   "
14.47, 458.593, 0.0241522, NaN, NaN, NaN, 0.0323506, "- N/A -   "
14.51, 460.2426, 0.0242244, NaN, NaN, NaN, 0.0286883, "- N/A -   "
14.55, 461.657, 0.0242882, NaN, NaN, NaN, 0.0299091, "- N/A -   "
14.59, 463.3061, 0.0243493, NaN, NaN, NaN, 0.0323506, "- N/A -   "
14.63, 464.72, 0.0244132, NaN, NaN, NaN, 0.0347922, "- N/A -   "
14.67, 466.37, 0.0244771, NaN, NaN, NaN, 0.0347922, "- N/A -   "
14.71, 467.901, 0.02454371, NaN, NaN, NaN, 0.0347922, "- N/A -   "
14.75, 469.6687, 0.0246159, NaN, NaN, NaN, 0.0323506, "- N/A -   "
14.79, 471.2004, 0.0246825, NaN, NaN, NaN, 0.0323506, "- N/A -   "
14.83, 472.614, 0.0247436, NaN, NaN, NaN, 0.0347922, "- N/A -   "
14.87, 474.028, 0.0248047, NaN, NaN, NaN, 0.0372337, "- N/A -   "
14.91, 475.442, 0.024863, NaN, NaN, NaN, 0.04089605, "- N/A -   "
14.95, 476.856, 0.0249241, NaN, NaN, NaN, 0.0433376, "- N/A -   "
14.99, 478.6235, 0.0249935, NaN, NaN, NaN, 0.04211683, "- N/A -   "
15.03, 480.273, 0.025063, NaN, NaN, NaN, 0.04089605, "- N/A -   "
15.07, 481.923, 0.0251324, NaN, NaN, NaN, 0.0396753, "- N/A -   "
15.11, 483.69, 0.0252018, NaN, NaN, NaN, 0.0384545, "- N/A -   "
15.15, 485.34, 0.025274, NaN, NaN, NaN, 0.0372337, "- N/A -   "
15.19, 486.989, 0.0253406, NaN, NaN, NaN, 0.03601294, "- N/A -   "
15.23, 488.757, 0.0254101, NaN, NaN, NaN, 0.0347922, "- N/A -   "
15.27, 490.288, 0.0254795, NaN, NaN, NaN, 0.0335714, "- N/A -   "
15.31, 491.9378, 0.0255461, NaN, NaN, NaN, 0.0347922, "- N/A -   "
15.35, 493.705, 0.02561276, NaN, NaN, NaN, 0.0335714, "- N/A -   "
15.39, 495.237, 0.0256822, NaN, NaN, NaN, 0.0335714, "- N/A -   "
15.43, 496.8865, 0.0257488, NaN, NaN, NaN, 0.0323506, "- N/A -   "
15.47, 498.183, 0.02580991, NaN, NaN, NaN, 0.0347922, "- N/A -   "
15.51, 499.832, 0.0258738, NaN, NaN, NaN, 0.03601294, "- N/A -   "
15.55, 501.482, 0.025946, NaN, NaN, NaN, 0.0347922, "- N/A -   "
15.59, 503.0135, 0.0260043, NaN, NaN, NaN, 0.0372337, "- N/A -   "
15.63, 504.4274, 0.0260681, NaN, NaN, NaN, 0.0396753, "- N/A -   "
15.67, 506.077, 0.026132, NaN, NaN, NaN, 0.0396753, "- N/A -   "
15.71, 507.609, 0.0261959, NaN, NaN, NaN, 0.04089605, "- N/A -   "
15.75, 509.258, 0.02626252, NaN, NaN, NaN, 0.04089605, "- N/A -   "
15.79, 510.79, 0.0263264, NaN, NaN, NaN, 0.04211683, "- N/A -   "
15.83, 512.5574, 0.0263986, NaN, NaN, NaN, 0.0396753, "- N/A -   "
15.87, 514.4462, 0.02647633, NaN, NaN, NaN, 0.0347922, "- N/A -   "
15.91, 516.339, 0.0265541, NaN, NaN, NaN, 0.03112983, "- N/A -   "
15.95, 517.8764, 0.0266152, NaN, NaN, NaN, 0.0323506, "- N/A -   "
15.99, 519.532, 0.0266846, NaN, NaN, NaN, 0.0323506, "- N/A -   "
16.03, 521.07, 0.02674845, NaN, NaN, NaN, 0.0323506, "- N/A -   "
16.07, 522.8442, 0.0268206, NaN, NaN, NaN, 0.03112983, "- N/A -   "
16.11, 524.7367, 0.0268928, NaN, NaN, NaN, 0.0274675, "- N/A -   "
16.15, 526.156, 0.02695671, NaN, NaN, NaN, 0.0299091, "- N/A -   "
16.19, 527.6937, 0.0270178, NaN, NaN, NaN, 0.03112983, "- N/A -   "
16.23, 529.2313, 0.0270817, NaN, NaN, NaN, 0.0323506, "- N/A -   "
16.27, 530.6507, 0.02714, NaN, NaN, NaN, 0.03601294, "- N/A -   "
16.31, 531.9518, 0.02719551, NaN, NaN, NaN, 0.04089605, "- N/A -   "
16.35, 533.371, 0.02725382, NaN, NaN, NaN, 0.0445584, "- N/A -   "
16.39, 534.9088, 0.0273149, NaN, NaN, NaN, 0.0482207, "- N/A -   "
16.43, 536.4465, 0.0273788, NaN, NaN, NaN, 0.0482207, "- N/A -   "
16.47, 538.576, 0.0274565, NaN, NaN, NaN, 0.0433376, "- N/A -   "
16.51, 540.5863, 0.027537, NaN, NaN, NaN, 0.0384545, "- N/A -   "
16.55, 542.361, 0.027612, NaN, NaN, NaN, 0.0347922, "- N/A -   "
16.59, 544.1347, 0.02768144, NaN, NaN, NaN, 0.0323506, "- N/A -   "
16.63, 545.791, 0.0277509, NaN, NaN, NaN, 0.03112983, "- N/A -   "
16.67, 547.4466, 0.0278231, NaN, NaN, NaN, 0.0286883, "- N/A -   "
16.71, 549.2208, 0.0278897, NaN, NaN, NaN, 0.0286883, "- N/A -   "
16.75, 550.8768, 0.0279536, NaN, NaN, NaN, 0.0299091, "- N/A -   "
16.79, 552.533, 0.0280202, NaN, NaN, NaN, 0.03112983, "- N/A -   "
16.83, 553.8338, 0.0280785, NaN, NaN, NaN, 0.0347922, "- N/A -   "
16.87, 555.2531, 0.0281396, NaN, NaN, NaN, 0.0384545, "- N/A -   "
16.91, 556.6725, 0.0281951, NaN, NaN, NaN, 0.04211683, "- N/A -   "
16.95, 558.21, 0.028259, NaN, NaN, NaN, 0.0433376, "- N/A -   "
16.99, 559.6295, 0.02832287, NaN, NaN, NaN, 0.0445584, "- N/A -   "
17.03, 561.404, 0.02838951, NaN, NaN, NaN, 0.0445584, "- N/A -   "
17.07, 563.0597, 0.02845893, NaN, NaN, NaN, 0.0433376, "- N/A -   "
17.11, 564.716, 0.02852835, NaN, NaN, NaN, 0.04211683, "- N/A -   "
17.15, 566.6081, 0.028595, NaN, NaN, NaN, 0.04211683, "- N/A -   "
17.19, 568.5006, 0.02867, NaN, NaN, NaN, 0.0384545, "- N/A -   "
17.23, 570.63, 0.02875049, NaN, NaN, NaN, 0.0323506, "- N/A -   "
17.27, 572.522, 0.0288282, NaN, NaN, NaN, 0.0274675, "- N/A -   "
17.31, 574.2963, 0.02889488, NaN, NaN, NaN, 0.0274675, "- N/A -   "
17.35, 575.9523, 0.0289587, NaN, NaN, NaN, 0.0286883, "- N/A -   "
17.39, 577.49, 0.0290254, NaN, NaN, NaN, 0.0286883, "- N/A -   "
17.43, 579.0276, 0.0290865, NaN, NaN, NaN, 0.0323506, "- N/A -   "
17.47, 580.565, 0.0291476, NaN, NaN, NaN, 0.0335714, "- N/A -   "
17.51, 581.9846, 0.0292059, NaN, NaN, NaN, 0.0372337, "- N/A -   "
17.55, 583.759, 0.0292753, NaN, NaN, NaN, 0.03601294, "- N/A -   "
17.59, 585.4148, 0.0293419, NaN, NaN, NaN, 0.03601294, "- N/A -   "
17.63, 587.0707, 0.029403, NaN, NaN, NaN, 0.0384545, "- N/A -   "
17.67, 588.254, 0.02945856, NaN, NaN, NaN, 0.0433376, "- N/A -   "
17.71, 589.9094, 0.0295224, NaN, NaN, NaN, 0.0445584, "- N/A -   "
17.75, 591.565, 0.0295863, NaN, NaN, NaN, 0.04699994, "- N/A -   "
17.79, 593.3396, 0.02965571, NaN, NaN, NaN, 0.0445584, "- N/A -   "
17.83, 595.469, 0.0297335, NaN, NaN, NaN, 0.0396753, "- N/A -   "
17.87, 597.4794, 0.029814, NaN, NaN, NaN, 0.0335714, "- N/A -   "
17.91, 599.3719, 0.02988618, NaN, NaN, NaN, 0.03112983, "- N/A -   "
17.95, 601.1461, 0.0299584, NaN, NaN, NaN, 0.0299091, "- N/A -   "
17.99, 602.5655, 0.0300167, NaN, NaN, NaN, 0.0323506, "- N/A -   "
18.03, 604.103, 0.030075, NaN, NaN, NaN, 0.03601294, "- N/A -   "
18.07, 605.522, 0.0301361, NaN, NaN, NaN, 0.0384545, "- N/A -   "
18.11, 607.2967, 0.03020273, NaN, NaN, NaN, 0.0384545, "- N/A -   "
18.15, 609.3075, 0.03028048, NaN, NaN, NaN, 0.0347922, "- N/A -   "
18.19, 611.082, 0.0303527, NaN, NaN, NaN, 0.03112983, "- N/A -   "
18.23, 612.6193, 0.0304165, NaN, NaN, NaN, 0.0323506, "- N/A -   "
18.27, 614.157, 0.0304721, NaN, NaN, NaN, 0.0372337, "- N/A -   "
18.31, 615.576, 0.03052761, NaN, NaN, NaN, 0.04211683, "- N/A -   "
18.35, 617.2323, 0.0305943, NaN, NaN, NaN, 0.04211683, "- N/A -   "
18.39, 619.0065, 0.0306664, NaN, NaN, NaN, 0.0396753, "- N/A -   "
18.43, 620.899, 0.0307359, NaN, NaN, NaN, 0.0384545, "- N/A -   "
18.47, 622.437, 0.0308025, NaN, NaN, NaN, 0.0384545, "- N/A -   "
18.51, 624.3291, 0.03086915, NaN, NaN, NaN, 0.0396753, "- N/A -   "
18.55, 625.985, 0.0309358, NaN, NaN, NaN, 0.0384545, "- N/A -   "
18.59, 627.878, 0.031008, NaN, NaN, NaN, 0.03601294, "- N/A -   "
18.63, 629.533, 0.03107463, NaN, NaN, NaN, 0.03601294, "- N/A -   "
18.67, 631.189, 0.0311413, NaN, NaN, NaN, 0.03601294, "- N/A -   "
18.71, 633.2002, 0.0312162, NaN, NaN, NaN, 0.0323506, "- N/A -   "
18.75, 634.9744, 0.03128844, NaN, NaN, NaN, 0.0299091, "- N/A -   "
18.79, 636.6304, 0.03134953, NaN, NaN, NaN, 0.0323506, "- N/A -   "
18.83, 638.4046, 0.0314217, NaN, NaN, NaN, 0.03112983, "- N/A -   "
18.87, 639.9422, 0.0314828, NaN, NaN, NaN, 0.0323506, "- N/A -   "
18.91, 641.8347, 0.0315522, NaN, NaN, NaN, 0.03112983, "- N/A -   "
18.95, 643.3724, 0.0316189, NaN, NaN, NaN, 0.03112983, "- N/A -   "
18.99, 644.7917, 0.03167441, NaN, NaN, NaN, 0.03601294, "- N/A -   "
19.03, 646.2111, 0.03173272, NaN, NaN, NaN, 0.0396753, "- N/A -   "
19.07, 647.985, 0.0317994, NaN, NaN, NaN, 0.0396753, "- N/A -   "
19.11, 649.405, 0.0318577, NaN, NaN, NaN, 0.0433376, "- N/A -   "
19.15, 651.061, 0.0319188, NaN, NaN, NaN, 0.04577916, "- N/A -   "
19.19, 652.717, 0.0319854, NaN, NaN, NaN, 0.04699994, "- N/A -   "
19.23, 654.6091, 0.0320576, NaN, NaN, NaN, 0.0433376, "- N/A -   "
19.27, 656.8564, 0.0321381, NaN, NaN, NaN, 0.0384545, "- N/A -   "
19.31, 658.9855, 0.0322159, NaN, NaN, NaN, 0.0323506, "- N/A -   "
19.35, 660.5231, 0.03227974, NaN, NaN, NaN, 0.0335714, "- N/A -   "
19.39, 662.179, 0.0323464, NaN, NaN, NaN, 0.0347922, "- N/A -   "
19.43, 663.835, 0.03241025, NaN, NaN, NaN, 0.0347922, "- N/A -   "
19.47, 665.491, 0.0324824, NaN, NaN, NaN, 0.0335714, "- N/A -   "
19.51, 667.62, 0.03255464, NaN, NaN, NaN, 0.0299091, "- N/A -   "
19.55, 669.394, 0.0326268, NaN, NaN, NaN, 0.0286883, "- N/A -   "
19.59, 670.932, 0.0326879, NaN, NaN, NaN, 0.0299091, "- N/A -   "
19.63, 672.4695, 0.0327462, NaN, NaN, NaN, 0.0335714, "- N/A -   "
19.67, 673.7705, 0.032799, NaN, NaN, NaN, 0.0396753, "- N/A -   "
19.71, 674.953, 0.0328545, NaN, NaN, NaN, 0.0445584, "- N/A -   "
19.75, 676.7276, 0.0329184, NaN, NaN, NaN, 0.04577916, "- N/A -   "
19.79, 678.5018, 0.032985, NaN, NaN, NaN, 0.04577916, "- N/A -   "
19.83, 680.3943, 0.0330545, NaN, NaN, NaN, 0.0445584, "- N/A -   "
19.87, 682.5233, 0.03313498, NaN, NaN, NaN, 0.0384545, "- N/A -   "
19.91, 684.5341, 0.03321, NaN, NaN, NaN, 0.03601294, "- N/A -   "
19.95, 686.19, 0.0332766, NaN, NaN, NaN, 0.0347922, "- N/A -   "
19.99, 688.0825, 0.033346, NaN, NaN, NaN, 0.0335714, "- N/A -   "
20.03, 689.857, 0.0334154, NaN, NaN, NaN, 0.0335714, "- N/A -   "
20.07, 691.7492, 0.03348763, NaN, NaN, NaN, 0.03112983, "- N/A -   "
20.11, 693.6417, 0.033557, NaN, NaN, NaN, 0.0286883, "- N/A -   "
20.15, 695.416, 0.0336237, NaN, NaN, NaN, 0.0286883, "- N/A -   "
20.19, 697.072, 0.03369311, NaN, NaN, NaN, 0.0274675, "- N/A -   "
20.23, 698.846, 0.03375975, NaN, NaN, NaN, 0.0286883, "- N/A -   "
20.27, 700.3837, 0.0338153, NaN, NaN, NaN, 0.0323506, "- N/A -   "
20.31, 701.8031, 0.0338764, NaN, NaN, NaN, 0.0347922, "- N/A -   "
20.35, 703.1042, 0.0339319, NaN, NaN, NaN, 0.0396753, "- N/A -   "
20.39, 704.76, 0.03399022, NaN, NaN, NaN, 0.0433376, "- N/A -   "
20.43, 706.534, 0.0340569, NaN, NaN, NaN, 0.0445584, "- N/A -   "
20.47, 708.4268, 0.03412628, NaN, NaN, NaN, 0.04211683, "- N/A -   "
20.51, 710.083, 0.0341901, NaN, NaN, NaN, 0.0433376, "- N/A -   "
20.55, 711.7387, 0.0342568, NaN, NaN, NaN, 0.0433376, "- N/A -   "
20.59, 713.7495, 0.034329, NaN, NaN, NaN, 0.04089605, "- N/A -   "
20.63, 715.879, 0.0344067, NaN, NaN, NaN, 0.03601294, "- N/A -   "
20.67, 718.008, 0.03448726, NaN, NaN, NaN, 0.0299091, "- N/A -   "
20.71, 719.9001, 0.0345567, NaN, NaN, NaN, 0.0286883, "- N/A -   "
20.75, 721.438, 0.0346205, NaN, NaN, NaN, 0.0299091, "- N/A -   "
20.79, 723.3302, 0.0346872, NaN, NaN, NaN, 0.0299091, "- N/A -   "
20.83, 724.6313, 0.0347483, NaN, NaN, NaN, 0.0335714, "- N/A -   "
20.87, 726.2873, 0.0348066, NaN, NaN, NaN, 0.03601294, "- N/A -   "
20.91, 727.9432, 0.0348677, NaN, NaN, NaN, 0.0384545, "- N/A -   "
20.95, 729.7174, 0.0349371, NaN, NaN, NaN, 0.0372337, "- N/A -   "
20.99, 731.6099, 0.0350093, NaN, NaN, NaN, 0.03601294, "- N/A -   "
21.03, 733.2658, 0.03507038, NaN, NaN, NaN, 0.0384545, "- N/A -   "
21.07, 734.803, 0.03512591, NaN, NaN, NaN, 0.04211683, "- N/A -   "
21.11, 736.2228, 0.035187, NaN, NaN, NaN, 0.0445584, "- N/A -   "
21.15, 737.997, 0.0352536, NaN, NaN, NaN, 0.0445584, "- N/A -   "
21.19, 739.8895, 0.03532306, NaN, NaN, NaN, 0.0433376, "- N/A -   "
21.23, 742.1369, 0.0354036, NaN, NaN, NaN, 0.0372337, "- N/A -   "
21.27, 744.266, 0.0354813, NaN, NaN, NaN, 0.0323506, "- N/A -   "
21.31, 746.1584, 0.03555353, NaN, NaN, NaN, 0.03112983, "- N/A -   "
21.35, 747.9326, 0.03562295, NaN, NaN, NaN, 0.0299091, "- N/A -   "
21.39, 749.5886, 0.0356868, NaN, NaN, NaN, 0.03112983, "- N/A -   "
21.43, 751.008, 0.03574235, NaN, NaN, NaN, 0.03601294, "- N/A -   "
21.47, 752.6639, 0.035809, NaN, NaN, NaN, 0.03601294, "- N/A -   "
21.51, 754.6746, 0.0358784, NaN, NaN, NaN, 0.03601294, "- N/A -   "
21.55, 756.567, 0.03595061, NaN, NaN, NaN, 0.0323506, "- N/A -   "
21.59, 758.3414, 0.03602, NaN, NaN, NaN, 0.0323506, "- N/A -   "
21.63, 759.9973, 0.0360811, NaN, NaN, NaN, 0.0335714, "- N/A -   "
21.67, 761.6532, 0.0361422, NaN, NaN, NaN, 0.03601294, "- N/A -   "
21.71, 763.191, 0.03620329, NaN, NaN, NaN, 0.0384545, "- N/A -   "
21.75, 764.7285, 0.03626438, NaN, NaN, NaN, 0.04211683, "- N/A -   "
21.79, 766.503, 0.036331, NaN, NaN, NaN, 0.04089605, "- N/A -   "
21.83, 768.395, 0.0363977, NaN, NaN, NaN, 0.04089605, "- N/A -   "
21.87, 769.933, 0.0364643, NaN, NaN, NaN, 0.04211683, "- N/A -   "
21.91, 771.8254, 0.03653095, NaN, NaN, NaN, 0.04089605, "- N/A -   "
21.95, 773.5996, 0.03660314, NaN, NaN, NaN, 0.0396753, "- N/A -   "
21.99, 775.492, 0.0366698, NaN, NaN, NaN, 0.0384545, "- N/A -   "
22.03, 777.3845, 0.0367392, NaN, NaN, NaN, 0.0372337, "- N/A -   "
22.07, 779.277, 0.0368086, NaN, NaN, NaN, 0.03601294, "- N/A -   "
22.11, 781.0513, 0.0368808, NaN, NaN, NaN, 0.0347922, "- N/A -   "
22.15, 782.9437, 0.0369502, NaN, NaN, NaN, 0.0323506, "- N/A -   "
22.19, 784.718, 0.03701688, NaN, NaN, NaN, 0.0323506, "- N/A -   "
22.23, 786.1374, 0.037078, NaN, NaN, NaN, 0.03601294, "- N/A -   "
22.27, 787.912, 0.0371391, NaN, NaN, NaN, 0.0372337, "- N/A -   "
22.31, 789.5675, 0.0372057, NaN, NaN, NaN, 0.0372337, "- N/A -   "
22.35, 791.5783, 0.03728067, NaN, NaN, NaN, 0.0335714, "- N/A -   "
22.39, 793.2342, 0.0373473, NaN, NaN, NaN, 0.0347922, "- N/A -   "
22.43, 794.654, 0.0374056, NaN, NaN, NaN, 0.0384545, "- N/A -   "
22.47, 796.309, 0.0374639, NaN, NaN, NaN, 0.04089605, "- N/A -   "
22.51, 797.847, 0.0375278, NaN, NaN, NaN, 0.04211683, "- N/A -   "
22.55, 799.6214, 0.0375917, NaN, NaN, NaN, 0.0433376, "- N/A -   "
22.59, 801.5138, 0.0376611, NaN, NaN, NaN, 0.04211683, "- N/A -   "
22.63, 803.5246, 0.03773328, NaN, NaN, NaN, 0.0396753, "- N/A -   "
22.67, 805.6537, 0.03781381, NaN, NaN, NaN, 0.0347922, "- N/A -   "
22.71, 807.5462, 0.037886, NaN, NaN, NaN, 0.0323506, "- N/A -   "
22.75, 809.2021, 0.0379499, NaN, NaN, NaN, 0.0323506, "- N/A -   "
22.79, 810.9763, 0.0380137, NaN, NaN, NaN, 0.0335714, "- N/A -   "
22.83, 812.514, 0.0380776, NaN, NaN, NaN, 0.0347922, "- N/A -   "
22.87, 814.406, 0.038147, NaN, NaN, NaN, 0.0335714, "- N/A -   "
22.91, 816.181, 0.0382192, NaN, NaN, NaN, 0.03112983, "- N/A -   "
22.95, 818.0732, 0.03828863, NaN, NaN, NaN, 0.03112983, "- N/A -   "
22.99, 819.729, 0.03834972, NaN, NaN, NaN, 0.0323506, "- N/A -   "
23.03, 821.5033, 0.0384164, NaN, NaN, NaN, 0.0335714, "- N/A -   "
23.07, 823.041, 0.03847467, NaN, NaN, NaN, 0.03601294, "- N/A -   "
23.11, 824.4603, 0.03853298, NaN, NaN, NaN, 0.04089605, "- N/A -   "
23.15, 826.1163, 0.0385913, NaN, NaN, NaN, 0.0433376, "- N/A -   "
23.19, 827.6539, 0.03865516, NaN, NaN, NaN, 0.0445584, "- N/A -   "
23.23, 829.4281, 0.038719, NaN, NaN, NaN, 0.04577916, "- N/A -   "
23.27, 831.4389, 0.03879122, NaN, NaN, NaN, 0.0433376, "- N/A -   "
23.31, 833.4497, 0.0388662, NaN, NaN, NaN, 0.0396753, "- N/A -   "
23.35, 835.2239, 0.0389384, NaN, NaN, NaN, 0.0372337, "- N/A -   "
23.39, 837.1164, 0.03900781, NaN, NaN, NaN, 0.03601294, "- N/A -   "
23.43, 839.0089, 0.03908, NaN, NaN, NaN, 0.0335714, "- N/A -   "
23.47, 840.9014, 0.0391522, NaN, NaN, NaN, 0.0323506, "- N/A -   "
23.51, 842.9121, 0.03922717, NaN, NaN, NaN, 0.0286883, "- N/A -   "
23.55, 844.8046, 0.0392938, NaN, NaN, NaN, 0.0274675, "- N/A -   "
23.59, 846.4606, 0.0393605, NaN, NaN, NaN, 0.0286883, "- N/A -   "
23.63, 847.9982, 0.03941877, NaN, NaN, NaN, 0.03112983, "- N/A -   "
23.67, 849.4176, 0.0394799, NaN, NaN, NaN, 0.0347922, "- N/A -   "
23.71, 851.0735, 0.0395409, NaN, NaN, NaN, 0.0372337, "- N/A -   "
23.75, 852.611, 0.03959926, NaN, NaN, NaN, 0.0396753, "- N/A -   "
23.79, 854.267, 0.0396603, NaN, NaN, NaN, 0.0433376, "- N/A -   "
23.83, 855.923, 0.03972421, NaN, NaN, NaN, 0.0433376, "- N/A -   "
23.87, 857.579, 0.0397881, NaN, NaN, NaN, 0.0445584, "- N/A -   "
23.91, 859.3532, 0.03985194, NaN, NaN, NaN, 0.04577916, "- N/A -   "
23.95, 861.1274, 0.03992136, NaN, NaN, NaN, 0.0445584, "- N/A -   "
23.99, 863.2565, 0.03999911, NaN, NaN, NaN, 0.04089605, "- N/A -   "
24.03, 865.2672, 0.04007686, NaN, NaN, NaN, 0.0347922, "- N/A -   "
24.07, 867.5146, 0.04015738, NaN, NaN, NaN, 0.0299091, "- N/A -   "
24.11, 869.5254, 0.0402296, NaN, NaN, NaN, 0.0262467, "- N/A -   "
24.15, 871.3, 0.04029622, NaN, NaN, NaN, 0.0262467, "- N/A -   "
24.19, 873.0738, 0.0403629, NaN, NaN, NaN, 0.0262467, "- N/A -   "
24.23, 874.6114, 0.040424, NaN, NaN, NaN, 0.0286883, "- N/A -   "
24.27, 876.3856, 0.040485, NaN, NaN, NaN, 0.03112983, "- N/A -   "
24.31, 877.805, 0.04054335, NaN, NaN, NaN, 0.0347922, "- N/A -   "
24.35, 879.4609, 0.0406072, NaN, NaN, NaN, 0.03601294, "- N/A -   "
24.39, 881.3534, 0.0406794, NaN, NaN, NaN, 0.0347922, "- N/A -   "
24.43, 882.8911, 0.0407405, NaN, NaN, NaN, 0.03601294, "- N/A -   "
24.47, 884.4287, 0.0407988, NaN, NaN, NaN, 0.0396753, "- N/A -   "
24.51, 886.203, 0.0408599, NaN, NaN, NaN, 0.04211683, "- N/A -   "
24.55, 887.8589, 0.04092932, NaN, NaN, NaN, 0.04211683, "- N/A -   "
24.59, 889.751, 0.040996, NaN, NaN, NaN, 0.04089605, "- N/A -   "
24.63, 891.762, 0.0410709, NaN, NaN, NaN, 0.0384545, "- N/A -   "
24.67, 893.655, 0.0411404, NaN, NaN, NaN, 0.03601294, "- N/A -   "
24.71, 895.429, 0.0412042, NaN, NaN, NaN, 0.0372337, "- N/A -   "
24.75, 897.321, 0.0412764, NaN, NaN, NaN, 0.0347922, "- N/A -   "
24.79, 899.0956, 0.0413431, NaN, NaN, NaN, 0.0347922, "- N/A -   "
24.83, 900.751, 0.0414097, NaN, NaN, NaN, 0.03601294, "- N/A -   "
24.87, 902.5257, 0.0414736, NaN, NaN, NaN, 0.0372337, "- N/A -   "
24.91, 904.063, 0.0415347, NaN, NaN, NaN, 0.0384545, "- N/A -   "
24.95, 905.9558, 0.04160685, NaN, NaN, NaN, 0.0372337, "- N/A -   "
24.99, 908.0849, 0.0416846, NaN, NaN, NaN, 0.0323506, "- N/A -   "
25.03, 909.741, 0.04174569, NaN, NaN, NaN, 0.0335714, "- N/A -   "
25.07, 911.5151, 0.04180955, NaN, NaN, NaN, 0.0347922, "- N/A -   "
25.11, 913.0527, 0.0418679, NaN, NaN, NaN, 0.0384545, "- N/A -   "
25.15, 914.7086, 0.0419317, NaN, NaN, NaN, 0.04089605, "- N/A -   "
25.19, 916.483, 0.04199837, NaN, NaN, NaN, 0.0396753, "- N/A -   "
25.23, 918.3753, 0.0420678, NaN, NaN, NaN, 0.0396753, "- N/A -   "
25.27, 920.15, 0.04213443, NaN, NaN, NaN, 0.0384545, "- N/A -   "
25.31, 922.042, 0.0422066, NaN, NaN, NaN, 0.03601294, "- N/A -   "
25.35, 923.9345, 0.042276, NaN, NaN, NaN, 0.03601294, "- N/A -   "
25.39, 925.59, 0.04233991, NaN, NaN, NaN, 0.03601294, "- N/A -   "
25.43, 927.483, 0.0424093, NaN, NaN, NaN, 0.0347922, "- N/A -   "
25.47, 929.257, 0.0424787, NaN, NaN, NaN, 0.0335714, "- N/A -   "
25.51, 931.15, 0.04254817, NaN, NaN, NaN, 0.0335714, "- N/A -   "
25.55, 933.16, 0.0426176, NaN, NaN, NaN, 0.03112983, "- N/A -   "
25.59, 934.9347, 0.0426842, NaN, NaN, NaN, 0.03112983, "- N/A -   "
25.63, 936.709, 0.04275087, NaN, NaN, NaN, 0.03112983, "- N/A -   "
25.67, 938.3648, 0.04281751, NaN, NaN, NaN, 0.03112983, "- N/A -   "
25.71, 940.021, 0.0428842, NaN, NaN, NaN, 0.0323506, "- N/A -   "
25.75, 941.7949, 0.04294802, NaN, NaN, NaN, 0.0335714, "- N/A -   "
25.79, 943.687, 0.04301466, NaN, NaN, NaN, 0.0335714, "- N/A -   "
25.83, 945.2251, 0.043073, NaN, NaN, NaN, 0.0372337, "- N/A -   "
25.87, 946.6445, 0.0431313, NaN, NaN, NaN, 0.04089605, "- N/A -   "
25.91, 948.4187, 0.04319515, NaN, NaN, NaN, 0.04211683, "- N/A -   "
25.95, 949.9563, 0.043259, NaN, NaN, NaN, 0.0433376, "- N/A -   "
25.99, 951.7305, 0.0433201, NaN, NaN, NaN, 0.04577916, "- N/A -   "
26.03, 953.623, 0.04338952, NaN, NaN, NaN, 0.0445584, "- N/A -   "
26.07, 955.5155, 0.0434617, NaN, NaN, NaN, 0.04211683, "- N/A -   "
26.11, 957.7628, 0.04353947, NaN, NaN, NaN, 0.0372337, "- N/A -   "
26.15, 959.655, 0.0436117, NaN, NaN, NaN, 0.0347922, "- N/A -   "
26.19, 961.666, 0.04368108, NaN, NaN, NaN, 0.0335714, "- N/A -   "
26.23, 963.204, 0.0437449, NaN, NaN, NaN, 0.0347922, "- N/A -   "
26.27, 964.8597, 0.0438088, NaN, NaN, NaN, 0.03601294, "- N/A -   "
26.31, 966.9888, 0.04388656, NaN, NaN, NaN, 0.03112983, "- N/A -   "
26.35, 968.9996, 0.0439615, NaN, NaN, NaN, 0.0274675, "- N/A -   "
26.39, 970.655, 0.0440254, NaN, NaN, NaN, 0.0286883, "- N/A -   "
26.43, 972.3114, 0.04408371, NaN, NaN, NaN, 0.0323506, "- N/A -   "
26.47, 973.6124, 0.0441392, NaN, NaN, NaN, 0.0372337, "- N/A -   "
26.51, 975.032, 0.04419756, NaN, NaN, NaN, 0.04211683, "- N/A -   "
26.55, 976.6878, 0.0442559, NaN, NaN, NaN, 0.0445584, "- N/A -   "
26.59, 978.2254, 0.04431696, NaN, NaN, NaN, 0.04699994, "- N/A -   "
26.63, 980, 0.04437805, NaN, NaN, NaN, 0.0494415, "- N/A -   "
26.67, 981.892, 0.0444502, NaN, NaN, NaN, 0.0482207, "- N/A -   "
26.71, 984.0212, 0.04452799, NaN, NaN, NaN, 0.04211683, "- N/A -   "
26.75, 986.1502, 0.04460574, NaN, NaN, NaN, 0.0384545, "- N/A -   "
26.79, 988.2793, 0.0446807, NaN, NaN, NaN, 0.0347922, "- N/A -   "
26.83, 990.0535, 0.04475013, NaN, NaN, NaN, 0.0323506, "- N/A -   "
26.87, 992.064, 0.0448196, NaN, NaN, NaN, 0.03112983, "- N/A -   "
26.91, 993.9568, 0.04489175, NaN, NaN, NaN, 0.0286883, "- N/A -   "
26.95, 995.8493, 0.04496394, NaN, NaN, NaN, 0.0274675, "- N/A -   "
26.99, 997.624, 0.0450278, NaN, NaN, NaN, 0.0274675, "- N/A -   "
27.03, 999.2794, 0.04509167, NaN, NaN, NaN, 0.0286883, "- N/A -   "
27.07, 1000.94, 0.0451555, NaN, NaN, NaN, 0.03112983, "- N/A -   "
27.11, 1002.24, 0.0452083, NaN, NaN, NaN, 0.03601294, "- N/A -   "
27.15, 1003.77, 0.04526383, NaN, NaN, NaN, 0.04089605, "- N/A -   "
27.19, 1005.19, 0.0453221, NaN, NaN, NaN, 0.0445584, "- N/A -   "
27.23, 1007.09, 0.0453888, NaN, NaN, NaN, 0.04577916, "- N/A -   "
27.27, 1008.86, 0.0454554, NaN, NaN, NaN, 0.0445584, "- N/A -   "
27.31, 1010.75, 0.0455248, NaN, NaN, NaN, 0.0445584, "- N/A -   "
27.35, 1012.41, 0.0455887, NaN, NaN, NaN, 0.0445584, "- N/A -   "
27.39, 1014.31, 0.04565813, NaN, NaN, NaN, 0.0445584, "- N/A -   "
27.43, 1016.34, 0.0457303, NaN, NaN, NaN, 0.04211683, "- N/A -   "
27.47, 1018.6, 0.0458109, NaN, NaN, NaN, 0.0347922, "- N/A -   "
27.51, 1020.87, 0.0458886, NaN, NaN, NaN, 0.0299091, "- N/A -   "
27.55, 1022.78, 0.04595802, NaN, NaN, NaN, 0.0286883, "- N/A -   "
27.59, 1024.57, 0.04602466, NaN, NaN, NaN, 0.0286883, "- N/A -   "
27.63, 1026.24, 0.0460885, NaN, NaN, NaN, 0.03112983, "- N/A -   "
27.67, 1027.91, 0.0461468, NaN, NaN, NaN, 0.0335714, "- N/A -   "
27.71, 1029.576, 0.0462135, NaN, NaN, NaN, 0.0335714, "- N/A -   "
27.75, 1031.36, 0.04627457, NaN, NaN, NaN, 0.03601294, "- N/A -   "
27.79, 1033.03, 0.04633843, NaN, NaN, NaN, 0.0372337, "- N/A -   "
27.83, 1034.82, 0.0464023, NaN, NaN, NaN, 0.0384545, "- N/A -   "
27.87, 1036.37, 0.0464634, NaN, NaN, NaN, 0.04089605, "- N/A -   "
27.91, 1038.04, 0.0465245, NaN, NaN, NaN, 0.0433376, "- N/A -   "
27.95, 1039.95, 0.0465911, NaN, NaN, NaN, 0.0445584, "- N/A -   "
27.99, 1041.74, 0.046655, NaN, NaN, NaN, 0.0445584, "- N/A -   "
28.03, 1043.65, 0.0467244, NaN, NaN, NaN, 0.0433376, "- N/A -   "
28.07, 1045.79, 0.0468049, NaN, NaN, NaN, 0.0372337, "- N/A -   "
28.11, 1048.06, 0.0468827, NaN, NaN, NaN, 0.0323506, "- N/A -   "
28.15, 1049.97, 0.0469549, NaN, NaN, NaN, 0.03112983, "- N/A -   "
28.19, 1051.64, 0.0470187, NaN, NaN, NaN, 0.0323506, "- N/A -   "
28.23, 1053.43, 0.0470826, NaN, NaN, NaN, 0.0323506, "- N/A -   "
28.27, 1055.096, 0.04714647, NaN, NaN, NaN, 0.0335714, "- N/A -   "
28.31, 1056.77, 0.0472076, NaN, NaN, NaN, 0.03601294, "- N/A -   "
28.35, 1058.67, 0.047277, NaN, NaN, NaN, 0.0347922, "- N/A -   "
28.39, 1060.7, 0.0473464, NaN, NaN, NaN, 0.0335714, "- N/A -   "
28.43, 1062.49, 0.0474158, NaN, NaN, NaN, 0.0323506, "- N/A -   "
28.47, 1064.4, 0.0474825, NaN, NaN, NaN, 0.0335714, "- N/A -   "
28.51, 1065.83, 0.04753799, NaN, NaN, NaN, 0.0372337, "- N/A -   "
28.55, 1067.26, 0.0475963, NaN, NaN, NaN, 0.04089605, "- N/A -   "
28.59, 1069.17, 0.0476657, NaN, NaN, NaN, 0.04089605, "- N/A -   "
28.63, 1071.08, 0.0477324, NaN, NaN, NaN, 0.0396753, "- N/A -   "
28.67, 1072.75, 0.0477962, NaN, NaN, NaN, 0.04089605, "- N/A -   "
28.71, 1074.534, 0.0478656, NaN, NaN, NaN, 0.04089605, "- N/A -   "
28.75, 1076.68, 0.04793784, NaN, NaN, NaN, 0.0372337, "- N/A -   "
28.79, 1078.47, 0.04800171, NaN, NaN, NaN, 0.0384545, "- N/A -   "
28.83, 1080.02, 0.0480656, NaN, NaN, NaN, 0.0396753, "- N/A -   "
28.87, 1081.81, 0.0481322, NaN, NaN, NaN, 0.04089605, "- N/A -   "
28.91, 1083.72, 0.04820163, NaN, NaN, NaN, 0.0396753, "- N/A -   "
28.95, 1085.863, 0.0482766, NaN, NaN, NaN, 0.03601294, "- N/A -   "
28.99, 1087.65, 0.048346, NaN, NaN, NaN, 0.0347922, "- N/A -   "
29.03, 1089.44, 0.04841267, NaN, NaN, NaN, 0.0335714, "- N/A -   "
29.07, 1091.35, 0.04847931, NaN, NaN, NaN, 0.0335714, "- N/A -   "
29.11, 1093.14, 0.04854873, NaN, NaN, NaN, 0.0323506, "- N/A -   "
29.15, 1095.05, 0.0486181, NaN, NaN, NaN, 0.03112983, "- N/A -   "
29.19, 1096.83, 0.0486848, NaN, NaN, NaN, 0.03112983, "- N/A -   "
29.23, 1098.38, 0.0487431, NaN, NaN, NaN, 0.0347922, "- N/A -   "
29.27, 1099.93, 0.04880419, NaN, NaN, NaN, 0.0372337, "- N/A -   "
29.31, 1101.6, 0.0488681, NaN, NaN, NaN, 0.0384545, "- N/A -   "
29.35, 1103.27, 0.0489291, NaN, NaN, NaN, 0.04211683, "- N/A -   "
29.39, 1105.06, 0.04899301, NaN, NaN, NaN, 0.0433376, "- N/A -   "
29.43, 1106.97, 0.0490596, NaN, NaN, NaN, 0.04211683, "- N/A -   "
29.47, 1108.88, 0.0491318, NaN, NaN, NaN, 0.0396753, "- N/A -   "
29.51, 1111.14, 0.0492124, NaN, NaN, NaN, 0.0335714, "- N/A -   "
29.55, 1113.17, 0.04928179, NaN, NaN, NaN, 0.0323506, "- N/A -   "
29.59, 1114.84, 0.0493484, NaN, NaN, NaN, 0.0323506, "- N/A -   "
29.63, 1116.75, 0.04942063, NaN, NaN, NaN, 0.03112983, "- N/A -   "
29.67, 1118.3, 0.0494817, NaN, NaN, NaN, 0.0323506, "- N/A -   "
29.71, 1120.21, 0.04954836, NaN, NaN, NaN, 0.0323506, "- N/A -   "
29.75, 1122.354, 0.0496261, NaN, NaN, NaN, 0.0274675, "- N/A -   "
29.79, 1124.02, 0.04969275, NaN, NaN, NaN, 0.0286883, "- N/A -   "
29.83, 1125.69, 0.0497566, NaN, NaN, NaN, 0.0286883, "- N/A -   "
29.87, 1127.36, 0.04981493, NaN, NaN, NaN, 0.0323506, "- N/A -   "
29.91, 1128.67, 0.0498705, NaN, NaN, NaN, 0.0384545, "- N/A -   "
29.95, 1130.22, 0.049926, NaN, NaN, NaN, 0.0433376, "- N/A -   "
29.99, 1131.66, 0.0499871, NaN, NaN, NaN, 0.0445584, "- N/A -   "
30.03, 1133.56, 0.0500509, NaN, NaN, NaN, 0.04577916, "- N/A -   "
30.07, 1135.35, 0.0501176, NaN, NaN, NaN, 0.04577916, "- N/A -   "
30.11, 1137.62, 0.05019812, NaN, NaN, NaN, 0.04089605, "- N/A -   "
30.142, 1139.29, 0.050262, NaN, NaN, NaN, 0.03601294, "- N/A -   "