File: 2_Tensile_Data/Hamel_ForceTest_Bolt3_Test4.csv
Time, Load (lb), Position (in), AxialStrain (in), TransverseStrain (in), Auxiliary (), Control Out (V), Stress (psi)
0.0, 1.06153, 0.0, NaN, NaN, NaN, 0.09338949, "- N/A -   "
0.01, 1.41537, 2.49908e-05, NaN, NaN, NaN, 0.100714, "- N/A -   "
0.02, 1.88716, 5.5535e-05, NaN, NaN, NaN, 0.105597, "- N/A -   "
0.03, 2.35895, 8.33026e-05, NaN, NaN, NaN, 0.100714, "- N/A -   "
0.04, 2.712792, 0.00011107, NaN, NaN, NaN, 0.095831, "- N/A -   "
0.05, 3.06663, 0.000136061, NaN, NaN, NaN, 0.09216871, "- N/A -   "
0.06, 3.53842, 1.554981E-4, NaN, NaN, NaN, 0.0897272, "- N/A -   "
0.07, 3.774319, 0.000180489, NaN, NaN, NaN, 0.08606482, "- N/A -   "
0.08, 4.12816, 0.000202703, NaN, NaN, NaN, 0.084844, "- N/A -   "
0.09, 4.482, 0.000224917, NaN, NaN, NaN, 0.08240249, "- N/A -   "
0.1, 4.953794, 2.471309E-4, NaN, NaN, NaN, 0.0799609, "- N/A -   "
0.11, 5.18969, 0.000266568, NaN, NaN, NaN, 0.07751938, "- N/A -   "
0.12, 5.66148, 0.000288782, NaN, NaN, NaN, 0.0750778, "- N/A -   "
0.13, 5.897373, 3.109962E-4, NaN, NaN, NaN, 0.07263627, "- N/A -   "
0.14, 6.251216, 0.000335987, NaN, NaN, NaN, 0.0689739, "- N/A -   "
0.15, 6.723006, 0.000358201, NaN, NaN, NaN, 0.06653238, "- N/A -   "
0.16, 7.07685, 3.859685E-4, NaN, NaN, NaN, 0.06287005, "- N/A -   "
0.17, 7.430691, 4.081825E-4, NaN, NaN, NaN, 0.0604285, "- N/A -   "
0.18, 7.90248, 0.000430397, NaN, NaN, NaN, 0.05676616, "- N/A -   "
0.19, 8.138375, 0.000449834, NaN, NaN, NaN, 0.0555454, "- N/A -   "
0.2, 8.610166, 0.000474825, NaN, NaN, NaN, 0.05188305, "- N/A -   "
0.21, 8.964007, 4.970386E-4, NaN, NaN, NaN, 0.0494415, "- N/A -   "
0.22, 9.435798, 0.000522029, NaN, NaN, NaN, 0.04699994, "- N/A -   "
0.23, 9.671693, 5.414666E-4, NaN, NaN, NaN, 0.0445584, "- N/A -   "
0.24, 10.0255, 5.636806E-4, NaN, NaN, NaN, 0.04211683, "- N/A -   "
0.25, 10.3794, 5.858946E-4, NaN, NaN, NaN, 0.04089605, "- N/A -   "
0.26, 10.73322, 6.053319E-4, NaN, NaN, NaN, 0.0396753, "- N/A -   "
0.27, 10.9691, 0.000624769, NaN, NaN, NaN, 0.0384545, "- N/A -   "
0.28, 11.323, 6.414297E-4, NaN, NaN, NaN, 0.0372337, "- N/A -   "
0.29, 11.6768, 0.00065809, NaN, NaN, NaN, 0.0372337, "- N/A -   "
0.3, 11.9127, 6.747507E-4, NaN, NaN, NaN, 0.0372337, "- N/A -   "
0.31, 12.14859, 6.914112E-4, NaN, NaN, NaN, 0.0372337, "- N/A -   "
0.32, 12.3845, 7.108485E-4, NaN, NaN, NaN, 0.0372337, "- N/A -   "
0.33, 12.7383, 7.27509E-4, NaN, NaN, NaN, 0.03601294, "- N/A -   "
0.34, 13.09217, 0.000744169, NaN, NaN, NaN, 0.03601294, "- N/A -   "
0.35, 13.3281, 0.000763607, NaN, NaN, NaN, 0.0347922, "- N/A -   "
0.36, 13.6819, 0.000780267, NaN, NaN, NaN, 0.0347922, "- N/A -   "
0.37, 13.9178, 7.997045E-4, NaN, NaN, NaN, 0.0347922, "- N/A -   "
0.38, 14.1537, 8.191418E-4, NaN, NaN, NaN, 0.0335714, "- N/A -   "
0.39, 14.5075, 8.358023E-4, NaN, NaN, NaN, 0.0323506, "- N/A -   "
0.4, 14.8614, 8.524628E-4, NaN, NaN, NaN, 0.0323506, "- N/A -   "
0.41, 15.0973, 0.0008719, NaN, NaN, NaN, 0.0323506, "- N/A -   "
0.43, 15.687, 9.052211E-4, NaN, NaN, NaN, 0.03112983, "- N/A -   "
0.45, 16.27675, 0.000941319, NaN, NaN, NaN, 0.0299091, "- N/A -   "
0.47, 16.74854, 9.774166E-4, NaN, NaN, NaN, 0.0299091, "- N/A -   "
0.49, 17.3383, 0.00100796, NaN, NaN, NaN, 0.0299091, "- N/A -   "
0.51, 17.8101, 0.00103851, NaN, NaN, NaN, 0.03112983, "- N/A -   "
0.53, 18.2819, 0.00106627, NaN, NaN, NaN, 0.0335714, "- N/A -   "
0.55, 18.6357, 0.001096817, NaN, NaN, NaN, 0.03601294, "- N/A -   "
0.57, 19.2254, 0.00112458, NaN, NaN, NaN, 0.0372337, "- N/A -   "
0.59, 19.6972, 0.001152352, NaN, NaN, NaN, 0.0396753, "- N/A -   "
0.61, 20.05107, 0.0011829, NaN, NaN, NaN, 0.04089605, "- N/A -   "
0.63, 20.52286, 0.00121344, NaN, NaN, NaN, 0.04211683, "- N/A -   "
0.65, 20.99465, 0.00124398, NaN, NaN, NaN, 0.0433376, "- N/A -   "
0.67, 21.5844, 0.001274529, NaN, NaN, NaN, 0.0445584, "- N/A -   "
0.69, 22.1741, 0.00130785, NaN, NaN, NaN, 0.04577916, "- N/A -   "
0.71, 22.6459, 0.00134117, NaN, NaN, NaN, 0.0445584, "- N/A -   "
0.73, 23.3536, 0.00137449, NaN, NaN, NaN, 0.0445584, "- N/A -   "
0.75, 23.7074, 0.00140781, NaN, NaN, NaN, 0.0445584, "- N/A -   "
0.77, 24.1792, 0.00143836, NaN, NaN, NaN, 0.04577916, "- N/A -   "
0.79, 24.8869, 0.00147168, NaN, NaN, NaN, 0.04577916, "- N/A -   "
0.81, 25.3587, 0.00150778, NaN, NaN, NaN, 0.0445584, "- N/A -   "
0.83, 25.9484, 0.001543874, NaN, NaN, NaN, 0.0433376, "- N/A -   "
0.85, 26.5382, 0.00157997, NaN, NaN, NaN, 0.0433376, "- N/A -   "
0.87, 27.1279, 0.00161607, NaN, NaN, NaN, 0.04089605, "- N/A -   "
0.89, 27.8356, 0.001654944, NaN, NaN, NaN, 0.0384545, "- N/A -   "
0.91, 28.54329, 0.00169382, NaN, NaN, NaN, 0.03601294, "- N/A -   "
0.93, 29.133, 0.00173547, NaN, NaN, NaN, 0.0335714, "- N/A -   "
0.95, 29.84071, 0.00177434, NaN, NaN, NaN, 0.03112983, "- N/A -   "
0.97, 30.4304, 0.00181044, NaN, NaN, NaN, 0.0286883, "- N/A -   "
0.99, 30.9022, 0.00184376, NaN, NaN, NaN, 0.0299091, "- N/A -   "
1.01, 31.492, 0.00187708, NaN, NaN, NaN, 0.0299091, "- N/A -   "
1.03, 32.08171, 0.00191041, NaN, NaN, NaN, 0.0299091, "- N/A -   "
1.05, 32.67145, 0.00194373, NaN, NaN, NaN, 0.0299091, "- N/A -   "
1.07, 33.02529, 0.00197149, NaN, NaN, NaN, 0.0323506, "- N/A -   "
1.09, 33.49708, 0.002002038, NaN, NaN, NaN, 0.0323506, "- N/A -   "
1.11, 34.3227, 0.002038136, NaN, NaN, NaN, 0.0323506, "- N/A -   "
1.13, 34.7945, 0.00206868, NaN, NaN, NaN, 0.0323506, "- N/A -   "
1.15, 35.3842, 0.00209922, NaN, NaN, NaN, 0.0335714, "- N/A -   "
1.17, 35.97398, 0.00212977, NaN, NaN, NaN, 0.0347922, "- N/A -   "
1.19, 36.44577, 0.00216309, NaN, NaN, NaN, 0.0347922, "- N/A -   "
1.21, 36.9176, 0.002193634, NaN, NaN, NaN, 0.0372337, "- N/A -   "
1.23, 37.3893, 0.00222418, NaN, NaN, NaN, 0.0372337, "- N/A -   "
1.25, 38.097, 0.00225472, NaN, NaN, NaN, 0.0384545, "- N/A -   "
1.27, 38.68677, 0.00229082, NaN, NaN, NaN, 0.0384545, "- N/A -   "
1.29, 39.15856, 0.00232414, NaN, NaN, NaN, 0.0372337, "- N/A -   "
1.31, 39.8662, 0.00235469, NaN, NaN, NaN, 0.0384545, "- N/A -   "
1.33, 40.22009, 0.00238523, NaN, NaN, NaN, 0.0396753, "- N/A -   "
1.35, 40.69188, 0.002413, NaN, NaN, NaN, 0.04211683, "- N/A -   "
1.37, 41.16367, 0.00244354, NaN, NaN, NaN, 0.0433376, "- N/A -   "
1.39, 41.7534, 0.00247131, NaN, NaN, NaN, 0.04577916, "- N/A -   "
1.41, 42.3431, 0.002507407, NaN, NaN, NaN, 0.04577916, "- N/A -   "
1.43, 42.93288, 0.002537951, NaN, NaN, NaN, 0.04577916, "- N/A -   "
1.45, 43.5226, 0.00257127, NaN, NaN, NaN, 0.04699994, "- N/A -   "
1.47, 44.2303, 0.00260737, NaN, NaN, NaN, 0.0445584, "- N/A -   "
1.49, 44.93799, 0.00264624, NaN, NaN, NaN, 0.04211683, "- N/A -   "
1.51, 45.6457, 0.00268512, NaN, NaN, NaN, 0.0396753, "- N/A -   "
1.53, 46.4713, 0.00272399, NaN, NaN, NaN, 0.0372337, "- N/A -   "
1.55, 47.179, 0.00276564, NaN, NaN, NaN, 0.0335714, "- N/A -   "
1.57, 47.7687, 0.00280452, NaN, NaN, NaN, 0.03112983, "- N/A -   "
1.59, 48.47641, 0.00283784, NaN, NaN, NaN, 0.03112983, "- N/A -   "
1.61, 49.1841, 0.00287394, NaN, NaN, NaN, 0.0299091, "- N/A -   "
1.63, 49.7738, 0.002910036, NaN, NaN, NaN, 0.0286883, "- N/A -   "
1.65, 50.3636, 0.002943357, NaN, NaN, NaN, 0.0286883, "- N/A -   "
1.67, 50.9533, 0.0029739, NaN, NaN, NaN, 0.0299091, "- N/A -   "
1.69, 51.4251, 0.00300445, NaN, NaN, NaN, 0.03112983, "- N/A -   "
1.71, 51.89689, 0.003032213, NaN, NaN, NaN, 0.0335714, "- N/A -   "
1.73, 52.48662, 0.00306276, NaN, NaN, NaN, 0.0347922, "- N/A -   "
1.75, 53.19431, 0.00309608, NaN, NaN, NaN, 0.03601294, "- N/A -   "
1.77, 53.6661, 0.003123846, NaN, NaN, NaN, 0.0372337, "- N/A -   "
1.79, 54.2558, 0.00315994, NaN, NaN, NaN, 0.03601294, "- N/A -   "
1.81, 54.9635, 0.00319604, NaN, NaN, NaN, 0.0347922, "- N/A -   "
1.83, 55.6712, 0.00323214, NaN, NaN, NaN, 0.0335714, "- N/A -   "
1.85, 56.37889, 0.00327101, NaN, NaN, NaN, 0.0323506, "- N/A -   "
1.87, 56.9686, 0.00330433, NaN, NaN, NaN, 0.03112983, "- N/A -   "
1.89, 57.5584, 0.00333766, NaN, NaN, NaN, 0.0323506, "- N/A -   "
1.91, 58.1481, 0.0033682, NaN, NaN, NaN, 0.0323506, "- N/A -   "
1.93, 58.6199, 0.00339874, NaN, NaN, NaN, 0.0335714, "- N/A -   "
1.95, 59.2096, 0.00342651, NaN, NaN, NaN, 0.03601294, "- N/A -   "
1.97, 59.5635, 0.00345428, NaN, NaN, NaN, 0.0384545, "- N/A -   "
1.99, 60.0353, 0.00348482, NaN, NaN, NaN, 0.0396753, "- N/A -   "
2.01, 60.625, 0.00351537, NaN, NaN, NaN, 0.04211683, "- N/A -   "
2.03, 61.2147, 0.00354869, NaN, NaN, NaN, 0.04211683, "- N/A -   "
2.05, 61.9224, 0.00358201, NaN, NaN, NaN, 0.04211683, "- N/A -   "
2.07, 62.6301, 0.003615331, NaN, NaN, NaN, 0.04089605, "- N/A -   "
2.09, 63.2198, 0.00365143, NaN, NaN, NaN, 0.0396753, "- N/A -   "
2.11, 63.80958, 0.00368475, NaN, NaN, NaN, 0.04089605, "- N/A -   "
2.13, 64.3993, 0.003718071, NaN, NaN, NaN, 0.04089605, "- N/A -   "
2.15, 64.98906, 0.00375139, NaN, NaN, NaN, 0.0396753, "- N/A -   "
2.17, 65.81469, 0.00378749, NaN, NaN, NaN, 0.0384545, "- N/A -   "
2.19, 66.40443, 0.00382081, NaN, NaN, NaN, 0.0384545, "- N/A -   "
2.21, 66.99416, 0.00385413, NaN, NaN, NaN, 0.0384545, "- N/A -   "
2.23, 67.5839, 0.00389023, NaN, NaN, NaN, 0.0384545, "- N/A -   "
2.25, 68.17364, 0.00392077, NaN, NaN, NaN, 0.0384545, "- N/A -   "
2.27, 68.7634, 0.00395687, NaN, NaN, NaN, 0.0372337, "- N/A -   "
2.29, 69.35311, 0.00399019, NaN, NaN, NaN, 0.0372337, "- N/A -   "
2.31, 69.94285, 0.00402351, NaN, NaN, NaN, 0.0372337, "- N/A -   "
2.33, 70.6505, 0.00405683, NaN, NaN, NaN, 0.0372337, "- N/A -   "
2.35, 71.24027, 0.004092932, NaN, NaN, NaN, 0.0372337, "- N/A -   "
2.37, 71.94796, 0.00412903, NaN, NaN, NaN, 0.0347922, "- N/A -   "
2.39, 72.5377, 0.004165128, NaN, NaN, NaN, 0.0335714, "- N/A -   "
2.41, 73.2454, 0.00419845, NaN, NaN, NaN, 0.0335714, "- N/A -   "
2.43, 73.83511, 0.00423177, NaN, NaN, NaN, 0.0335714, "- N/A -   "
2.45, 74.3069, 0.004265091, NaN, NaN, NaN, 0.0335714, "- N/A -   "
2.47, 74.8966, 0.00430119, NaN, NaN, NaN, 0.0335714, "- N/A -   "
2.49, 75.6043, 0.00433451, NaN, NaN, NaN, 0.0323506, "- N/A -   "
2.51, 76.19407, 0.00436783, NaN, NaN, NaN, 0.0323506, "- N/A -   "
2.53, 76.7838, 0.00440115, NaN, NaN, NaN, 0.0323506, "- N/A -   "
2.55, 77.25559, 0.0044317, NaN, NaN, NaN, 0.0335714, "- N/A -   "
2.57, 77.84533, 0.00446779, NaN, NaN, NaN, 0.0323506, "- N/A -   "
2.59, 78.55301, 0.00450111, NaN, NaN, NaN, 0.0323506, "- N/A -   "
2.61, 79.14275, 0.004534436, NaN, NaN, NaN, 0.0323506, "- N/A -   "
2.63, 79.73249, 0.004567757, NaN, NaN, NaN, 0.0323506, "- N/A -   "
2.65, 80.0863, 0.004601078, NaN, NaN, NaN, 0.0335714, "- N/A -   "
2.67, 80.67606, 0.004631622, NaN, NaN, NaN, 0.0335714, "- N/A -   "
2.69, 81.26581, 0.00466217, NaN, NaN, NaN, 0.0347922, "- N/A -   "
2.71, 81.7376, 0.00468993, NaN, NaN, NaN, 0.0372337, "- N/A -   "
2.73, 82.20939, 0.004720478, NaN, NaN, NaN, 0.0384545, "- N/A -   "
2.75, 82.79912, 0.004753799, NaN, NaN, NaN, 0.0384545, "- N/A -   "
2.77, 83.38886, 0.00478434, NaN, NaN, NaN, 0.0396753, "- N/A -   "
2.79, 83.74271, 0.004812111, NaN, NaN, NaN, 0.04211683, "- N/A -   "
2.81, 84.21449, 0.004845432, NaN, NaN, NaN, 0.0433376, "- N/A -   "
2.83, 84.80424, 0.004875976, NaN, NaN, NaN, 0.0433376, "- N/A -   "
2.85, 85.39397, 0.004909297, NaN, NaN, NaN, 0.0433376, "- N/A -   "
2.87, 85.9837, 0.004945395, NaN, NaN, NaN, 0.0433376, "- N/A -   "
2.89, 86.57345, 0.004978716, NaN, NaN, NaN, 0.0433376, "- N/A -   "
2.91, 87.04523, 0.005012037, NaN, NaN, NaN, 0.04211683, "- N/A -   "
2.93, 87.75292, 0.00505091, NaN, NaN, NaN, 0.04089605, "- N/A -   "
2.95, 88.4606, 0.00508979, NaN, NaN, NaN, 0.0372337, "- N/A -   "
2.97, 89.05035, 0.00513144, NaN, NaN, NaN, 0.0347922, "- N/A -   "
2.99, 89.6401, 0.005167535, NaN, NaN, NaN, 0.0323506, "- N/A -   "
3.01, 90.11186, 0.005203633, NaN, NaN, NaN, 0.0323506, "- N/A -   "
3.03, 90.70161, 0.00523695, NaN, NaN, NaN, 0.03112983, "- N/A -   "
3.05, 91.1734, 0.00527028, NaN, NaN, NaN, 0.03112983, "- N/A -   "
3.07, 91.64519, 0.005303596, NaN, NaN, NaN, 0.03112983, "- N/A -   "
3.09, 92.23492, 0.00533414, NaN, NaN, NaN, 0.0323506, "- N/A -   "
3.11, 92.70671, 0.00536746, NaN, NaN, NaN, 0.0335714, "- N/A -   "
3.13, 93.0606, 0.00539523, NaN, NaN, NaN, 0.0347922, "- N/A -   "
3.15, 93.65029, 0.00543133, NaN, NaN, NaN, 0.0347922, "- N/A -   "
3.17, 94.24, 0.00546742, NaN, NaN, NaN, 0.0323506, "- N/A -   "
3.19, 94.9477, 0.00550908, NaN, NaN, NaN, 0.0299091, "- N/A -   "
3.21, 95.5374, 0.00554517, NaN, NaN, NaN, 0.0274675, "- N/A -   "
3.23, 96.00924, 0.00557849, NaN, NaN, NaN, 0.0274675, "- N/A -   "
3.25, 96.599, 0.00561182, NaN, NaN, NaN, 0.0274675, "- N/A -   "
3.27, 96.95282, 0.00564514, NaN, NaN, NaN, 0.0286883, "- N/A -   "
3.29, 97.4246, 0.0056729, NaN, NaN, NaN, 0.0299091, "- N/A -   "
3.31, 97.8964, 0.00570067, NaN, NaN, NaN, 0.0323506, "- N/A -   "
3.33, 98.2502, 0.005728439, NaN, NaN, NaN, 0.0347922, "- N/A -   "
3.35, 98.72203, 0.005756207, NaN, NaN, NaN, 0.0372337, "- N/A -   "
3.37, 99.0759, 0.00578397, NaN, NaN, NaN, 0.04089605, "- N/A -   "
3.39, 99.54767, 0.005814519, NaN, NaN, NaN, 0.04211683, "- N/A -   "
3.41, 100.019, 0.00584229, NaN, NaN, NaN, 0.0445584, "- N/A -   "
3.43, 100.491, 0.00587283, NaN, NaN, NaN, 0.0445584, "- N/A -   "
3.45, 100.963, 0.00590337, NaN, NaN, NaN, 0.04577916, "- N/A -   "
3.47, 101.435, 0.0059367, NaN, NaN, NaN, 0.04699994, "- N/A -   "
3.49, 102.025, 0.00597002, NaN, NaN, NaN, 0.04699994, "- N/A -   "
3.51, 102.6143, 0.006003338, NaN, NaN, NaN, 0.04577916, "- N/A -   "
3.53, 103.086, 0.006042212, NaN, NaN, NaN, 0.04577916, "- N/A -   "
3.55, 103.794, 0.00608109, NaN, NaN, NaN, 0.04211683, "- N/A -   "
3.57, 104.384, 0.006119961, NaN, NaN, NaN, 0.0396753, "- N/A -   "
3.59, 104.973, 0.006156059, NaN, NaN, NaN, 0.0384545, "- N/A -   "
3.61, 105.563, 0.00618938, NaN, NaN, NaN, 0.0384545, "- N/A -   "
3.63, 106.153, 0.006225478, NaN, NaN, NaN, 0.0384545, "- N/A -   "
3.65, 106.625, 0.006261575, NaN, NaN, NaN, 0.0372337, "- N/A -   "
3.67, 107.214, 0.0062949, NaN, NaN, NaN, 0.0372337, "- N/A -   "
3.69, 107.804, 0.006325441, NaN, NaN, NaN, 0.0372337, "- N/A -   "
3.71, 108.158, 0.006358762, NaN, NaN, NaN, 0.0372337, "- N/A -   "
3.73, 108.748, 0.00639486, NaN, NaN, NaN, 0.03601294, "- N/A -   "
3.75, 109.455, 0.006433734, NaN, NaN, NaN, 0.0335714, "- N/A -   "
3.77, 110.045, 0.00647261, NaN, NaN, NaN, 0.03112983, "- N/A -   "
3.79, 110.753, 0.00651148, NaN, NaN, NaN, 0.0286883, "- N/A -   "
3.81, 111.342, 0.006544804, NaN, NaN, NaN, 0.0286883, "- N/A -   "
3.83, 111.696, 0.00657535, NaN, NaN, NaN, 0.0299091, "- N/A -   "
3.85, 112.404, 0.00661145, NaN, NaN, NaN, 0.0299091, "- N/A -   "
3.87, 112.758, 0.00664477, NaN, NaN, NaN, 0.0286883, "- N/A -   "
3.89, 113.348, 0.006678088, NaN, NaN, NaN, 0.0286883, "- N/A -   "
3.91, 113.819, 0.006708632, NaN, NaN, NaN, 0.0299091, "- N/A -   "
3.93, 114.173, 0.00673918, NaN, NaN, NaN, 0.0323506, "- N/A -   "
3.95, 114.527, 0.006766944, NaN, NaN, NaN, 0.0335714, "- N/A -   "
3.97, 115.235, 0.00679749, NaN, NaN, NaN, 0.0347922, "- N/A -   "
3.99, 115.706, 0.006825256, NaN, NaN, NaN, 0.0372337, "- N/A -   "
4.01, 116.06, 0.0068558, NaN, NaN, NaN, 0.0384545, "- N/A -   "
4.03, 116.414, 0.006883568, NaN, NaN, NaN, 0.04089605, "- N/A -   "
4.05, 116.886, 0.00691411, NaN, NaN, NaN, 0.0433376, "- N/A -   "
4.07, 117.358, 0.00694188, NaN, NaN, NaN, 0.0445584, "- N/A -   "
4.09, 117.947, 0.006977977, NaN, NaN, NaN, 0.0445584, "- N/A -   "
4.11, 118.655, 0.0070113, NaN, NaN, NaN, 0.0433376, "- N/A -   "
4.13, 119.127, 0.007047396, NaN, NaN, NaN, 0.0433376, "- N/A -   "
4.15, 119.599, 0.00708072, NaN, NaN, NaN, 0.04211683, "- N/A -   "
4.17, 120.188, 0.00711126, NaN, NaN, NaN, 0.0433376, "- N/A -   "
4.19, 120.542, 0.00714458, NaN, NaN, NaN, 0.0433376, "- N/A -   "
4.21, 121.25, 0.007177904, NaN, NaN, NaN, 0.0433376, "- N/A -   "
4.23, 121.722, 0.00721122, NaN, NaN, NaN, 0.0433376, "- N/A -   "
4.25, 122.312, 0.00724455, NaN, NaN, NaN, 0.0433376, "- N/A -   "
4.27, 122.901, 0.007277867, NaN, NaN, NaN, 0.0433376, "- N/A -   "
4.29, 123.609, 0.007319518, NaN, NaN, NaN, 0.04089605, "- N/A -   "
4.31, 124.199, 0.00735839, NaN, NaN, NaN, 0.0372337, "- N/A -   "
4.33, 124.906, 0.007400044, NaN, NaN, NaN, 0.0335714, "- N/A -   "
4.35, 125.614, 0.007441695, NaN, NaN, NaN, 0.0299091, "- N/A -   "
4.37, 126.204, 0.007477793, NaN, NaN, NaN, 0.0286883, "- N/A -   "
4.39, 126.794, 0.00751389, NaN, NaN, NaN, 0.0286883, "- N/A -   "
4.41, 127.265, 0.00754999, NaN, NaN, NaN, 0.0274675, "- N/A -   "
4.43, 127.855, 0.00758331, NaN, NaN, NaN, 0.0274675, "- N/A -   "
4.45, 128.327, 0.00761663, NaN, NaN, NaN, 0.0262467, "- N/A -   "
4.47, 128.799, 0.007647175, NaN, NaN, NaN, 0.0286883, "- N/A -   "
4.49, 129.152, 0.007674942, NaN, NaN, NaN, 0.03112983, "- N/A -   "
4.51, 129.624, 0.007699933, NaN, NaN, NaN, 0.0335714, "- N/A -   "
4.53, 130.096, 0.0077277, NaN, NaN, NaN, 0.03601294, "- N/A -   "
4.55, 130.568, 0.007755468, NaN, NaN, NaN, 0.0384545, "- N/A -   "
4.57, 131.04, 0.007788789, NaN, NaN, NaN, 0.0384545, "- N/A -   "
4.59, 131.629, 0.007824887, NaN, NaN, NaN, 0.0384545, "- N/A -   "
4.61, 132.101, 0.007858207, NaN, NaN, NaN, 0.0372337, "- N/A -   "
4.63, 132.809, 0.00789431, NaN, NaN, NaN, 0.0372337, "- N/A -   "
4.65, 133.281, 0.007930404, NaN, NaN, NaN, 0.03601294, "- N/A -   "
4.67, 133.752, 0.007963724, NaN, NaN, NaN, 0.03601294, "- N/A -   "
4.69, 134.342, 0.007997045, NaN, NaN, NaN, 0.03601294, "- N/A -   "
4.71, 134.932, 0.00802759, NaN, NaN, NaN, 0.0372337, "- N/A -   "
4.73, 135.4037, 0.008055357, NaN, NaN, NaN, 0.0384545, "- N/A -   "
4.75, 135.758, 0.008085901, NaN, NaN, NaN, 0.0396753, "- N/A -   "
4.77, 136.347, 0.008116446, NaN, NaN, NaN, 0.04089605, "- N/A -   "
4.79, 136.819, 0.00814699, NaN, NaN, NaN, 0.0433376, "- N/A -   "
4.81, 137.173, 0.00817476, NaN, NaN, NaN, 0.0445584, "- N/A -   "
4.83, 137.8806, 0.008208078, NaN, NaN, NaN, 0.0445584, "- N/A -   "
4.85, 138.352, 0.008241399, NaN, NaN, NaN, 0.0445584, "- N/A -   "
4.87, 138.942, 0.00827472, NaN, NaN, NaN, 0.0445584, "- N/A -   "
4.89, 139.414, 0.008310818, NaN, NaN, NaN, 0.0445584, "- N/A -   "
4.91, 140.24, 0.00835247, NaN, NaN, NaN, 0.04089605, "- N/A -   "
4.93, 140.947, 0.008388568, NaN, NaN, NaN, 0.0384545, "- N/A -   "
4.95, 141.537, 0.008427442, NaN, NaN, NaN, 0.03601294, "- N/A -   "
4.97, 142.1267, 0.008466316, NaN, NaN, NaN, 0.0335714, "- N/A -   "
4.99, 142.716, 0.008502414, NaN, NaN, NaN, 0.0323506, "- N/A -   "
5.01, 143.306, 0.00853851, NaN, NaN, NaN, 0.03112983, "- N/A -   "
5.03, 143.896, 0.00857461, NaN, NaN, NaN, 0.03112983, "- N/A -   "
5.05, 144.486, 0.008605154, NaN, NaN, NaN, 0.03112983, "- N/A -   "
5.07, 144.8395, 0.008635699, NaN, NaN, NaN, 0.0323506, "- N/A -   "
5.09, 145.311, 0.00866624, NaN, NaN, NaN, 0.0347922, "- N/A -   "
5.11, 145.783, 0.008696787, NaN, NaN, NaN, 0.03601294, "- N/A -   "
5.13, 146.255, 0.008727332, NaN, NaN, NaN, 0.03601294, "- N/A -   "
5.15, 146.963, 0.00876065, NaN, NaN, NaN, 0.03601294, "- N/A -   "
5.17, 147.316, 0.008793973, NaN, NaN, NaN, 0.0372337, "- N/A -   "
5.19, 147.906, 0.008827294, NaN, NaN, NaN, 0.03601294, "- N/A -   "
5.21, 148.378, 0.008863391, NaN, NaN, NaN, 0.03601294, "- N/A -   "
5.23, 149.204, 0.008896713, NaN, NaN, NaN, 0.0347922, "- N/A -   "
5.25, 149.793, 0.00893281, NaN, NaN, NaN, 0.0335714, "- N/A -   "
5.27, 150.383, 0.008968908, NaN, NaN, NaN, 0.0323506, "- N/A -   "
5.29, 150.973, 0.009002229, NaN, NaN, NaN, 0.0323506, "- N/A -   "
5.31, 151.445, 0.009032774, NaN, NaN, NaN, 0.0335714, "- N/A -   "
5.33, 151.916, 0.009063318, NaN, NaN, NaN, 0.0347922, "- N/A -   "
5.35, 152.388, 0.009093863, NaN, NaN, NaN, 0.0372337, "- N/A -   "
5.37, 152.86, 0.009124407, NaN, NaN, NaN, 0.0372337, "- N/A -   "
5.39, 153.332, 0.009154951, NaN, NaN, NaN, 0.0384545, "- N/A -   "
5.41, 153.8035, 0.009185495, NaN, NaN, NaN, 0.04089605, "- N/A -   "
5.43, 154.393, 0.009216039, NaN, NaN, NaN, 0.04211683, "- N/A -   "
5.45, 154.865, 0.009246584, NaN, NaN, NaN, 0.04211683, "- N/A -   "
5.47, 155.455, 0.009279905, NaN, NaN, NaN, 0.04211683, "- N/A -   "
5.49, 156.0445, 0.009316003, NaN, NaN, NaN, 0.04211683, "- N/A -   "
5.51, 156.752, 0.009349324, NaN, NaN, NaN, 0.04089605, "- N/A -   "
5.53, 157.224, 0.009382645, NaN, NaN, NaN, 0.04089605, "- N/A -   "
5.55, 157.814, 0.00941597, NaN, NaN, NaN, 0.04089605, "- N/A -   "
5.57, 158.2855, 0.009452064, NaN, NaN, NaN, 0.0396753, "- N/A -   "
5.59, 158.9932, 0.009488161, NaN, NaN, NaN, 0.0396753, "- N/A -   "
5.61, 159.701, 0.009524259, NaN, NaN, NaN, 0.0372337, "- N/A -   "
5.63, 160.2906, 0.009560357, NaN, NaN, NaN, 0.03601294, "- N/A -   "
5.65, 160.7624, 0.009590901, NaN, NaN, NaN, 0.0372337, "- N/A -   "
5.67, 161.352, 0.009624222, NaN, NaN, NaN, 0.0372337, "- N/A -   "
5.69, 161.824, 0.009657542, NaN, NaN, NaN, 0.0372337, "- N/A -   "
5.71, 162.532, 0.00969642, NaN, NaN, NaN, 0.03601294, "- N/A -   "
5.73, 163.0034, 0.009729738, NaN, NaN, NaN, 0.03601294, "- N/A -   "
5.75, 163.593, 0.009763059, NaN, NaN, NaN, 0.0347922, "- N/A -   "
5.77, 164.183, 0.009796382, NaN, NaN, NaN, 0.0347922, "- N/A -   "
5.79, 164.773, 0.009832479, NaN, NaN, NaN, 0.0335714, "- N/A -   "
5.81, 165.4803, 0.009871352, NaN, NaN, NaN, 0.03112983, "- N/A -   "
5.83, 166.07, 0.009904673, NaN, NaN, NaN, 0.03112983, "- N/A -   "
5.85, 166.66, 0.009937996, NaN, NaN, NaN, 0.03112983, "- N/A -   "
5.87, 167.132, 0.009971316, NaN, NaN, NaN, 0.03112983, "- N/A -   "
5.89, 167.603, 0.0100019, NaN, NaN, NaN, 0.0323506, "- N/A -   "
5.91, 168.193, 0.0100324, NaN, NaN, NaN, 0.0335714, "- N/A -   "
5.93, 168.783, 0.0100657, NaN, NaN, NaN, 0.0335714, "- N/A -   "
5.95, 169.137, 0.0100963, NaN, NaN, NaN, 0.0347922, "- N/A -   "
5.97, 169.726, 0.0101324, NaN, NaN, NaN, 0.0347922, "- N/A -   "
5.99, 170.316, 0.0101657, NaN, NaN, NaN, 0.0347922, "- N/A -   "
6.01, 170.906, 0.0101962, NaN, NaN, NaN, 0.0347922, "- N/A -   "
6.03, 171.496, 0.0102351, NaN, NaN, NaN, 0.0335714, "- N/A -   "
6.05, 172.321, 0.0102712, NaN, NaN, NaN, 0.03112983, "- N/A -   "
6.07, 172.6751, 0.010299, NaN, NaN, NaN, 0.0335714, "- N/A -   "
6.09, 173.029, 0.01032674, NaN, NaN, NaN, 0.03601294, "- N/A -   "
6.11, 173.501, 0.0103573, NaN, NaN, NaN, 0.0384545, "- N/A -   "
6.13, 173.973, 0.0103851, NaN, NaN, NaN, 0.0396753, "- N/A -   "
6.15, 174.562, 0.0104156, NaN, NaN, NaN, 0.04089605, "- N/A -   "
6.17, 175.034, 0.0104489, NaN, NaN, NaN, 0.04089605, "- N/A -   "
6.19, 175.624, 0.0104822, NaN, NaN, NaN, 0.04089605, "- N/A -   "
6.21, 176.096, 0.0105128, NaN, NaN, NaN, 0.0433376, "- N/A -   "
6.23, 176.6853, 0.0105433, NaN, NaN, NaN, 0.0433376, "- N/A -   "
6.25, 177.1571, 0.0105739, NaN, NaN, NaN, 0.0445584, "- N/A -   "
6.27, 177.865, 0.01061, NaN, NaN, NaN, 0.0433376, "- N/A -   "
6.29, 178.455, 0.0106461, NaN, NaN, NaN, 0.04211683, "- N/A -   "
6.31, 179.162, 0.0106822, NaN, NaN, NaN, 0.04089605, "- N/A -   "
6.33, 179.634, 0.0107183, NaN, NaN, NaN, 0.0396753, "- N/A -   "
6.35, 180.46, 0.0107571, NaN, NaN, NaN, 0.0372337, "- N/A -   "
6.37, 181.167, 0.0107988, NaN, NaN, NaN, 0.0347922, "- N/A -   "
6.39, 181.757, 0.0108349, NaN, NaN, NaN, 0.0323506, "- N/A -   "
6.41, 182.3468, 0.010871, NaN, NaN, NaN, 0.0323506, "- N/A -   "
6.43, 182.937, 0.0109015, NaN, NaN, NaN, 0.0323506, "- N/A -   "
6.45, 183.408, 0.0109321, NaN, NaN, NaN, 0.0335714, "- N/A -   "
6.47, 183.998, 0.0109654, NaN, NaN, NaN, 0.0335714, "- N/A -   "
6.49, 184.5878, 0.0109987, NaN, NaN, NaN, 0.0335714, "- N/A -   "
6.51, 185.06, 0.011032, NaN, NaN, NaN, 0.0347922, "- N/A -   "
6.53, 185.649, 0.0110598, NaN, NaN, NaN, 0.03601294, "- N/A -   "
6.55, 186.239, 0.0110959, NaN, NaN, NaN, 0.0347922, "- N/A -   "
6.57, 186.947, 0.011132, NaN, NaN, NaN, 0.0335714, "- N/A -   "
6.59, 187.536, 0.0111709, NaN, NaN, NaN, 0.03112983, "- N/A -   "
6.61, 188.244, 0.0112097, NaN, NaN, NaN, 0.0299091, "- N/A -   "
6.63, 188.834, 0.0112431, NaN, NaN, NaN, 0.0286883, "- N/A -   "
6.65, 189.3057, 0.0112792, NaN, NaN, NaN, 0.0286883, "- N/A -   "
6.67, 189.895, 0.0113097, NaN, NaN, NaN, 0.0299091, "- N/A -   "
6.69, 190.249, 0.0113375, NaN, NaN, NaN, 0.03112983, "- N/A -   "
6.71, 190.839, 0.0113708, NaN, NaN, NaN, 0.0323506, "- N/A -   "
6.73, 191.311, 0.0113986, NaN, NaN, NaN, 0.0347922, "- N/A -   "
6.75, 191.901, 0.0114263, NaN, NaN, NaN, 0.03601294, "- N/A -   "
6.77, 192.254, 0.0114541, NaN, NaN, NaN, 0.0384545, "- N/A -   "
6.79, 192.844, 0.0114846, NaN, NaN, NaN, 0.0396753, "- N/A -   "
6.81, 193.198, 0.01151519, NaN, NaN, NaN, 0.04089605, "- N/A -   "
6.83, 193.906, 0.011543, NaN, NaN, NaN, 0.0433376, "- N/A -   "
6.85, 194.377, 0.0115763, NaN, NaN, NaN, 0.0445584, "- N/A -   "
6.87, 194.967, 0.0116068, NaN, NaN, NaN, 0.0445584, "- N/A -   "
6.89, 195.5569, 0.0116401, NaN, NaN, NaN, 0.04577916, "- N/A -   "
6.91, 196.0287, 0.0116679, NaN, NaN, NaN, 0.04699994, "- N/A -   "
6.93, 196.618, 0.011704, NaN, NaN, NaN, 0.04577916, "- N/A -   "
6.95, 197.326, 0.0117401, NaN, NaN, NaN, 0.0445584, "- N/A -   "
6.97, 198.034, 0.011779, NaN, NaN, NaN, 0.04211683, "- N/A -   "
6.99, 198.741, 0.0118179, NaN, NaN, NaN, 0.04089605, "- N/A -   "
7.01, 199.449, 0.011854, NaN, NaN, NaN, 0.0384545, "- N/A -   "
7.03, 200.039, 0.0118928, NaN, NaN, NaN, 0.03601294, "- N/A -   "
7.05, 200.7466, 0.0119261, NaN, NaN, NaN, 0.03601294, "- N/A -   "
7.07, 201.336, 0.0119622, NaN, NaN, NaN, 0.0347922, "- N/A -   "
7.09, 201.926, 0.0120011, NaN, NaN, NaN, 0.0323506, "- N/A -   "
7.11, 202.634, 0.0120344, NaN, NaN, NaN, 0.0323506, "- N/A -   "
7.13, 203.106, 0.0120678, NaN, NaN, NaN, 0.0323506, "- N/A -   "
7.15, 203.695, 0.0121039, NaN, NaN, NaN, 0.03112983, "- N/A -   "
7.17, 204.403, 0.0121427, NaN, NaN, NaN, 0.0299091, "- N/A -   "
7.19, 204.875, 0.0121788, NaN, NaN, NaN, 0.0286883, "- N/A -   "
7.21, 205.7, 0.0122122, NaN, NaN, NaN, 0.0274675, "- N/A -   "
7.23, 206.172, 0.0122483, NaN, NaN, NaN, 0.0262467, "- N/A -   "
7.25, 206.762, 0.0122816, NaN, NaN, NaN, 0.0262467, "- N/A -   "
7.27, 207.352, 0.0123149, NaN, NaN, NaN, 0.0262467, "- N/A -   "
7.29, 207.941, 0.01234544, NaN, NaN, NaN, 0.0274675, "- N/A -   "
7.31, 208.4132, 0.0123732, NaN, NaN, NaN, 0.0299091, "- N/A -   "
7.33, 208.885, 0.01240375, NaN, NaN, NaN, 0.03112983, "- N/A -   "
7.35, 209.357, 0.0124315, NaN, NaN, NaN, 0.0335714, "- N/A -   "
7.37, 209.829, 0.0124621, NaN, NaN, NaN, 0.0347922, "- N/A -   "
7.39, 210.3, 0.0124926, NaN, NaN, NaN, 0.03601294, "- N/A -   "
7.41, 210.89, 0.0125232, NaN, NaN, NaN, 0.0372337, "- N/A -   "
7.43, 211.362, 0.0125537, NaN, NaN, NaN, 0.0384545, "- N/A -   "
7.45, 212.07, 0.01258424, NaN, NaN, NaN, 0.0396753, "- N/A -   "
7.47, 212.541, 0.0126148, NaN, NaN, NaN, 0.04089605, "- N/A -   "
7.49, 213.013, 0.0126453, NaN, NaN, NaN, 0.04211683, "- N/A -   "
7.51, 213.603, 0.0126759, NaN, NaN, NaN, 0.0445584, "- N/A -   "
7.53, 214.1926, 0.0127092, NaN, NaN, NaN, 0.0433376, "- N/A -   "
7.55, 214.782, 0.0127425, NaN, NaN, NaN, 0.0433376, "- N/A -   "
7.57, 215.372, 0.0127758, NaN, NaN, NaN, 0.0445584, "- N/A -   "
7.59, 215.844, 0.01280638, NaN, NaN, NaN, 0.0445584, "- N/A -   "
7.61, 216.552, 0.0128425, NaN, NaN, NaN, 0.0433376, "- N/A -   "
7.63, 217.259, 0.0128786, NaN, NaN, NaN, 0.0433376, "- N/A -   "
7.65, 217.967, 0.0129119, NaN, NaN, NaN, 0.04211683, "- N/A -   "
7.67, 218.557, 0.0129508, NaN, NaN, NaN, 0.0396753, "- N/A -   "
7.69, 219.1464, 0.0129896, NaN, NaN, NaN, 0.0384545, "- N/A -   "
7.71, 219.972, 0.01302852, NaN, NaN, NaN, 0.03601294, "- N/A -   "
7.73, 220.68, 0.0130674, NaN, NaN, NaN, 0.0323506, "- N/A -   "
7.75, 221.505, 0.0131063, NaN, NaN, NaN, 0.0299091, "- N/A -   "
7.77, 222.213, 0.0131451, NaN, NaN, NaN, 0.0274675, "- N/A -   "
7.79, 222.803, 0.0131812, NaN, NaN, NaN, 0.0274675, "- N/A -   "
7.81, 223.275, 0.0132146, NaN, NaN, NaN, 0.0274675, "- N/A -   "
7.83, 223.982, 0.0132451, NaN, NaN, NaN, 0.0274675, "- N/A -   "
7.85, 224.454, 0.01327565, NaN, NaN, NaN, 0.0286883, "- N/A -   "
7.87, 225.044, 0.013309, NaN, NaN, NaN, 0.0286883, "- N/A -   "
7.89, 225.6335, 0.0133395, NaN, NaN, NaN, 0.0299091, "- N/A -   "
7.91, 226.223, 0.0133701, NaN, NaN, NaN, 0.03112983, "- N/A -   "
7.93, 226.695, 0.0134034, NaN, NaN, NaN, 0.03112983, "- N/A -   "
7.95, 227.285, 0.0134339, NaN, NaN, NaN, 0.0335714, "- N/A -   "
7.97, 227.875, 0.0134617, NaN, NaN, NaN, 0.0347922, "- N/A -   "
7.99, 228.464, 0.0134922, NaN, NaN, NaN, 0.03601294, "- N/A -   "
8, 228.7, 0.0135089, NaN, NaN, NaN, 0.03601294, "- N/A -   "
8.01, 229.054, 0.0135256, NaN, NaN, NaN, 0.0372337, "- N/A -   "
8.02, 229.29, 0.0135367, NaN, NaN, NaN, 0.0384545, "- N/A -   "
8.03, 229.526, 0.0135561, NaN, NaN, NaN, 0.0384545, "- N/A -   "
8.04, 229.762, 0.0135728, NaN, NaN, NaN, 0.0372337, "- N/A -   "
8.05, 230.116, 0.0135894, NaN, NaN, NaN, 0.0372337, "- N/A -   "
8.06, 230.469, 0.0136061, NaN, NaN, NaN, 0.0384545, "- N/A -   "
8.07, 230.705, 0.0136227, NaN, NaN, NaN, 0.0384545, "- N/A -   "
8.08, 231.0591, 0.0136394, NaN, NaN, NaN, 0.0384545, "- N/A -   "
8.09, 231.413, 0.0136561, NaN, NaN, NaN, 0.0384545, "- N/A -   "
8.1, 231.649, 0.0136727, NaN, NaN, NaN, 0.0384545, "- N/A -   "
8.11, 232.003, 0.0136894, NaN, NaN, NaN, 0.0384545, "- N/A -   "
8.12, 232.239, 0.013706, NaN, NaN, NaN, 0.0384545, "- N/A -   "
8.13, 232.592, 0.0137199, NaN, NaN, NaN, 0.0396753, "- N/A -   "
8.14, 232.828, 0.0137366, NaN, NaN, NaN, 0.04089605, "- N/A -   "
8.15, 233.0642, 0.0137505, NaN, NaN, NaN, 0.04211683, "- N/A -   "
8.16, 233.3001, 0.0137644, NaN, NaN, NaN, 0.04211683, "- N/A -   "
8.17, 233.654, 0.013781, NaN, NaN, NaN, 0.0433376, "- N/A -   "
8.18, 233.89, 0.0137949, NaN, NaN, NaN, 0.0433376, "- N/A -   "
8.19, 234.126, 0.0138116, NaN, NaN, NaN, 0.0433376, "- N/A -   "
8.2, 234.48, 0.0138282, NaN, NaN, NaN, 0.0445584, "- N/A -   "
8.21, 234.833, 0.0138421, NaN, NaN, NaN, 0.0445584, "- N/A -   "
8.22, 235.0693, 0.0138588, NaN, NaN, NaN, 0.0445584, "- N/A -   "
8.23, 235.3052, 0.01387543, NaN, NaN, NaN, 0.04577916, "- N/A -   "
8.24, 235.5411, 0.0138893, NaN, NaN, NaN, 0.04577916, "- N/A -   "
8.25, 235.895, 0.013906, NaN, NaN, NaN, 0.04577916, "- N/A -   "
8.26, 236.249, 0.0139254, NaN, NaN, NaN, 0.04577916, "- N/A -   "
8.27, 236.603, 0.0139421, NaN, NaN, NaN, 0.04577916, "- N/A -   "
8.28, 236.956, 0.0139587, NaN, NaN, NaN, 0.0445584, "- N/A -   "
8.29, 237.192, 0.0139754, NaN, NaN, NaN, 0.0445584, "- N/A -   "
8.3, 237.5462, 0.0139948, NaN, NaN, NaN, 0.0433376, "- N/A -   "
8.31, 237.9, 0.014017, NaN, NaN, NaN, 0.04211683, "- N/A -   "
8.32, 238.254, 0.0140365, NaN, NaN, NaN, 0.04089605, "- N/A -   "
8.33, 238.726, 0.0140559, NaN, NaN, NaN, 0.0396753, "- N/A -   "
8.34, 238.962, 0.0140754, NaN, NaN, NaN, 0.0384545, "- N/A -   "
8.35, 239.433, 0.014092, NaN, NaN, NaN, 0.0372337, "- N/A -   "
8.36, 239.669, 0.0141115, NaN, NaN, NaN, 0.0372337, "- N/A -   "
8.37, 240.0231, 0.0141281, NaN, NaN, NaN, 0.03601294, "- N/A -   "
8.38, 240.377, 0.0141476, NaN, NaN, NaN, 0.0347922, "- N/A -   "
8.39, 240.731, 0.0141642, NaN, NaN, NaN, 0.0347922, "- N/A -   "
8.4, 241.085, 0.0141836, NaN, NaN, NaN, 0.0347922, "- N/A -   "
8.41, 241.321, 0.0142003, NaN, NaN, NaN, 0.0335714, "- N/A -   "
8.42, 241.792, 0.0142197, NaN, NaN, NaN, 0.0335714, "- N/A -   "
8.43, 242.146, 0.0142392, NaN, NaN, NaN, 0.0323506, "- N/A -   "
8.44, 242.5, 0.0142586, NaN, NaN, NaN, 0.03112983, "- N/A -   "
8.45, 242.971, 0.0142753, NaN, NaN, NaN, 0.0299091, "- N/A -   "
8.46, 243.207, 0.0142947, NaN, NaN, NaN, 0.0299091, "- N/A -   "
8.47, 243.443, 0.0143086, NaN, NaN, NaN, 0.0299091, "- N/A -   "
8.48, 243.678, 0.0143253, NaN, NaN, NaN, 0.0299091, "- N/A -   "
8.49, 243.914, 0.0143419, NaN, NaN, NaN, 0.03112983, "- N/A -   "
8.5, 244.2674, 0.0143558, NaN, NaN, NaN, 0.03112983, "- N/A -   "
8.51, 244.621, 0.0143697, NaN, NaN, NaN, 0.0323506, "- N/A -   "
8.52, 244.7387, 0.0143864, NaN, NaN, NaN, 0.0323506, "- N/A -   "
8.53, 245.092, 0.014403, NaN, NaN, NaN, 0.0335714, "- N/A -   "
8.54, 245.328, 0.0144169, NaN, NaN, NaN, 0.0335714, "- N/A -   "
8.55, 245.563, 0.0144336, NaN, NaN, NaN, 0.0335714, "- N/A -   "
8.56, 245.917, 0.0144474, NaN, NaN, NaN, 0.0347922, "- N/A -   "
8.57, 246.27, 0.0144641, NaN, NaN, NaN, 0.0347922, "- N/A -   "
8.58, 246.624, 0.01448076, NaN, NaN, NaN, 0.0347922, "- N/A -   "
8.59, 246.86, 0.0144974, NaN, NaN, NaN, 0.0347922, "- N/A -   "
8.6, 247.095, 0.0145141, NaN, NaN, NaN, 0.0347922, "- N/A -   "
8.61, 247.567, 0.0145307, NaN, NaN, NaN, 0.0347922, "- N/A -   "
8.62, 247.802, 0.01455018, NaN, NaN, NaN, 0.0347922, "- N/A -   "
8.63, 248.156, 0.0145668, NaN, NaN, NaN, 0.0347922, "- N/A -   "
8.64, 248.3913, 0.0145835, NaN, NaN, NaN, 0.0335714, "- N/A -   "
8.65, 248.745, 0.0146029, NaN, NaN, NaN, 0.0335714, "- N/A -   "
8.66, 249.098, 0.0146196, NaN, NaN, NaN, 0.0335714, "- N/A -   "
8.67, 249.452, 0.0146363, NaN, NaN, NaN, 0.0335714, "- N/A -   "
8.68, 249.805, 0.0146501, NaN, NaN, NaN, 0.0335714, "- N/A -   "
8.69, 250.159, 0.0146696, NaN, NaN, NaN, 0.0323506, "- N/A -   "
8.7, 250.512, 0.0146835, NaN, NaN, NaN, 0.0335714, "- N/A -   "
8.71, 250.63, 0.0146973, NaN, NaN, NaN, 0.0347922, "- N/A -   "
8.72, 250.866, 0.014714, NaN, NaN, NaN, 0.03601294, "- N/A -   "
8.73, 251.219, 0.0147279, NaN, NaN, NaN, 0.03601294, "- N/A -   "
8.74, 251.5726, 0.0147446, NaN, NaN, NaN, 0.03601294, "- N/A -   "
8.75, 251.808, 0.0147612, NaN, NaN, NaN, 0.0372337, "- N/A -   "
8.76, 252.162, 0.0147751, NaN, NaN, NaN, 0.0372337, "- N/A -   "
8.77, 252.397, 0.0147918, NaN, NaN, NaN, 0.0372337, "- N/A -   "
8.78, 252.633, 0.0148056, NaN, NaN, NaN, 0.0384545, "- N/A -   "
8.79, 252.987, 0.0148223, NaN, NaN, NaN, 0.0384545, "- N/A -   "
8.8, 253.34, 0.014839, NaN, NaN, NaN, 0.0384545, "- N/A -   "
8.81, 253.458, 0.0148528, NaN, NaN, NaN, 0.0396753, "- N/A -   "
8.82, 253.811, 0.0148667, NaN, NaN, NaN, 0.04089605, "- N/A -   "
8.83, 254.047, 0.01488339, NaN, NaN, NaN, 0.04211683, "- N/A -   "
8.84, 254.283, 0.0148973, NaN, NaN, NaN, 0.04211683, "- N/A -   "
8.85, 254.6361, 0.0149139, NaN, NaN, NaN, 0.0433376, "- N/A -   "
8.86, 254.872, 0.0149306, NaN, NaN, NaN, 0.0433376, "- N/A -   "
8.87, 255.225, 0.0149445, NaN, NaN, NaN, 0.0433376, "- N/A -   "
8.88, 255.579, 0.0149639, NaN, NaN, NaN, 0.04211683, "- N/A -   "
8.89, 255.932, 0.0149806, NaN, NaN, NaN, 0.04211683, "- N/A -   "
8.9, 256.286, 0.015, NaN, NaN, NaN, 0.04211683, "- N/A -   "
8.91, 256.5213, 0.0150167, NaN, NaN, NaN, 0.04211683, "- N/A -   "
8.93, 257.228, 0.01505, NaN, NaN, NaN, 0.04211683, "- N/A -   "
8.95, 257.9352, 0.0150833, NaN, NaN, NaN, 0.04089605, "- N/A -   "
8.97, 258.524, 0.0151194, NaN, NaN, NaN, 0.0396753, "- N/A -   "
8.99, 259.349, 0.0151555, NaN, NaN, NaN, 0.0384545, "- N/A -   "
9.01, 259.82, 0.0151916, NaN, NaN, NaN, 0.0384545, "- N/A -   "
9.03, 260.6452, 0.0152249, NaN, NaN, NaN, 0.0372337, "- N/A -   "
9.05, 261.352, 0.015261, NaN, NaN, NaN, 0.03601294, "- N/A -   "
9.07, 262.059, 0.0152971, NaN, NaN, NaN, 0.0347922, "- N/A -   "
9.09, 262.8839, 0.0153332, NaN, NaN, NaN, 0.0347922, "- N/A -   "
9.11, 263.2374, 0.0153665, NaN, NaN, NaN, 0.0335714, "- N/A -   "
9.13, 263.944, 0.0153999, NaN, NaN, NaN, 0.0335714, "- N/A -   "
9.15, 264.533, 0.0154332, NaN, NaN, NaN, 0.0347922, "- N/A -   "
9.17, 265.123, 0.0154637, NaN, NaN, NaN, 0.0347922, "- N/A -   "
9.19, 265.83, 0.0154971, NaN, NaN, NaN, 0.0347922, "- N/A -   "
9.21, 266.537, 0.01553315, NaN, NaN, NaN, 0.0347922, "- N/A -   "
9.23, 267.126, 0.0155692, NaN, NaN, NaN, 0.0335714, "- N/A -   "
9.25, 267.715, 0.0156026, NaN, NaN, NaN, 0.0323506, "- N/A -   "
9.27, 268.422, 0.0156359, NaN, NaN, NaN, 0.0323506, "- N/A -   "
9.29, 268.893, 0.0156664, NaN, NaN, NaN, 0.0347922, "- N/A -   "
9.31, 269.482, 0.01569698, NaN, NaN, NaN, 0.0347922, "- N/A -   "
9.33, 270.189, 0.0157303, NaN, NaN, NaN, 0.0347922, "- N/A -   "
9.35, 270.8961, 0.01576362, NaN, NaN, NaN, 0.0347922, "- N/A -   "
9.37, 271.367, 0.01579694, NaN, NaN, NaN, 0.0347922, "- N/A -   "
9.39, 272.074, 0.0158303, NaN, NaN, NaN, 0.0347922, "- N/A -   "
9.41, 272.7813, 0.0158608, NaN, NaN, NaN, 0.03601294, "- N/A -   "
9.43, 273.253, 0.01589135, NaN, NaN, NaN, 0.0372337, "- N/A -   "
9.45, 273.96, 0.0159302, NaN, NaN, NaN, 0.0347922, "- N/A -   "
9.47, 274.549, 0.0159635, NaN, NaN, NaN, 0.0347922, "- N/A -   "
9.49, 275.256, 0.01599409, NaN, NaN, NaN, 0.03601294, "- N/A -   "
9.51, 275.8448, 0.0160246, NaN, NaN, NaN, 0.0372337, "- N/A -   "
9.53, 276.3161, 0.0160552, NaN, NaN, NaN, 0.0384545, "- N/A -   "
9.55, 276.9052, 0.0160829, NaN, NaN, NaN, 0.04089605, "- N/A -   "
9.57, 277.494, 0.0161163, NaN, NaN, NaN, 0.04089605, "- N/A -   "
9.59, 278.0835, 0.01614959, NaN, NaN, NaN, 0.04089605, "- N/A -   "
9.61, 278.6726, 0.0161801, NaN, NaN, NaN, 0.04211683, "- N/A -   "
9.63, 279.262, 0.0162079, NaN, NaN, NaN, 0.0445584, "- N/A -   "
9.65, 279.9687, 0.01624122, NaN, NaN, NaN, 0.0445584, "- N/A -   "
9.67, 280.676, 0.0162745, NaN, NaN, NaN, 0.0445584, "- N/A -   "
9.69, 281.2648, 0.0163079, NaN, NaN, NaN, 0.0445584, "- N/A -   "
9.71, 281.972, 0.0163412, NaN, NaN, NaN, 0.0445584, "- N/A -   "
9.73, 282.6787, 0.0163773, NaN, NaN, NaN, 0.0433376, "- N/A -   "
9.75, 283.268, 0.01641338, NaN, NaN, NaN, 0.04211683, "- N/A -   "
9.77, 284.21, 0.01645503, NaN, NaN, NaN, 0.0384545, "- N/A -   "
9.79, 285.035, 0.0164967, NaN, NaN, NaN, 0.0347922, "- N/A -   "
9.81, 285.86, 0.0165356, NaN, NaN, NaN, 0.0323506, "- N/A -   "
9.83, 286.449, 0.0165689, NaN, NaN, NaN, 0.0323506, "- N/A -   "
9.85, 287.038, 0.0166022, NaN, NaN, NaN, 0.0323506, "- N/A -   "
9.87, 287.7452, 0.01663552, NaN, NaN, NaN, 0.0323506, "- N/A -   "
9.89, 288.334, 0.0166688, NaN, NaN, NaN, 0.0323506, "- N/A -   "
9.91, 288.9235, 0.0167022, NaN, NaN, NaN, 0.0323506, "- N/A -   "
9.93, 289.5126, 0.0167327, NaN, NaN, NaN, 0.0335714, "- N/A -   "
9.95, 290.102, 0.016766, NaN, NaN, NaN, 0.0347922, "- N/A -   "
9.97, 290.927, 0.0168021, NaN, NaN, NaN, 0.0323506, "- N/A -   "
9.99, 291.633, 0.0168382, NaN, NaN, NaN, 0.03112983, "- N/A -   "
10.01, 292.34, 0.0168771, NaN, NaN, NaN, 0.0286883, "- N/A -   "
10.03, 293.165, 0.016916, NaN, NaN, NaN, 0.0274675, "- N/A -   "
10.05, 293.754, 0.0169493, NaN, NaN, NaN, 0.0274675, "- N/A -   "
10.07, 294.343, 0.0169798, NaN, NaN, NaN, 0.0274675, "- N/A -   "
10.09, 294.9326, 0.0170104, NaN, NaN, NaN, 0.0286883, "- N/A -   "
10.11, 295.404, 0.0170409, NaN, NaN, NaN, 0.03112983, "- N/A -   "
10.13, 295.993, 0.0170659, NaN, NaN, NaN, 0.0335714, "- N/A -   "
10.15, 296.582, 0.0170992, NaN, NaN, NaN, 0.0335714, "- N/A -   "
10.17, 297.1713, 0.01713256, NaN, NaN, NaN, 0.0347922, "- N/A -   "
10.19, 297.6426, 0.0171575, NaN, NaN, NaN, 0.0372337, "- N/A -   "
10.21, 298.232, 0.0171853, NaN, NaN, NaN, 0.04089605, "- N/A -   "
10.23, 298.703, 0.0172103, NaN, NaN, NaN, 0.0433376, "- N/A -   "
10.25, 299.292, 0.01724363, NaN, NaN, NaN, 0.0445584, "- N/A -   "
10.27, 299.999, 0.0172742, NaN, NaN, NaN, 0.04577916, "- N/A -   "
10.29, 300.47, 0.0173019, NaN, NaN, NaN, 0.04699994, "- N/A -   "
10.31, 301.06, 0.0173353, NaN, NaN, NaN, 0.0482207, "- N/A -   "
10.33, 301.7665, 0.0173686, NaN, NaN, NaN, 0.04699994, "- N/A -   "
10.35, 302.591, 0.01740468, NaN, NaN, NaN, 0.04577916, "- N/A -   "
10.37, 303.298, 0.0174436, NaN, NaN, NaN, 0.0433376, "- N/A -   "
10.39, 304.123, 0.01748243, NaN, NaN, NaN, 0.04089605, "- N/A -   "
10.41, 304.948, 0.0175213, NaN, NaN, NaN, 0.0384545, "- N/A -   "
10.43, 305.6548, 0.0175574, NaN, NaN, NaN, 0.0372337, "- N/A -   "
10.45, 306.362, 0.0175963, NaN, NaN, NaN, 0.03601294, "- N/A -   "
10.47, 307.187, 0.0176324, NaN, NaN, NaN, 0.0335714, "- N/A -   "
10.49, 307.776, 0.0176657, NaN, NaN, NaN, 0.0335714, "- N/A -   "
10.51, 308.4826, 0.017699, NaN, NaN, NaN, 0.0335714, "- N/A -   "
10.53, 309.072, 0.0177351, NaN, NaN, NaN, 0.0335714, "- N/A -   "
10.55, 309.7787, 0.0177684, NaN, NaN, NaN, 0.0323506, "- N/A -   "
10.57, 310.486, 0.0178045, NaN, NaN, NaN, 0.03112983, "- N/A -   "
10.59, 311.1926, 0.01784063, NaN, NaN, NaN, 0.0299091, "- N/A -   "
10.61, 312.0174, 0.0178767, NaN, NaN, NaN, 0.0299091, "- N/A -   "
10.63, 312.489, 0.0179073, NaN, NaN, NaN, 0.0299091, "- N/A -   "
10.65, 313.078, 0.0179378, NaN, NaN, NaN, 0.03112983, "- N/A -   "
10.67, 313.7848, 0.01797114, NaN, NaN, NaN, 0.03112983, "- N/A -   "
10.69, 314.492, 0.0180045, NaN, NaN, NaN, 0.03112983, "- N/A -   "
[...]
20.91, 701.2117, 0.0350454, NaN, NaN, NaN, 0.0274675, "- N/A -   "
20.93, 701.9214, 0.0350787, NaN, NaN, NaN, 0.0274675, "- N/A -   "
20.95, 702.8677, 0.035112, NaN, NaN, NaN, 0.0274675, "- N/A -   "
20.97, 703.577, 0.03514535, NaN, NaN, NaN, 0.0286883, "- N/A -   "
20.99, 704.287, 0.0351731, NaN, NaN, NaN, 0.0299091, "- N/A -   "
21.01, 704.878, 0.03520366, NaN, NaN, NaN, 0.0323506, "- N/A -   "
21.03, 705.588, 0.03522865, NaN, NaN, NaN, 0.0347922, "- N/A -   "
21.05, 706.1795, 0.03525642, NaN, NaN, NaN, 0.0372337, "- N/A -   "
21.07, 706.7709, 0.035287, NaN, NaN, NaN, 0.0396753, "- N/A -   "
21.09, 707.5988, 0.0353175, NaN, NaN, NaN, 0.0396753, "- N/A -   "
21.11, 708.3086, 0.03534805, NaN, NaN, NaN, 0.04211683, "- N/A -   "
21.13, 709.018, 0.0353786, NaN, NaN, NaN, 0.04211683, "- N/A -   "
21.15, 709.8462, 0.0354119, NaN, NaN, NaN, 0.04211683, "- N/A -   "
21.17, 710.7925, 0.03544524, NaN, NaN, NaN, 0.04211683, "- N/A -   "
21.19, 711.6204, 0.03547856, NaN, NaN, NaN, 0.04211683, "- N/A -   "
21.21, 712.3301, 0.0355091, NaN, NaN, NaN, 0.0433376, "- N/A -   "
21.23, 713.04, 0.0355424, NaN, NaN, NaN, 0.0433376, "- N/A -   "
21.25, 713.868, 0.03557297, NaN, NaN, NaN, 0.0445584, "- N/A -   "
21.27, 714.6957, 0.0356063, NaN, NaN, NaN, 0.0445584, "- N/A -   "
21.29, 715.5236, 0.03563961, NaN, NaN, NaN, 0.0445584, "- N/A -   "
21.31, 716.4699, 0.0356785, NaN, NaN, NaN, 0.0433376, "- N/A -   "
21.33, 717.416, 0.03571736, NaN, NaN, NaN, 0.04089605, "- N/A -   "
21.35, 718.3624, 0.03575346, NaN, NaN, NaN, 0.0384545, "- N/A -   "
21.37, 719.309, 0.0357923, NaN, NaN, NaN, 0.03601294, "- N/A -   "
21.39, 720.2549, 0.035834, NaN, NaN, NaN, 0.0335714, "- N/A -   "
21.41, 721.2012, 0.0358729, NaN, NaN, NaN, 0.0299091, "- N/A -   "
21.43, 722.0291, 0.035909, NaN, NaN, NaN, 0.0286883, "- N/A -   "
21.45, 722.857, 0.03594228, NaN, NaN, NaN, 0.0299091, "- N/A -   "
21.47, 723.567, 0.0359728, NaN, NaN, NaN, 0.03112983, "- N/A -   "
21.49, 724.2765, 0.0360034, NaN, NaN, NaN, 0.03112983, "- N/A -   "
21.51, 725.341, 0.0360367, NaN, NaN, NaN, 0.03112983, "- N/A -   "
21.53, 726.051, 0.03607, NaN, NaN, NaN, 0.03112983, "- N/A -   "
21.55, 726.7604, 0.0361033, NaN, NaN, NaN, 0.03112983, "- N/A -   "
21.57, 727.47, 0.03613665, NaN, NaN, NaN, 0.0323506, "- N/A -   "
21.59, 728.298, 0.0361644, NaN, NaN, NaN, 0.0335714, "- N/A -   "
21.61, 729.126, 0.03619496, NaN, NaN, NaN, 0.0347922, "- N/A -   "
21.63, 729.9539, 0.03622828, NaN, NaN, NaN, 0.03601294, "- N/A -   "
21.65, 730.782, 0.0362588, NaN, NaN, NaN, 0.0372337, "- N/A -   "
21.67, 731.492, 0.0362949, NaN, NaN, NaN, 0.0372337, "- N/A -   "
21.69, 732.3196, 0.0363282, NaN, NaN, NaN, 0.0372337, "- N/A -   "
21.71, 733.1475, 0.0363616, NaN, NaN, NaN, 0.03601294, "- N/A -   "
21.73, 733.9755, 0.0363949, NaN, NaN, NaN, 0.03601294, "- N/A -   "
21.75, 734.803, 0.03642821, NaN, NaN, NaN, 0.03601294, "- N/A -   "
21.77, 735.5131, 0.0364588, NaN, NaN, NaN, 0.0372337, "- N/A -   "
21.79, 736.2228, 0.0364865, NaN, NaN, NaN, 0.0396753, "- N/A -   "
21.81, 736.8143, 0.0365143, NaN, NaN, NaN, 0.04211683, "- N/A -   "
21.83, 737.5239, 0.0365448, NaN, NaN, NaN, 0.0433376, "- N/A -   "
21.85, 738.2336, 0.0365726, NaN, NaN, NaN, 0.04577916, "- N/A -   "
21.87, 739.0615, 0.03660592, NaN, NaN, NaN, 0.04577916, "- N/A -   "
21.89, 739.771, 0.03663924, NaN, NaN, NaN, 0.04699994, "- N/A -   "
21.91, 740.599, 0.0366698, NaN, NaN, NaN, 0.04699994, "- N/A -   "
21.93, 741.5454, 0.0367059, NaN, NaN, NaN, 0.04577916, "- N/A -   "
21.95, 742.4917, 0.036742, NaN, NaN, NaN, 0.0445584, "- N/A -   "
21.97, 743.4379, 0.0367836, NaN, NaN, NaN, 0.04211683, "- N/A -   "
21.99, 744.5025, 0.0368253, NaN, NaN, NaN, 0.0372337, "- N/A -   "
22.01, 745.567, 0.0368669, NaN, NaN, NaN, 0.0335714, "- N/A -   "
22.03, 746.395, 0.03690303, NaN, NaN, NaN, 0.0323506, "- N/A -   "
22.05, 747.46, 0.03694191, NaN, NaN, NaN, 0.03112983, "- N/A -   "
22.07, 748.2875, 0.0369752, NaN, NaN, NaN, 0.0299091, "- N/A -   "
22.09, 749.1154, 0.0370113, NaN, NaN, NaN, 0.0286883, "- N/A -   "
22.11, 749.9434, 0.03704187, NaN, NaN, NaN, 0.0299091, "- N/A -   "
22.13, 750.5348, 0.0370724, NaN, NaN, NaN, 0.03112983, "- N/A -   "
22.15, 751.2445, 0.03710296, NaN, NaN, NaN, 0.0335714, "- N/A -   "
22.17, 751.954, 0.0371335, NaN, NaN, NaN, 0.0347922, "- N/A -   "
22.19, 752.782, 0.037164, NaN, NaN, NaN, 0.03601294, "- N/A -   "
22.21, 753.6101, 0.03719459, NaN, NaN, NaN, 0.03601294, "- N/A -   "
22.23, 754.32, 0.0372251, NaN, NaN, NaN, 0.0372337, "- N/A -   "
22.25, 755.148, 0.0372585, NaN, NaN, NaN, 0.0372337, "- N/A -   "
22.27, 755.9757, 0.03729733, NaN, NaN, NaN, 0.03601294, "- N/A -   "
22.29, 756.922, 0.03733343, NaN, NaN, NaN, 0.0347922, "- N/A -   "
22.31, 757.8682, 0.0373695, NaN, NaN, NaN, 0.0323506, "- N/A -   "
22.33, 758.696, 0.0374028, NaN, NaN, NaN, 0.0323506, "- N/A -   "
22.35, 759.6424, 0.0374389, NaN, NaN, NaN, 0.03112983, "- N/A -   "
22.37, 760.3522, 0.0374723, NaN, NaN, NaN, 0.0323506, "- N/A -   "
22.39, 761.0618, 0.0375, NaN, NaN, NaN, 0.0335714, "- N/A -   "
22.41, 761.7715, 0.03753058, NaN, NaN, NaN, 0.0347922, "- N/A -   "
22.43, 762.481, 0.0375611, NaN, NaN, NaN, 0.03601294, "- N/A -   "
22.45, 763.191, 0.03758889, NaN, NaN, NaN, 0.0384545, "- N/A -   "
22.47, 763.9006, 0.03761666, NaN, NaN, NaN, 0.04089605, "- N/A -   "
22.49, 764.6102, 0.03765, NaN, NaN, NaN, 0.04089605, "- N/A -   "
22.51, 765.32, 0.0376833, NaN, NaN, NaN, 0.04089605, "- N/A -   "
22.53, 766.2662, 0.0377194, NaN, NaN, NaN, 0.04089605, "- N/A -   "
22.55, 767.3307, 0.0377555, NaN, NaN, NaN, 0.0396753, "- N/A -   "
22.57, 767.9221, 0.03778604, NaN, NaN, NaN, 0.0396753, "- N/A -   "
22.59, 768.75, 0.03781936, NaN, NaN, NaN, 0.0396753, "- N/A -   "
22.61, 769.578, 0.0378499, NaN, NaN, NaN, 0.04211683, "- N/A -   "
22.63, 770.288, 0.0378832, NaN, NaN, NaN, 0.04089605, "- N/A -   "
22.65, 771.234, 0.0379165, NaN, NaN, NaN, 0.04089605, "- N/A -   "
22.67, 772.0619, 0.0379526, NaN, NaN, NaN, 0.04089605, "- N/A -   "
22.69, 772.89, 0.03798319, NaN, NaN, NaN, 0.04089605, "- N/A -   "
22.71, 773.8361, 0.0380221, NaN, NaN, NaN, 0.0396753, "- N/A -   "
22.73, 774.782, 0.03805816, NaN, NaN, NaN, 0.0384545, "- N/A -   "
22.75, 775.6103, 0.0380915, NaN, NaN, NaN, 0.0372337, "- N/A -   "
22.77, 776.438, 0.0381248, NaN, NaN, NaN, 0.0372337, "- N/A -   "
22.79, 777.148, 0.0381581, NaN, NaN, NaN, 0.0372337, "- N/A -   "
22.81, 777.976, 0.0381914, NaN, NaN, NaN, 0.0372337, "- N/A -   "
22.83, 778.804, 0.0382248, NaN, NaN, NaN, 0.0372337, "- N/A -   "
22.85, 779.6319, 0.0382609, NaN, NaN, NaN, 0.0372337, "- N/A -   "
22.87, 780.6964, 0.038297, NaN, NaN, NaN, 0.0347922, "- N/A -   "
22.89, 781.4061, 0.0383331, NaN, NaN, NaN, 0.0335714, "- N/A -   "
22.91, 782.2341, 0.0383636, NaN, NaN, NaN, 0.0347922, "- N/A -   "
22.93, 782.9437, 0.0383941, NaN, NaN, NaN, 0.03601294, "- N/A -   "
22.95, 783.7717, 0.03842747, NaN, NaN, NaN, 0.03601294, "- N/A -   "
22.97, 784.718, 0.03846634, NaN, NaN, NaN, 0.0347922, "- N/A -   "
22.99, 785.5459, 0.03849966, NaN, NaN, NaN, 0.0335714, "- N/A -   "
23.01, 786.3739, 0.038533, NaN, NaN, NaN, 0.0335714, "- N/A -   "
23.03, 787.0836, 0.0385663, NaN, NaN, NaN, 0.0335714, "- N/A -   "
23.05, 787.912, 0.0385996, NaN, NaN, NaN, 0.0335714, "- N/A -   "
23.07, 788.74, 0.0386329, NaN, NaN, NaN, 0.0335714, "- N/A -   "
23.09, 789.5675, 0.0386663, NaN, NaN, NaN, 0.0335714, "- N/A -   "
23.11, 790.395, 0.03869959, NaN, NaN, NaN, 0.0335714, "- N/A -   "
23.13, 791.1051, 0.03873291, NaN, NaN, NaN, 0.0347922, "- N/A -   "
23.15, 791.9331, 0.0387635, NaN, NaN, NaN, 0.0347922, "- N/A -   "
23.17, 792.643, 0.03879122, NaN, NaN, NaN, 0.0372337, "- N/A -   "
23.19, 793.2342, 0.03881899, NaN, NaN, NaN, 0.0396753, "- N/A -   "
23.21, 793.9439, 0.03885231, NaN, NaN, NaN, 0.04089605, "- N/A -   "
23.23, 794.772, 0.0388829, NaN, NaN, NaN, 0.04211683, "- N/A -   "
23.25, 795.5998, 0.0389162, NaN, NaN, NaN, 0.04211683, "- N/A -   "
23.27, 796.191, 0.0389467, NaN, NaN, NaN, 0.04211683, "- N/A -   "
23.29, 797.0192, 0.0389773, NaN, NaN, NaN, 0.0433376, "- N/A -   "
23.31, 797.7289, 0.03900781, NaN, NaN, NaN, 0.0445584, "- N/A -   "
23.33, 798.6751, 0.0390439, NaN, NaN, NaN, 0.0433376, "- N/A -   "
23.35, 799.7397, 0.03908, NaN, NaN, NaN, 0.04211683, "- N/A -   "
23.37, 800.686, 0.0391189, NaN, NaN, NaN, 0.0396753, "- N/A -   "
23.39, 801.6321, 0.03915498, NaN, NaN, NaN, 0.0384545, "- N/A -   "
23.41, 802.697, 0.03919385, NaN, NaN, NaN, 0.03601294, "- N/A -   "
23.43, 803.5246, 0.0392327, NaN, NaN, NaN, 0.0335714, "- N/A -   "
23.45, 804.3526, 0.03926882, NaN, NaN, NaN, 0.0335714, "- N/A -   "
23.47, 805.181, 0.0393021, NaN, NaN, NaN, 0.0323506, "- N/A -   "
23.49, 806.0085, 0.0393355, NaN, NaN, NaN, 0.0335714, "- N/A -   "
23.51, 806.8365, 0.03936601, NaN, NaN, NaN, 0.0335714, "- N/A -   "
23.53, 807.5462, 0.0393993, NaN, NaN, NaN, 0.0335714, "- N/A -   "
23.55, 808.256, 0.0394299, NaN, NaN, NaN, 0.0347922, "- N/A -   "
23.57, 809.0838, 0.03946597, NaN, NaN, NaN, 0.0347922, "- N/A -   "
23.59, 809.9118, 0.0394993, NaN, NaN, NaN, 0.0347922, "- N/A -   "
23.61, 810.621, 0.0395326, NaN, NaN, NaN, 0.0347922, "- N/A -   "
23.63, 811.5677, 0.03956871, NaN, NaN, NaN, 0.0335714, "- N/A -   "
23.65, 812.514, 0.03960481, NaN, NaN, NaN, 0.03112983, "- N/A -   "
23.67, 813.4602, 0.0396437, NaN, NaN, NaN, 0.0299091, "- N/A -   "
23.69, 814.406, 0.0396798, NaN, NaN, NaN, 0.0286883, "- N/A -   "
23.71, 815.234, 0.0397131, NaN, NaN, NaN, 0.0286883, "- N/A -   "
23.73, 816.0624, 0.0397464, NaN, NaN, NaN, 0.0286883, "- N/A -   "
23.75, 816.8903, 0.03977697, NaN, NaN, NaN, 0.0299091, "- N/A -   "
23.77, 817.4818, 0.0398047, NaN, NaN, NaN, 0.03112983, "- N/A -   "
23.79, 818.191, 0.0398353, NaN, NaN, NaN, 0.0323506, "- N/A -   "
23.81, 818.9011, 0.0398658, NaN, NaN, NaN, 0.0347922, "- N/A -   "
23.83, 819.4925, 0.0398908, NaN, NaN, NaN, 0.0372337, "- N/A -   "
23.85, 820.084, 0.0399158, NaN, NaN, NaN, 0.04089605, "- N/A -   "
23.87, 820.675, 0.0399436, NaN, NaN, NaN, 0.0433376, "- N/A -   "
23.89, 821.6216, 0.0399769, NaN, NaN, NaN, 0.0433376, "- N/A -   "
23.91, 822.331, 0.0400102, NaN, NaN, NaN, 0.0445584, "- N/A -   "
23.93, 823.041, 0.04004076, NaN, NaN, NaN, 0.0445584, "- N/A -   "
23.95, 823.9872, 0.04007686, NaN, NaN, NaN, 0.0445584, "- N/A -   "
23.97, 824.8151, 0.04011018, NaN, NaN, NaN, 0.0433376, "- N/A -   "
23.99, 825.7614, 0.0401463, NaN, NaN, NaN, 0.04211683, "- N/A -   "
24.01, 826.708, 0.0401852, NaN, NaN, NaN, 0.04089605, "- N/A -   "
24.03, 827.417, 0.0402185, NaN, NaN, NaN, 0.0396753, "- N/A -   "
24.05, 828.364, 0.040249, NaN, NaN, NaN, 0.04089605, "- N/A -   "
24.07, 829.1916, 0.0402851, NaN, NaN, NaN, 0.0396753, "- N/A -   "
24.09, 830.02, 0.0403212, NaN, NaN, NaN, 0.0384545, "- N/A -   "
24.11, 830.9658, 0.04035453, NaN, NaN, NaN, 0.0384545, "- N/A -   "
24.13, 831.794, 0.04039063, NaN, NaN, NaN, 0.0372337, "- N/A -   "
24.15, 832.74, 0.0404267, NaN, NaN, NaN, 0.03601294, "- N/A -   "
24.17, 833.568, 0.0404628, NaN, NaN, NaN, 0.03601294, "- N/A -   "
24.19, 834.396, 0.0404989, NaN, NaN, NaN, 0.0347922, "- N/A -   "
24.21, 835.342, 0.0405322, NaN, NaN, NaN, 0.0335714, "- N/A -   "
24.23, 836.288, 0.0405683, NaN, NaN, NaN, 0.0323506, "- N/A -   "
24.25, 837.1164, 0.0406072, NaN, NaN, NaN, 0.0299091, "- N/A -   "
24.27, 837.944, 0.04064054, NaN, NaN, NaN, 0.0299091, "- N/A -   "
24.29, 838.772, 0.04067386, NaN, NaN, NaN, 0.0299091, "- N/A -   "
24.31, 839.6003, 0.0407044, NaN, NaN, NaN, 0.03112983, "- N/A -   "
24.33, 840.192, 0.04073495, NaN, NaN, NaN, 0.0323506, "- N/A -   "
24.35, 841.138, 0.04076827, NaN, NaN, NaN, 0.0323506, "- N/A -   "
24.37, 841.848, 0.0408044, NaN, NaN, NaN, 0.0323506, "- N/A -   "
24.39, 842.6756, 0.04083769, NaN, NaN, NaN, 0.03112983, "- N/A -   "
24.41, 843.5036, 0.04086823, NaN, NaN, NaN, 0.0323506, "- N/A -   "
24.43, 844.213, 0.0408988, NaN, NaN, NaN, 0.0335714, "- N/A -   "
24.45, 844.9229, 0.04092932, NaN, NaN, NaN, 0.0347922, "- N/A -   "
24.47, 845.633, 0.04095709, NaN, NaN, NaN, 0.0372337, "- N/A -   "
24.49, 846.342, 0.04098763, NaN, NaN, NaN, 0.0384545, "- N/A -   "
24.51, 846.9337, 0.0410126, NaN, NaN, NaN, 0.04211683, "- N/A -   "
24.53, 847.6434, 0.0410459, NaN, NaN, NaN, 0.04211683, "- N/A -   "
24.55, 848.4713, 0.0410793, NaN, NaN, NaN, 0.04211683, "- N/A -   "
24.57, 849.4176, 0.0411126, NaN, NaN, NaN, 0.04211683, "- N/A -   "
24.59, 850.127, 0.04114591, NaN, NaN, NaN, 0.0433376, "- N/A -   "
24.61, 851.0735, 0.04117923, NaN, NaN, NaN, 0.04211683, "- N/A -   "
24.63, 851.9015, 0.0412153, NaN, NaN, NaN, 0.04089605, "- N/A -   "
24.65, 852.8477, 0.0412514, NaN, NaN, NaN, 0.04089605, "- N/A -   "
24.67, 853.5574, 0.0412875, NaN, NaN, NaN, 0.0396753, "- N/A -   "
24.69, 854.504, 0.0413208, NaN, NaN, NaN, 0.0384545, "- N/A -   "
24.71, 855.3316, 0.0413542, NaN, NaN, NaN, 0.0384545, "- N/A -   "
24.73, 856.0413, 0.0413875, NaN, NaN, NaN, 0.0384545, "- N/A -   "
24.75, 856.9876, 0.0414208, NaN, NaN, NaN, 0.0384545, "- N/A -   "
24.77, 857.697, 0.0414569, NaN, NaN, NaN, 0.0372337, "- N/A -   "
24.79, 858.7618, 0.0414958, NaN, NaN, NaN, 0.0347922, "- N/A -   "
24.81, 859.8263, 0.0415347, NaN, NaN, NaN, 0.0323506, "- N/A -   "
24.83, 860.7725, 0.0415735, NaN, NaN, NaN, 0.03112983, "- N/A -   "
24.85, 861.6, 0.04160685, NaN, NaN, NaN, 0.0299091, "- N/A -   "
24.87, 862.31, 0.04164017, NaN, NaN, NaN, 0.0299091, "- N/A -   "
24.89, 863.1382, 0.0416707, NaN, NaN, NaN, 0.03112983, "- N/A -   "
24.91, 863.9661, 0.041704, NaN, NaN, NaN, 0.03112983, "- N/A -   "
24.93, 864.7941, 0.04174013, NaN, NaN, NaN, 0.0299091, "- N/A -   "
24.95, 865.6221, 0.0417735, NaN, NaN, NaN, 0.0299091, "- N/A -   "
24.97, 866.213, 0.04180122, NaN, NaN, NaN, 0.0323506, "- N/A -   "
24.99, 867.041, 0.0418345, NaN, NaN, NaN, 0.0335714, "- N/A -   "
25.01, 867.8694, 0.04186231, NaN, NaN, NaN, 0.0347922, "- N/A -   "
25.03, 868.5791, 0.0418929, NaN, NaN, NaN, 0.03601294, "- N/A -   "
25.05, 869.407, 0.0419262, NaN, NaN, NaN, 0.03601294, "- N/A -   "
25.07, 870.117, 0.0419595, NaN, NaN, NaN, 0.03601294, "- N/A -   "
25.09, 871.063, 0.0419928, NaN, NaN, NaN, 0.03601294, "- N/A -   "
25.11, 871.8909, 0.0420289, NaN, NaN, NaN, 0.03601294, "- N/A -   "
25.13, 872.719, 0.0420622, NaN, NaN, NaN, 0.03601294, "- N/A -   "
25.15, 873.665, 0.0420956, NaN, NaN, NaN, 0.0347922, "- N/A -   "
25.17, 874.3748, 0.0421289, NaN, NaN, NaN, 0.0347922, "- N/A -   "
25.19, 874.9663, 0.04215942, NaN, NaN, NaN, 0.0372337, "- N/A -   "
25.21, 875.676, 0.04218719, NaN, NaN, NaN, 0.0396753, "- N/A -   "
25.23, 876.5039, 0.04221773, NaN, NaN, NaN, 0.0396753, "- N/A -   "
25.25, 877.214, 0.0422483, NaN, NaN, NaN, 0.04211683, "- N/A -   "
25.27, 877.9233, 0.0422788, NaN, NaN, NaN, 0.0433376, "- N/A -   "
25.29, 878.633, 0.0423094, NaN, NaN, NaN, 0.0445584, "- N/A -   "
25.31, 879.4609, 0.04233991, NaN, NaN, NaN, 0.0445584, "- N/A -   "
25.33, 880.407, 0.042376, NaN, NaN, NaN, 0.0433376, "- N/A -   "
25.35, 881.3534, 0.0424121, NaN, NaN, NaN, 0.04211683, "- N/A -   "
25.37, 882.536, 0.04245376, NaN, NaN, NaN, 0.0384545, "- N/A -   "
25.39, 883.3642, 0.0424899, NaN, NaN, NaN, 0.0372337, "- N/A -   "
25.41, 884.3104, 0.042526, NaN, NaN, NaN, 0.03601294, "- N/A -   "
25.43, 885.1384, 0.0425593, NaN, NaN, NaN, 0.03601294, "- N/A -   "
25.45, 885.8481, 0.0425926, NaN, NaN, NaN, 0.03601294, "- N/A -   "
25.47, 886.9126, 0.0426287, NaN, NaN, NaN, 0.0347922, "- N/A -   "
25.49, 887.7406, 0.0426648, NaN, NaN, NaN, 0.0335714, "- N/A -   "
25.51, 888.569, 0.0427037, NaN, NaN, NaN, 0.0323506, "- N/A -   "
25.53, 889.5148, 0.042737, NaN, NaN, NaN, 0.0323506, "- N/A -   "
25.55, 890.2244, 0.0427703, NaN, NaN, NaN, 0.0323506, "- N/A -   "
25.57, 890.8159, 0.04280085, NaN, NaN, NaN, 0.0335714, "- N/A -   "
25.59, 891.644, 0.04282862, NaN, NaN, NaN, 0.0347922, "- N/A -   "
25.61, 892.3535, 0.0428592, NaN, NaN, NaN, 0.03601294, "- N/A -   "
25.63, 893.063, 0.04288693, NaN, NaN, NaN, 0.0384545, "- N/A -   "
25.65, 893.8912, 0.0429203, NaN, NaN, NaN, 0.0384545, "- N/A -   "
25.67, 894.8374, 0.0429564, NaN, NaN, NaN, 0.0384545, "- N/A -   "
25.69, 895.6654, 0.04299245, NaN, NaN, NaN, 0.03601294, "- N/A -   "
25.71, 896.612, 0.04303132, NaN, NaN, NaN, 0.0347922, "- N/A -   "
25.73, 897.558, 0.0430674, NaN, NaN, NaN, 0.0323506, "- N/A -   "
25.75, 898.504, 0.0431007, NaN, NaN, NaN, 0.0323506, "- N/A -   "
25.77, 899.2138, 0.0431341, NaN, NaN, NaN, 0.0335714, "- N/A -   "
25.79, 899.9235, 0.0431646, NaN, NaN, NaN, 0.0335714, "- N/A -   "
25.81, 900.6332, 0.0431979, NaN, NaN, NaN, 0.0347922, "- N/A -   "
25.83, 901.579, 0.04323125, NaN, NaN, NaN, 0.0347922, "- N/A -   "
25.85, 902.2891, 0.043259, NaN, NaN, NaN, 0.03601294, "- N/A -   "
25.87, 902.8805, 0.04328678, NaN, NaN, NaN, 0.0384545, "- N/A -   "
25.89, 903.472, 0.04331455, NaN, NaN, NaN, 0.04089605, "- N/A -   "
25.91, 904.2999, 0.0433451, NaN, NaN, NaN, 0.04211683, "- N/A -   "
25.93, 905.246, 0.0433812, NaN, NaN, NaN, 0.04089605, "- N/A -   "
25.95, 906.074, 0.0434173, NaN, NaN, NaN, 0.04089605, "- N/A -   "
25.97, 906.9021, 0.0434506, NaN, NaN, NaN, 0.0396753, "- N/A -   "
25.99, 907.73, 0.04348393, NaN, NaN, NaN, 0.04089605, "- N/A -   "
26.01, 908.558, 0.0435173, NaN, NaN, NaN, 0.04089605, "- N/A -   "
26.03, 909.386, 0.0435506, NaN, NaN, NaN, 0.0396753, "- N/A -   "
26.05, 910.3322, 0.04358667, NaN, NaN, NaN, 0.0384545, "- N/A -   "
26.07, 911.2785, 0.04362277, NaN, NaN, NaN, 0.0372337, "- N/A -   "
26.09, 912.225, 0.0436589, NaN, NaN, NaN, 0.0372337, "- N/A -   "
26.11, 913.0527, 0.0436922, NaN, NaN, NaN, 0.03601294, "- N/A -   "
26.13, 913.8807, 0.04372551, NaN, NaN, NaN, 0.03601294, "- N/A -   "
26.15, 914.7086, 0.0437616, NaN, NaN, NaN, 0.0347922, "- N/A -   "
26.17, 915.655, 0.04380048, NaN, NaN, NaN, 0.0347922, "- N/A -   "
26.19, 916.483, 0.04383658, NaN, NaN, NaN, 0.0335714, "- N/A -   "
26.21, 917.3108, 0.0438671, NaN, NaN, NaN, 0.0335714, "- N/A -   "
26.23, 918.139, 0.04390045, NaN, NaN, NaN, 0.0335714, "- N/A -   "
26.25, 918.9667, 0.0439338, NaN, NaN, NaN, 0.0335714, "- N/A -   "
26.27, 919.795, 0.0439699, NaN, NaN, NaN, 0.0323506, "- N/A -   "
26.29, 920.7409, 0.0440032, NaN, NaN, NaN, 0.0323506, "- N/A -   "
26.31, 921.4506, 0.0440365, NaN, NaN, NaN, 0.0323506, "- N/A -   "
26.33, 922.2786, 0.0440698, NaN, NaN, NaN, 0.0323506, "- N/A -   "
26.35, 923.225, 0.0441059, NaN, NaN, NaN, 0.0323506, "- N/A -   "
26.37, 924.0528, 0.04413647, NaN, NaN, NaN, 0.0323506, "- N/A -   "
26.39, 924.7625, 0.0441726, NaN, NaN, NaN, 0.0323506, "- N/A -   "
26.41, 925.59, 0.0442003, NaN, NaN, NaN, 0.0335714, "- N/A -   "
26.43, 926.3001, 0.0442337, NaN, NaN, NaN, 0.0347922, "- N/A -   "
26.45, 927.0098, 0.0442642, NaN, NaN, NaN, 0.03601294, "- N/A -   "
26.47, 927.72, 0.044292, NaN, NaN, NaN, 0.0372337, "- N/A -   "
26.49, 928.5475, 0.04432529, NaN, NaN, NaN, 0.0384545, "- N/A -   "
26.51, 929.257, 0.04435861, NaN, NaN, NaN, 0.0384545, "- N/A -   "
26.53, 930.2034, 0.0443892, NaN, NaN, NaN, 0.0384545, "- N/A -   "
26.55, 931.0314, 0.0444225, NaN, NaN, NaN, 0.0384545, "- N/A -   "
26.57, 931.8593, 0.0444558, NaN, NaN, NaN, 0.0396753, "- N/A -   "
26.59, 932.569, 0.0444891, NaN, NaN, NaN, 0.0396753, "- N/A -   "
26.61, 933.397, 0.04452244, NaN, NaN, NaN, 0.0396753, "- N/A -   "
26.63, 934.1066, 0.04455298, NaN, NaN, NaN, 0.0396753, "- N/A -   "
26.65, 934.9347, 0.0445835, NaN, NaN, NaN, 0.04089605, "- N/A -   "
26.67, 935.644, 0.04461685, NaN, NaN, NaN, 0.04211683, "- N/A -   "
26.69, 936.354, 0.04464739, NaN, NaN, NaN, 0.04211683, "- N/A -   "
26.71, 937.3003, 0.0446779, NaN, NaN, NaN, 0.0433376, "- N/A -   "
26.73, 938.128, 0.04471126, NaN, NaN, NaN, 0.0445584, "- N/A -   "
26.75, 938.9562, 0.0447418, NaN, NaN, NaN, 0.0445584, "- N/A -   "
26.77, 939.902, 0.0447807, NaN, NaN, NaN, 0.04211683, "- N/A -   "
26.79, 940.6121, 0.044814, NaN, NaN, NaN, 0.0433376, "- N/A -   "
26.81, 941.558, 0.0448473, NaN, NaN, NaN, 0.04211683, "- N/A -   "
26.83, 942.3863, 0.0448834, NaN, NaN, NaN, 0.04089605, "- N/A -   "
26.849, 943.2143, 0.0449195, NaN, NaN, NaN, 0.0384545, "- N/A -   "