File: 2_Tensile_Data/Hamel_ForceTest_Bolt10_Test1.csv
Time, Load (lb), Position (in), AxialStrain (in), TransverseStrain (in), Auxiliary (), Control Out (V), Stress (psi)
0.0,1.06153,0.0, NaN, NaN, NaN,0.08606482," ""- N/A -   """
0.01,1.41537,2.77675e-05, NaN, NaN, NaN,0.09338949," ""- N/A -   """
0.02,1.88716,5.83118e-05, NaN, NaN, NaN,0.09338949," ""- N/A -   """
0.03,2.476897,8.607931e-05, NaN, NaN, NaN,0.08850638," ""- N/A -   """
0.04,2.83074,0.000113847, NaN, NaN, NaN,0.08240249," ""- N/A -   """
0.05,3.18458,0.0001388376, NaN, NaN, NaN,0.07874016," ""- N/A -   """
0.06,3.53842,0.0001610516, NaN, NaN, NaN,0.0762986," ""- N/A -   """
0.07,3.89227,0.000183266, NaN, NaN, NaN,0.0750778," ""- N/A -   """
0.08,4.246109,0.000202703, NaN, NaN, NaN,0.07385705," ""- N/A -   """
0.09,4.36406,0.00022214, NaN, NaN, NaN,0.07141549," ""- N/A -   """
0.1,4.717899,0.0002415774, NaN, NaN, NaN,0.0701947," ""- N/A -   """
0.11,5.071741,0.000261015, NaN, NaN, NaN,0.0689739," ""- N/A -   """
0.12,5.307636,0.0002832287, NaN, NaN, NaN,0.06775316," ""- N/A -   """
0.13,5.54353,0.000302666, NaN, NaN, NaN,0.06653238," ""- N/A -   """
0.14,5.897373,0.0003221032, NaN, NaN, NaN,0.0640908," ""- N/A -   """
0.15,6.01532,0.00034154, NaN, NaN, NaN,0.06287005," ""- N/A -   """
0.16,6.369163,0.000360978, NaN, NaN, NaN,0.06164927," ""- N/A -   """
0.17,6.60506,0.000383192, NaN, NaN, NaN,0.0604285," ""- N/A -   """
0.18,6.84095,0.000402629, NaN, NaN, NaN,0.0579869," ""- N/A -   """
0.19,7.1948,0.000424843, NaN, NaN, NaN,0.05676616," ""- N/A -   """
0.2,7.430691,0.0004442803, NaN, NaN, NaN,0.0555454," ""- N/A -   """
0.21,7.666586,0.0004609408, NaN, NaN, NaN,0.0543246," ""- N/A -   """
0.22,7.90248,0.000480378, NaN, NaN, NaN,0.0531038," ""- N/A -   """
0.23,8.256323,0.0004970386, NaN, NaN, NaN,0.0531038," ""- N/A -   """
0.24,8.610166,0.0005164758, NaN, NaN, NaN,0.05188305," ""- N/A -   """
0.25,8.728113,0.0005359131, NaN, NaN, NaN,0.05066227," ""- N/A -   """
0.26,8.964007,0.0005553504, NaN, NaN, NaN,0.05066227," ""- N/A -   """
0.27,9.31785,0.0005720109, NaN, NaN, NaN,0.0494415," ""- N/A -   """
0.28,9.553744,0.000591448, NaN, NaN, NaN,0.0482207," ""- N/A -   """
0.29,9.78964,0.0006108854, NaN, NaN, NaN,0.04699994," ""- N/A -   """
0.3,10.0255,0.000630323, NaN, NaN, NaN,0.04577916," ""- N/A -   """
0.31,10.26143,0.0006497599, NaN, NaN, NaN,0.04577916," ""- N/A -   """
0.32,10.4973,0.00066642, NaN, NaN, NaN,0.0445584," ""- N/A -   """
0.33,10.73322,0.0006830809, NaN, NaN, NaN,0.0445584," ""- N/A -   """
0.34,11.0871,0.0007080717, NaN, NaN, NaN,0.04211683," ""- N/A -   """
0.35,11.323,0.000727509, NaN, NaN, NaN,0.0396753," ""- N/A -   """
0.36,11.7947,0.000749723, NaN, NaN, NaN,0.0372337," ""- N/A -   """
0.37,12.0306,0.0007691603, NaN, NaN, NaN,0.03601294," ""- N/A -   """
0.38,12.2665,0.000791374, NaN, NaN, NaN,0.0347922," ""- N/A -   """
0.39,12.6204,0.0008080348, NaN, NaN, NaN,0.0335714," ""- N/A -   """
0.4,12.7383,0.000827472, NaN, NaN, NaN,0.0323506," ""- N/A -   """
0.41,13.09217,0.0008469093, NaN, NaN, NaN,0.0323506," ""- N/A -   """
0.42,13.2101,0.000860793, NaN, NaN, NaN,0.0323506," ""- N/A -   """
0.43,13.446,0.00088023, NaN, NaN, NaN,0.0323506," ""- N/A -   """
0.44,13.7999,0.0008968908, NaN, NaN, NaN,0.0323506," ""- N/A -   """
0.45,14.0357,0.000913551, NaN, NaN, NaN,0.0323506," ""- N/A -   """
0.46,14.2716,0.0009274351, NaN, NaN, NaN,0.0323506," ""- N/A -   """
0.47,14.5075,0.0009440956, NaN, NaN, NaN,0.0323506," ""- N/A -   """
0.48,14.7434,0.0009635329, NaN, NaN, NaN,0.03112983," ""- N/A -   """
0.49,14.9793,0.0009801934, NaN, NaN, NaN,0.0323506," ""- N/A -   """
0.5,15.2152,0.0009940772, NaN, NaN, NaN,0.0323506," ""- N/A -   """
0.51,15.5691,0.00101074, NaN, NaN, NaN,0.0323506," ""- N/A -   """
0.52,15.687,0.0010274, NaN, NaN, NaN,0.0323506," ""- N/A -   """
0.53,15.9229,0.001041282, NaN, NaN, NaN,0.0335714," ""- N/A -   """
0.54,16.1588,0.00105794, NaN, NaN, NaN,0.0335714," ""- N/A -   """
0.55,16.3947,0.001074603, NaN, NaN, NaN,0.0335714," ""- N/A -   """
0.56,16.6306,0.00108849, NaN, NaN, NaN,0.0347922," ""- N/A -   """
0.57,16.86649,0.00110792, NaN, NaN, NaN,0.0347922," ""- N/A -   """
0.58,16.9844,0.00112181, NaN, NaN, NaN,0.0347922," ""- N/A -   """
0.59,17.2203,0.00113569, NaN, NaN, NaN,0.03601294," ""- N/A -   """
0.6,17.5742,0.00115513, NaN, NaN, NaN,0.03601294," ""- N/A -   """
0.61,17.8101,0.00116901, NaN, NaN, NaN,0.03601294," ""- N/A -   """
0.62,18.046,0.00118845, NaN, NaN, NaN,0.03601294," ""- N/A -   """
0.63,18.2819,0.00120511, NaN, NaN, NaN,0.03601294," ""- N/A -   """
0.64,18.6357,0.00122177, NaN, NaN, NaN,0.03601294," ""- N/A -   """
0.65,18.7536,0.00123843, NaN, NaN, NaN,0.03601294," ""- N/A -   """
0.66,18.9895,0.00125232, NaN, NaN, NaN,0.03601294," ""- N/A -   """
0.67,19.3434,0.00126898, NaN, NaN, NaN,0.03601294," ""- N/A -   """
0.68,19.57928,0.00128564, NaN, NaN, NaN,0.03601294," ""- N/A -   """
0.69,19.8152,0.0013023, NaN, NaN, NaN,0.03601294," ""- N/A -   """
0.7,20.05107,0.00131896, NaN, NaN, NaN,0.0372337," ""- N/A -   """
0.71,20.4049,0.00133284, NaN, NaN, NaN,0.0372337," ""- N/A -   """
0.72,20.52286,0.0013495, NaN, NaN, NaN,0.0372337," ""- N/A -   """
0.73,20.7588,0.00136616, NaN, NaN, NaN,0.0384545," ""- N/A -   """
0.74,20.99465,0.00138005, NaN, NaN, NaN,0.0384545," ""- N/A -   """
0.75,21.2305,0.00139393, NaN, NaN, NaN,0.0396753," ""- N/A -   """
0.76,21.46644,0.00141059, NaN, NaN, NaN,0.04089605," ""- N/A -   """
0.77,21.7023,0.00142447, NaN, NaN, NaN,0.04089605," ""- N/A -   """
0.78,21.93823,0.00143836, NaN, NaN, NaN,0.04211683," ""- N/A -   """
0.79,21.93823,0.00145224, NaN, NaN, NaN,0.0433376," ""- N/A -   """
0.8,22.29207,0.00146612, NaN, NaN, NaN,0.0445584," ""- N/A -   """
0.81,22.528,0.00148279, NaN, NaN, NaN,0.0445584," ""- N/A -   """
0.82,22.6459,0.001499446, NaN, NaN, NaN,0.0445584," ""- N/A -   """
0.83,22.9998,0.00151333, NaN, NaN, NaN,0.04577916," ""- N/A -   """
0.84,23.2357,0.00152999, NaN, NaN, NaN,0.04577916," ""- N/A -   """
0.85,23.5895,0.001543874, NaN, NaN, NaN,0.04699994," ""- N/A -   """
0.86,23.7074,0.00156053, NaN, NaN, NaN,0.04699994," ""- N/A -   """
0.87,23.9433,0.001577195, NaN, NaN, NaN,0.04699994," ""- N/A -   """
0.88,24.1792,0.00159386, NaN, NaN, NaN,0.04699994," ""- N/A -   """
0.89,24.5331,0.00161052, NaN, NaN, NaN,0.04699994," ""- N/A -   """
0.9,24.769,0.00162718, NaN, NaN, NaN,0.04699994," ""- N/A -   """
0.91,25.1228,0.00164939, NaN, NaN, NaN,0.04577916," ""- N/A -   """
0.92,25.3587,0.00166883, NaN, NaN, NaN,0.0445584," ""- N/A -   """
0.93,25.8305,0.00168827, NaN, NaN, NaN,0.04211683," ""- N/A -   """
0.94,26.0664,0.00171048, NaN, NaN, NaN,0.04089605," ""- N/A -   """
0.95,26.4202,0.00172992, NaN, NaN, NaN,0.0384545," ""- N/A -   """
0.96,26.7741,0.00174935, NaN, NaN, NaN,0.0372337," ""- N/A -   """
0.97,27.01,0.00176879, NaN, NaN, NaN,0.03601294," ""- N/A -   """
0.98,27.3638,0.00178823, NaN, NaN, NaN,0.0347922," ""- N/A -   """
0.99,27.5997,0.00180767, NaN, NaN, NaN,0.0335714," ""- N/A -   """
1,27.95355,0.00182988, NaN, NaN, NaN,0.0323506," ""- N/A -   """
1.01,28.1894,0.00184654, NaN, NaN, NaN,0.03112983," ""- N/A -   """
1.02,28.42534,0.00186598, NaN, NaN, NaN,0.0299091," ""- N/A -   """
1.03,28.7792,0.00188264, NaN, NaN, NaN,0.0299091," ""- N/A -   """
1.04,29.133,0.0018993, NaN, NaN, NaN,0.0299091," ""- N/A -   """
1.05,29.251,0.00191596, NaN, NaN, NaN,0.0299091," ""- N/A -   """
1.06,29.6048,0.00193262, NaN, NaN, NaN,0.0299091," ""- N/A -   """
1.07,29.7228,0.00194928, NaN, NaN, NaN,0.0299091," ""- N/A -   """
1.08,30.0766,0.00196594, NaN, NaN, NaN,0.0299091," ""- N/A -   """
1.09,30.3125,0.001982601, NaN, NaN, NaN,0.0299091," ""- N/A -   """
1.1,30.4304,0.00199926, NaN, NaN, NaN,0.0299091," ""- N/A -   """
1.11,30.78429,0.00201592, NaN, NaN, NaN,0.0299091," ""- N/A -   """
1.12,31.0202,0.00202981, NaN, NaN, NaN,0.03112983," ""- N/A -   """
1.13,31.2561,0.002046466, NaN, NaN, NaN,0.03112983," ""- N/A -   """
1.14,31.492,0.00206035, NaN, NaN, NaN,0.0323506," ""- N/A -   """
1.15,31.72787,0.00207701, NaN, NaN, NaN,0.0323506," ""- N/A -   """
1.16,31.9638,0.00209089, NaN, NaN, NaN,0.0335714," ""- N/A -   """
1.17,32.08171,0.00210755, NaN, NaN, NaN,0.0347922," ""- N/A -   """
1.18,32.3176,0.00212144, NaN, NaN, NaN,0.0347922," ""- N/A -   """
1.19,32.67145,0.002138099, NaN, NaN, NaN,0.03601294," ""- N/A -   """
1.2,32.9073,0.00215476, NaN, NaN, NaN,0.03601294," ""- N/A -   """
1.21,33.1432,0.00217142, NaN, NaN, NaN,0.0347922," ""- N/A -   """
1.22,33.49708,0.00218808, NaN, NaN, NaN,0.0347922," ""- N/A -   """
1.23,33.73298,0.00220196, NaN, NaN, NaN,0.03601294," ""- N/A -   """
1.24,33.9689,0.0022214, NaN, NaN, NaN,0.03601294," ""- N/A -   """
1.25,34.2048,0.002238062, NaN, NaN, NaN,0.03601294," ""- N/A -   """
1.26,34.4407,0.00225195, NaN, NaN, NaN,0.03601294," ""- N/A -   """
1.27,34.6766,0.002271383, NaN, NaN, NaN,0.0347922," ""- N/A -   """
1.28,35.1483,0.00229082, NaN, NaN, NaN,0.0347922," ""- N/A -   """
1.29,35.3842,0.00231026, NaN, NaN, NaN,0.0323506," ""- N/A -   """
1.3,35.50219,0.002326918, NaN, NaN, NaN,0.0335714," ""- N/A -   """
1.31,35.85603,0.00234358, NaN, NaN, NaN,0.0323506," ""- N/A -   """
1.32,36.2099,0.002363016, NaN, NaN, NaN,0.0323506," ""- N/A -   """
1.33,36.44577,0.00237968, NaN, NaN, NaN,0.0323506," ""- N/A -   """
1.34,36.6817,0.00239356, NaN, NaN, NaN,0.0323506," ""- N/A -   """
1.35,36.9176,0.00241022, NaN, NaN, NaN,0.0323506," ""- N/A -   """
1.36,37.15345,0.0024241, NaN, NaN, NaN,0.0335714," ""- N/A -   """
1.37,37.3893,0.00243799, NaN, NaN, NaN,0.0347922," ""- N/A -   """
1.38,37.6252,0.00245187, NaN, NaN, NaN,0.03601294," ""- N/A -   """
1.39,37.8611,0.00246853, NaN, NaN, NaN,0.0372337," ""- N/A -   """
1.4,37.9791,0.00247964, NaN, NaN, NaN,0.0384545," ""- N/A -   """
1.41,38.3329,0.0024963, NaN, NaN, NaN,0.0384545," ""- N/A -   """
1.42,38.4509,0.00251018, NaN, NaN, NaN,0.0396753," ""- N/A -   """
1.43,38.8047,0.00252684, NaN, NaN, NaN,0.04089605," ""- N/A -   """
1.44,39.04061,0.00253795, NaN, NaN, NaN,0.04211683," ""- N/A -   """
1.45,39.2765,0.00255739, NaN, NaN, NaN,0.04211683," ""- N/A -   """
1.46,39.5124,0.00257127, NaN, NaN, NaN,0.04211683," ""- N/A -   """
1.47,39.7483,0.00258793, NaN, NaN, NaN,0.0433376," ""- N/A -   """
1.48,39.98419,0.00260459, NaN, NaN, NaN,0.0433376," ""- N/A -   """
1.49,40.33803,0.00262125, NaN, NaN, NaN,0.0433376," ""- N/A -   """
1.5,40.57393,0.00263791, NaN, NaN, NaN,0.04211683," ""- N/A -   """
1.51,40.9278,0.00265457, NaN, NaN, NaN,0.04211683," ""- N/A -   """
1.52,41.16367,0.00267401, NaN, NaN, NaN,0.04211683," ""- N/A -   """
1.53,41.39956,0.00269067, NaN, NaN, NaN,0.04089605," ""- N/A -   """
1.54,41.7534,0.00271011, NaN, NaN, NaN,0.0396753," ""- N/A -   """
1.55,41.9893,0.00272677, NaN, NaN, NaN,0.0396753," ""- N/A -   """
1.56,42.3431,0.002743431, NaN, NaN, NaN,0.0396753," ""- N/A -   """
1.57,42.579,0.00276009, NaN, NaN, NaN,0.0396753," ""- N/A -   """
1.58,42.8149,0.00277953, NaN, NaN, NaN,0.0396753," ""- N/A -   """
1.59,43.1688,0.002796189, NaN, NaN, NaN,0.0396753," ""- N/A -   """
1.6,43.40467,0.00281285, NaN, NaN, NaN,0.0384545," ""- N/A -   """
1.61,43.6406,0.00283229, NaN, NaN, NaN,0.0384545," ""- N/A -   """
1.62,43.9944,0.00284895, NaN, NaN, NaN,0.0372337," ""- N/A -   """
1.63,44.2303,0.00286838, NaN, NaN, NaN,0.0372337," ""- N/A -   """
1.64,44.58414,0.002885045, NaN, NaN, NaN,0.0372337," ""- N/A -   """
1.65,44.82,0.002898929, NaN, NaN, NaN,0.0372337," ""- N/A -   """
1.66,45.17388,0.00291559, NaN, NaN, NaN,0.0372337," ""- N/A -   """
1.67,45.17388,0.00293225, NaN, NaN, NaN,0.0372337," ""- N/A -   """
1.68,45.6457,0.00294613, NaN, NaN, NaN,0.0384545," ""- N/A -   """
1.69,45.9995,0.002965571, NaN, NaN, NaN,0.0384545," ""- N/A -   """
1.7,46.11746,0.00297945, NaN, NaN, NaN,0.0384545," ""- N/A -   """
1.71,46.4713,0.002996115, NaN, NaN, NaN,0.0384545," ""- N/A -   """
1.72,46.7072,0.003012776, NaN, NaN, NaN,0.0396753," ""- N/A -   """
1.73,46.9431,0.003029436, NaN, NaN, NaN,0.0384545," ""- N/A -   """
1.74,47.179,0.00304332, NaN, NaN, NaN,0.0396753," ""- N/A -   """
1.75,47.4149,0.00306276, NaN, NaN, NaN,0.0396753," ""- N/A -   """
1.76,47.65078,0.00307942, NaN, NaN, NaN,0.0396753," ""- N/A -   """
1.77,47.8867,0.003096078, NaN, NaN, NaN,0.0384545," ""- N/A -   """
1.78,48.2405,0.003115516, NaN, NaN, NaN,0.0384545," ""- N/A -   """
1.79,48.59436,0.00313495, NaN, NaN, NaN,0.0372337," ""- N/A -   """
1.8,48.9482,0.003151613, NaN, NaN, NaN,0.03601294," ""- N/A -   """
1.81,49.1841,0.003168274, NaN, NaN, NaN,0.03601294," ""- N/A -   """
1.82,49.5379,0.00318493, NaN, NaN, NaN,0.03601294," ""- N/A -   """
1.83,49.7738,0.00320437, NaN, NaN, NaN,0.0347922," ""- N/A -   """
1.84,50.1277,0.00322103, NaN, NaN, NaN,0.0347922," ""- N/A -   """
1.85,50.3636,0.00324047, NaN, NaN, NaN,0.0347922," ""- N/A -   """
1.86,50.5995,0.00325713, NaN, NaN, NaN,0.0335714," ""- N/A -   """
1.87,50.83536,0.00327379, NaN, NaN, NaN,0.0335714," ""- N/A -   """
1.88,51.0713,0.00329045, NaN, NaN, NaN,0.0335714," ""- N/A -   """
1.89,51.4251,0.00330711, NaN, NaN, NaN,0.0335714," ""- N/A -   """
1.9,51.543,0.003323772, NaN, NaN, NaN,0.0347922," ""- N/A -   """
1.91,51.89689,0.00334043, NaN, NaN, NaN,0.0335714," ""- N/A -   """
1.92,52.1328,0.003357093, NaN, NaN, NaN,0.0335714," ""- N/A -   """
1.93,52.48662,0.00337375, NaN, NaN, NaN,0.0335714," ""- N/A -   """
1.94,52.72252,0.00338764, NaN, NaN, NaN,0.0347922," ""- N/A -   """
1.95,52.9584,0.003404298, NaN, NaN, NaN,0.0347922," ""- N/A -   """
1.96,53.19431,0.00342096, NaN, NaN, NaN,0.0347922," ""- N/A -   """
1.97,53.54815,0.003437619, NaN, NaN, NaN,0.0347922," ""- N/A -   """
1.98,53.784,0.00345706, NaN, NaN, NaN,0.0347922," ""- N/A -   """
1.99,54.0199,0.00347372, NaN, NaN, NaN,0.0347922," ""- N/A -   """
2,54.2558,0.00349038, NaN, NaN, NaN,0.0335714," ""- N/A -   """
2.01,54.6097,0.00350704, NaN, NaN, NaN,0.0335714," ""- N/A -   """
2.02,54.8456,0.003523698, NaN, NaN, NaN,0.0335714," ""- N/A -   """
2.03,55.0815,0.00354314, NaN, NaN, NaN,0.0335714," ""- N/A -   """
2.04,55.43531,0.00355702, NaN, NaN, NaN,0.0335714," ""- N/A -   """
2.05,55.6712,0.00357368, NaN, NaN, NaN,0.0335714," ""- N/A -   """
2.06,56.02505,0.00359312, NaN, NaN, NaN,0.0335714," ""- N/A -   """
2.07,56.143,0.00360978, NaN, NaN, NaN,0.0335714," ""- N/A -   """
2.08,56.4968,0.003626438, NaN, NaN, NaN,0.0335714," ""- N/A -   """
2.09,56.73273,0.00364032, NaN, NaN, NaN,0.0335714," ""- N/A -   """
2.1,56.9686,0.00365698, NaN, NaN, NaN,0.0347922," ""- N/A -   """
2.11,57.20452,0.00367087, NaN, NaN, NaN,0.0347922," ""- N/A -   """
2.12,57.44042,0.00368753, NaN, NaN, NaN,0.0347922," ""- N/A -   """
2.13,57.79426,0.00370141, NaN, NaN, NaN,0.03601294," ""- N/A -   """
2.14,57.91221,0.00371529, NaN, NaN, NaN,0.0372337," ""- N/A -   """
2.15,58.1481,0.00373195, NaN, NaN, NaN,0.0384545," ""- N/A -   """
2.16,58.26605,0.00374862, NaN, NaN, NaN,0.0372337," ""- N/A -   """
2.17,58.7378,0.00376528, NaN, NaN, NaN,0.0384545," ""- N/A -   """
2.18,58.8558,0.00378194, NaN, NaN, NaN,0.0384545," ""- N/A -   """
2.19,59.2096,0.00379582, NaN, NaN, NaN,0.0384545," ""- N/A -   """
2.2,59.4455,0.0038097, NaN, NaN, NaN,0.0396753," ""- N/A -   """
2.21,59.68142,0.00382636, NaN, NaN, NaN,0.0396753," ""- N/A -   """
2.22,59.79937,0.00384025, NaN, NaN, NaN,0.04089605," ""- N/A -   """
2.23,60.0353,0.00385691, NaN, NaN, NaN,0.04089605," ""- N/A -   """
2.24,60.27116,0.00387079, NaN, NaN, NaN,0.04211683," ""- N/A -   """
2.25,60.5071,0.00388745, NaN, NaN, NaN,0.0433376," ""- N/A -   """
2.26,60.7429,0.00390134, NaN, NaN, NaN,0.0445584," ""- N/A -   """
2.27,60.97884,0.00391522, NaN, NaN, NaN,0.0445584," ""- N/A -   """
2.28,61.3327,0.00393188, NaN, NaN, NaN,0.0445584," ""- N/A -   """
2.29,61.6865,0.00394854, NaN, NaN, NaN,0.0445584," ""- N/A -   """
2.3,61.8045,0.00396798, NaN, NaN, NaN,0.0445584," ""- N/A -   """
2.31,62.0404,0.00398464, NaN, NaN, NaN,0.0445584," ""- N/A -   """
2.32,62.2763,0.00399852, NaN, NaN, NaN,0.0445584," ""- N/A -   """
2.33,62.5122,0.00401796, NaN, NaN, NaN,0.0445584," ""- N/A -   """
2.34,62.866,0.0040374, NaN, NaN, NaN,0.0433376," ""- N/A -   """
2.35,63.1019,0.00405683, NaN, NaN, NaN,0.04211683," ""- N/A -   """
2.36,63.45574,0.00407349, NaN, NaN, NaN,0.04089605," ""- N/A -   """
2.37,63.6916,0.00409293, NaN, NaN, NaN,0.0396753," ""- N/A -   """
2.38,64.04548,0.00411237, NaN, NaN, NaN,0.0384545," ""- N/A -   """
2.39,64.3993,0.00413181, NaN, NaN, NaN,0.0372337," ""- N/A -   """
2.4,64.75317,0.0041568, NaN, NaN, NaN,0.0347922," ""- N/A -   """
2.41,64.98906,0.00417346, NaN, NaN, NaN,0.0335714," ""- N/A -   """
2.42,65.3429,0.0041929, NaN, NaN, NaN,0.0323506," ""- N/A -   """
2.43,65.3429,0.00421233, NaN, NaN, NaN,0.0323506," ""- N/A -   """
2.44,65.81469,0.004228993, NaN, NaN, NaN,0.03112983," ""- N/A -   """
2.45,65.93263,0.00424565, NaN, NaN, NaN,0.03112983," ""- N/A -   """
2.46,66.2865,0.004265091, NaN, NaN, NaN,0.03112983," ""- N/A -   """
2.47,66.40443,0.00427897, NaN, NaN, NaN,0.03112983," ""- N/A -   """
2.48,66.64032,0.00429286, NaN, NaN, NaN,0.0323506," ""- N/A -   """
2.49,66.75827,0.00430952, NaN, NaN, NaN,0.0335714," ""- N/A -   """
2.5,66.99416,0.004323403, NaN, NaN, NaN,0.0335714," ""- N/A -   """
2.51,67.23006,0.004340063, NaN, NaN, NaN,0.0335714," ""- N/A -   """
2.52,67.46596,0.0043595, NaN, NaN, NaN,0.0335714," ""- N/A -   """
2.53,67.70185,0.004376161, NaN, NaN, NaN,0.0323506," ""- N/A -   """
2.54,67.9377,0.004392822, NaN, NaN, NaN,0.0323506," ""- N/A -   """
2.55,68.17364,0.004412259, NaN, NaN, NaN,0.0323506," ""- N/A -   """
2.56,68.52748,0.004428919, NaN, NaN, NaN,0.03112983," ""- N/A -   """
2.57,68.7634,0.00444558, NaN, NaN, NaN,0.03112983," ""- N/A -   """
2.58,68.9993,0.00446224, NaN, NaN, NaN,0.03112983," ""- N/A -   """
2.59,69.35311,0.004481678, NaN, NaN, NaN,0.0299091," ""- N/A -   """
2.6,69.589,0.004498338, NaN, NaN, NaN,0.0299091," ""- N/A -   """
2.61,69.8249,0.004515, NaN, NaN, NaN,0.0299091," ""- N/A -   """
2.62,70.0608,0.004534436, NaN, NaN, NaN,0.0299091," ""- N/A -   """
2.63,70.29669,0.004551096, NaN, NaN, NaN,0.0299091," ""- N/A -   """
2.64,70.5326,0.004567757, NaN, NaN, NaN,0.0299091," ""- N/A -   """
2.65,70.6505,0.004584417, NaN, NaN, NaN,0.0299091," ""- N/A -   """
2.66,70.88643,0.004598301, NaN, NaN, NaN,0.0299091," ""- N/A -   """
2.67,71.12233,0.004617738, NaN, NaN, NaN,0.0299091," ""- N/A -   """
2.68,71.4762,0.004631622, NaN, NaN, NaN,0.0299091," ""- N/A -   """
2.69,71.71206,0.00464828, NaN, NaN, NaN,0.0299091," ""- N/A -   """
2.7,71.83001,0.00466217, NaN, NaN, NaN,0.03112983," ""- N/A -   """
2.71,72.06591,0.004681604, NaN, NaN, NaN,0.03112983," ""- N/A -   """
2.72,72.41975,0.004695487, NaN, NaN, NaN,0.03112983," ""- N/A -   """
2.73,72.41975,0.004712148, NaN, NaN, NaN,0.0323506," ""- N/A -   """
2.74,72.77359,0.004726032, NaN, NaN, NaN,0.0323506," ""- N/A -   """
2.75,72.89154,0.004745469, NaN, NaN, NaN,0.0323506," ""- N/A -   """
2.76,73.12743,0.004759353, NaN, NaN, NaN,0.0323506," ""- N/A -   """
2.77,73.2454,0.004773237, NaN, NaN, NaN,0.0335714," ""- N/A -   """
2.78,73.48127,0.00478712, NaN, NaN, NaN,0.0347922," ""- N/A -   """
2.79,73.71717,0.004801004, NaN, NaN, NaN,0.03601294," ""- N/A -   """
2.8,73.83511,0.004814888, NaN, NaN, NaN,0.0372337," ""- N/A -   """
2.81,73.9531,0.004828772, NaN, NaN, NaN,0.0384545," ""- N/A -   """
2.82,74.071,0.00484266, NaN, NaN, NaN,0.04089605," ""- N/A -   """
2.83,74.3069,0.004856539, NaN, NaN, NaN,0.04211683," ""- N/A -   """
2.84,74.42485,0.004867646, NaN, NaN, NaN,0.0433376," ""- N/A -   """
2.85,74.5428,0.00488153, NaN, NaN, NaN,0.0445584," ""- N/A -   """
2.86,74.7787,0.00489819, NaN, NaN, NaN,0.0445584," ""- N/A -   """
2.87,75.13254,0.004914851, NaN, NaN, NaN,0.04577916," ""- N/A -   """
2.88,75.25049,0.00493151, NaN, NaN, NaN,0.0445584," ""- N/A -   """
2.89,75.48638,0.004945395, NaN, NaN, NaN,0.04577916," ""- N/A -   """
2.9,75.7223,0.004962056, NaN, NaN, NaN,0.04699994," ""- N/A -   """
2.91,75.95817,0.004975939, NaN, NaN, NaN,0.04699994," ""- N/A -   """
2.92,76.07612,0.0049926, NaN, NaN, NaN,0.04699994," ""- N/A -   """
2.93,76.31202,0.005012037, NaN, NaN, NaN,0.04699994," ""- N/A -   """
2.94,76.5479,0.005028698, NaN, NaN, NaN,0.04577916," ""- N/A -   """
2.95,76.7838,0.00504814, NaN, NaN, NaN,0.04577916," ""- N/A -   """
2.96,76.90175,0.0050648, NaN, NaN, NaN,0.0445584," ""- N/A -   """
2.97,77.13765,0.005084233, NaN, NaN, NaN,0.0433376," ""- N/A -   """
2.98,77.49149,0.00510367, NaN, NaN, NaN,0.0433376," ""- N/A -   """
2.99,77.72738,0.00512033, NaN, NaN, NaN,0.04211683," ""- N/A -   """
3,77.84533,0.00514254, NaN, NaN, NaN,0.04089605," ""- N/A -   """
3.01,78.19917,0.005161982, NaN, NaN, NaN,0.0396753," ""- N/A -   """
3.02,78.4351,0.00517864, NaN, NaN, NaN,0.0384545," ""- N/A -   """
3.03,78.67096,0.005198079, NaN, NaN, NaN,0.0372337," ""- N/A -   """
3.04,79.0248,0.00521474, NaN, NaN, NaN,0.0372337," ""- N/A -   """
3.05,79.14275,0.005234177, NaN, NaN, NaN,0.0372337," ""- N/A -   """
3.06,79.37865,0.005250838, NaN, NaN, NaN,0.03601294," ""- N/A -   """
3.07,79.61454,0.0052675, NaN, NaN, NaN,0.03601294," ""- N/A -   """
3.08,79.85043,0.005284159, NaN, NaN, NaN,0.03601294," ""- N/A -   """
3.09,80.0863,0.005303596, NaN, NaN, NaN,0.03601294," ""- N/A -   """
3.1,80.20428,0.00532026, NaN, NaN, NaN,0.0347922," ""- N/A -   """
3.11,80.44018,0.00533692, NaN, NaN, NaN,0.0347922," ""- N/A -   """
3.12,80.55813,0.00535358, NaN, NaN, NaN,0.0347922," ""- N/A -   """
3.13,80.794,0.00537024, NaN, NaN, NaN,0.0347922," ""- N/A -   """
3.14,80.912,0.0053869, NaN, NaN, NaN,0.0347922," ""- N/A -   """
3.15,81.14786,0.005403559, NaN, NaN, NaN,0.0347922," ""- N/A -   """
3.16,81.38376,0.00542022, NaN, NaN, NaN,0.0347922," ""- N/A -   """
3.17,81.61965,0.00544243, NaN, NaN, NaN,0.0335714," ""- N/A -   """
3.18,81.97349,0.00545909, NaN, NaN, NaN,0.0323506," ""- N/A -   """
3.19,82.09144,0.00547853, NaN, NaN, NaN,0.03112983," ""- N/A -   """
3.2,82.32734,0.00549797, NaN, NaN, NaN,0.0299091," ""- N/A -   """
3.21,82.56323,0.00551741, NaN, NaN, NaN,0.0299091," ""- N/A -   """
3.22,82.79912,0.00553407, NaN, NaN, NaN,0.0286883," ""- N/A -   """
3.23,83.15297,0.0055535, NaN, NaN, NaN,0.0274675," ""- N/A -   """
3.24,83.15297,0.00557016, NaN, NaN, NaN,0.0274675," ""- N/A -   """
3.25,83.38886,0.005586825, NaN, NaN, NaN,0.0274675," ""- N/A -   """
3.26,83.6248,0.00560349, NaN, NaN, NaN,0.0274675," ""- N/A -   """
3.27,83.86065,0.00562015, NaN, NaN, NaN,0.0274675," ""- N/A -   """
3.28,83.9786,0.00563681, NaN, NaN, NaN,0.0274675," ""- N/A -   """
3.29,84.21449,0.00565347, NaN, NaN, NaN,0.0286883," ""- N/A -   """
3.3,84.33244,0.00566735, NaN, NaN, NaN,0.0286883," ""- N/A -   """
3.31,84.45039,0.00568123, NaN, NaN, NaN,0.0299091," ""- N/A -   """
3.32,84.68629,0.00570067, NaN, NaN, NaN,0.0299091," ""- N/A -   """
3.33,84.80424,0.00571456, NaN, NaN, NaN,0.0299091," ""- N/A -   """
3.34,84.92217,0.00573399, NaN, NaN, NaN,0.0299091," ""- N/A -   """
3.35,85.04012,0.00574788, NaN, NaN, NaN,0.0299091," ""- N/A -   """
3.36,85.276,0.00576176, NaN, NaN, NaN,0.03112983," ""- N/A -   """
3.37,85.39397,0.00577842, NaN, NaN, NaN,0.03112983," ""- N/A -   """
3.38,85.62987,0.0057923, NaN, NaN, NaN,0.0323506," ""- N/A -   """
3.39,85.74781,0.005808965, NaN, NaN, NaN,0.0335714," ""- N/A -   """
3.4,85.9837,0.00582285, NaN, NaN, NaN,0.0347922," ""- N/A -   """
3.41,85.9837,0.00583673, NaN, NaN, NaN,0.0347922," ""- N/A -   """
3.42,86.2196,0.00585062, NaN, NaN, NaN,0.03601294," ""- N/A -   """
3.43,86.33755,0.005867277, NaN, NaN, NaN,0.0372337," ""- N/A -   """
3.44,86.57345,0.00588116, NaN, NaN, NaN,0.0372337," ""- N/A -   """
3.45,86.69139,0.00589504, NaN, NaN, NaN,0.0384545," ""- N/A -   """
3.46,86.80934,0.0059117, NaN, NaN, NaN,0.0396753," ""- N/A -   """
3.47,87.04523,0.005925589, NaN, NaN, NaN,0.0396753," ""- N/A -   """
3.48,87.16318,0.00593947, NaN, NaN, NaN,0.04089605," ""- N/A -   """
3.49,87.28113,0.00595336, NaN, NaN, NaN,0.04211683," ""- N/A -   """
3.5,87.51702,0.00596724, NaN, NaN, NaN,0.0433376," ""- N/A -   """
3.51,87.63497,0.0059839, NaN, NaN, NaN,0.0433376," ""- N/A -   """
3.52,87.75292,0.00600056, NaN, NaN, NaN,0.0445584," ""- N/A -   """
3.53,87.9888,0.00601722, NaN, NaN, NaN,0.0445584," ""- N/A -   """
3.54,88.10676,0.006033882, NaN, NaN, NaN,0.04577916," ""- N/A -   """
3.55,88.34265,0.00605054, NaN, NaN, NaN,0.0445584," ""- N/A -   """
3.56,88.6965,0.00606998, NaN, NaN, NaN,0.0433376," ""- N/A -   """
3.57,88.8144,0.00608664, NaN, NaN, NaN,0.0433376," ""- N/A -   """
3.58,89.05035,0.00610608, NaN, NaN, NaN,0.0433376," ""- N/A -   """
3.59,89.28623,0.00612274, NaN, NaN, NaN,0.04211683," ""- N/A -   """
3.6,89.40418,0.006136622, NaN, NaN, NaN,0.0433376," ""- N/A -   """
3.61,89.52213,0.00615328, NaN, NaN, NaN,0.0445584," ""- N/A -   """
3.62,89.6401,0.006167166, NaN, NaN, NaN,0.0445584," ""- N/A -   """
3.63,89.758,0.006183827, NaN, NaN, NaN,0.0445584," ""- N/A -   """
3.64,89.99392,0.006200487, NaN, NaN, NaN,0.0445584," ""- N/A -   """
3.65,90.11186,0.006214371, NaN, NaN, NaN,0.04577916," ""- N/A -   """
3.66,90.34776,0.006233808, NaN, NaN, NaN,0.04577916," ""- N/A -   """
3.67,90.58366,0.00625047, NaN, NaN, NaN,0.04577916," ""- N/A -   """
3.68,90.70161,0.006267129, NaN, NaN, NaN,0.0445584," ""- N/A -   """
3.69,91.05545,0.00628379, NaN, NaN, NaN,0.0445584," ""- N/A -   """
3.7,91.1734,0.006303227, NaN, NaN, NaN,0.0433376," ""- N/A -   """
3.71,91.40929,0.006319887, NaN, NaN, NaN,0.0433376," ""- N/A -   """
3.72,91.64519,0.00633932, NaN, NaN, NaN,0.04211683," ""- N/A -   """
3.73,91.76313,0.006355985, NaN, NaN, NaN,0.04211683," ""- N/A -   """
3.74,91.99903,0.00637542, NaN, NaN, NaN,0.04089605," ""- N/A -   """
3.75,92.35287,0.006400413, NaN, NaN, NaN,0.0384545," ""- N/A -   """
3.76,92.58876,0.00641985, NaN, NaN, NaN,0.03601294," ""- N/A -   """
3.77,92.82466,0.00644206, NaN, NaN, NaN,0.0335714," ""- N/A -   """
3.78,93.1785,0.006461502, NaN, NaN, NaN,0.0323506," ""- N/A -   """
3.79,93.41439,0.006480939, NaN, NaN, NaN,0.03112983," ""- N/A -   """
3.8,93.53234,0.006503153, NaN, NaN, NaN,0.0299091," ""- N/A -   """
3.81,93.8862,0.006519814, NaN, NaN, NaN,0.0286883," ""- N/A -   """
3.82,94.0041,0.006536474, NaN, NaN, NaN,0.0286883," ""- N/A -   """
3.83,94.0041,0.006553135, NaN, NaN, NaN,0.0286883," ""- N/A -   """
3.84,94.24,0.006569795, NaN, NaN, NaN,0.0286883," ""- N/A -   """
3.85,94.35797,0.00658646, NaN, NaN, NaN,0.0299091," ""- N/A -   """
3.86,94.59387,0.006603116, NaN, NaN, NaN,0.0286883," ""- N/A -   """
3.87,94.8298,0.006619777, NaN, NaN, NaN,0.0286883," ""- N/A -   """
3.88,94.9477,0.006636437, NaN, NaN, NaN,0.0286883," ""- N/A -   """
3.89,95.06567,0.006653098, NaN, NaN, NaN,0.0286883," ""- N/A -   """
3.9,95.30156,0.00666976, NaN, NaN, NaN,0.0286883," ""- N/A -   """
3.91,95.41951,0.006686419, NaN, NaN, NaN,0.0286883," ""- N/A -   """
3.92,95.6554,0.006703079, NaN, NaN, NaN,0.0299091," ""- N/A -   """
3.93,95.7733,0.006716963, NaN, NaN, NaN,0.0299091," ""- N/A -   """
3.94,96.00924,0.00673362, NaN, NaN, NaN,0.0299091," ""- N/A -   """
3.95,96.00924,0.006750284, NaN, NaN, NaN,0.03112983," ""- N/A -   """
3.96,96.12719,0.006764168, NaN, NaN, NaN,0.0323506," ""- N/A -   """
3.97,96.36309,0.006778051, NaN, NaN, NaN,0.0335714," ""- N/A -   """
3.98,96.599,0.006794712, NaN, NaN, NaN,0.0323506," ""- N/A -   """
3.99,96.71693,0.006808596, NaN, NaN, NaN,0.0335714," ""- N/A -   """
4,96.95282,0.00682248, NaN, NaN, NaN,0.0347922," ""- N/A -   """
4.01,96.95282,0.006836363, NaN, NaN, NaN,0.03601294," ""- N/A -   """
4.02,97.07077,0.006853024, NaN, NaN, NaN,0.03601294," ""- N/A -   """
4.03,97.30666,0.006872461, NaN, NaN, NaN,0.03601294," ""- N/A -   """
4.04,97.54256,0.006886345, NaN, NaN, NaN,0.03601294," ""- N/A -   """
4.05,97.6605,0.00690301, NaN, NaN, NaN,0.03601294," ""- N/A -   """
4.06,97.77845,0.006919666, NaN, NaN, NaN,0.0372337," ""- N/A -   """
4.07,98.01435,0.00693355, NaN, NaN, NaN,0.0372337," ""- N/A -   """
4.08,98.2502,0.006952987, NaN, NaN, NaN,0.0372337," ""- N/A -   """
4.09,98.4861,0.00696965, NaN, NaN, NaN,0.03601294," ""- N/A -   """
4.1,98.4861,0.006986308, NaN, NaN, NaN,0.03601294," ""- N/A -   """
4.11,98.83998,0.00700297, NaN, NaN, NaN,0.03601294," ""- N/A -   """
4.12,98.9579,0.00701963, NaN, NaN, NaN,0.03601294," ""- N/A -   """
4.13,99.1938,0.00703907, NaN, NaN, NaN,0.03601294," ""- N/A -   """
4.14,99.3118,0.00705295, NaN, NaN, NaN,0.03601294," ""- N/A -   """
4.15,99.42972,0.00706961, NaN, NaN, NaN,0.0372337," ""- N/A -   """
4.16,99.66561,0.007083494, NaN, NaN, NaN,0.0372337," ""- N/A -   """
4.17,99.7836,0.00709738, NaN, NaN, NaN,0.0384545," ""- N/A -   """
4.18,100.019,0.00711404, NaN, NaN, NaN,0.0396753," ""- N/A -   """
4.19,100.137,0.00712515, NaN, NaN, NaN,0.04089605," ""- N/A -   """
4.2,100.255,0.007141806, NaN, NaN, NaN,0.04089605," ""- N/A -   """
4.21,100.3733,0.00715847, NaN, NaN, NaN,0.04211683," ""- N/A -   """
4.22,100.491,0.00717235, NaN, NaN, NaN,0.04211683," ""- N/A -   """
4.23,100.6092,0.00718623, NaN, NaN, NaN,0.0433376," ""- N/A -   """
4.24,100.845,0.00720012, NaN, NaN, NaN,0.0445584," ""- N/A -   """
4.25,101.081,0.00721678, NaN, NaN, NaN,0.04577916," ""- N/A -   """
4.26,101.199,0.00723066, NaN, NaN, NaN,0.04577916," ""- N/A -   """
4.27,101.317,0.00724455, NaN, NaN, NaN,0.04699994," ""- N/A -   """
4.28,101.553,0.00726121, NaN, NaN, NaN,0.04699994," ""- N/A -   """
4.29,101.789,0.00728064, NaN, NaN, NaN,0.04699994," ""- N/A -   """
4.3,101.907,0.0072973, NaN, NaN, NaN,0.04577916," ""- N/A -   """
4.31,102.26,0.00731674, NaN, NaN, NaN,0.0445584," ""- N/A -   """
4.32,102.496,0.007336179, NaN, NaN, NaN,0.0445584," ""- N/A -   """
4.33,102.732,0.00735562, NaN, NaN, NaN,0.04211683," ""- N/A -   """
4.34,103.086,0.00737505, NaN, NaN, NaN,0.04089605," ""- N/A -   """
4.35,103.204,0.00739449, NaN, NaN, NaN,0.0396753," ""- N/A -   """
4.36,103.44,0.00741393, NaN, NaN, NaN,0.0384545," ""- N/A -   """
4.37,103.676,0.00743336, NaN, NaN, NaN,0.0372337," ""- N/A -   """
4.38,103.912,0.0074528, NaN, NaN, NaN,0.0372337," ""- N/A -   """
4.39,104.148,0.00747224, NaN, NaN, NaN,0.03601294," ""- N/A -   """
4.4,104.384,0.00749168, NaN, NaN, NaN,0.0347922," ""- N/A -   """
4.41,104.619,0.00750834, NaN, NaN, NaN,0.0335714," ""- N/A -   """
4.42,104.855,0.00752777, NaN, NaN, NaN,0.0323506," ""- N/A -   """
4.43,104.973,0.007547212, NaN, NaN, NaN,0.0323506," ""- N/A -   """
4.44,105.209,0.00756387, NaN, NaN, NaN,0.0323506," ""- N/A -   """
4.45,105.327,0.00758053, NaN, NaN, NaN,0.0323506," ""- N/A -   """
4.46,105.563,0.00759719, NaN, NaN, NaN,0.03112983," ""- N/A -   """
4.47,105.799,0.00761385, NaN, NaN, NaN,0.03112983," ""- N/A -   """
4.48,105.917,0.00763051, NaN, NaN, NaN,0.03112983," ""- N/A -   """
4.49,106.035,0.0076444, NaN, NaN, NaN,0.0323506," ""- N/A -   """
4.5,106.271,0.00766106, NaN, NaN, NaN,0.0323506," ""- N/A -   """
4.51,106.507,0.007677719, NaN, NaN, NaN,0.0323506," ""- N/A -   """
4.52,106.625,0.0076916, NaN, NaN, NaN,0.0335714," ""- N/A -   """
4.53,106.742,0.00770826, NaN, NaN, NaN,0.0335714," ""- N/A -   """
4.54,106.86,0.007724924, NaN, NaN, NaN,0.0347922," ""- N/A -   """
4.55,107.0963,0.00773881, NaN, NaN, NaN,0.0347922," ""- N/A -   """
4.56,107.3322,0.007755468, NaN, NaN, NaN,0.0347922," ""- N/A -   """
4.57,107.3322,0.00777213, NaN, NaN, NaN,0.03601294," ""- N/A -   """
4.58,107.45,0.00778601, NaN, NaN, NaN,0.03601294," ""- N/A -   """
4.59,107.804,0.00780267, NaN, NaN, NaN,0.03601294," ""- N/A -   """
4.6,107.922,0.007819334, NaN, NaN, NaN,0.0372337," ""- N/A -   """
4.61,108.158,0.007833217, NaN, NaN, NaN,0.0372337," ""- N/A -   """
4.62,108.276,0.007852655, NaN, NaN, NaN,0.03601294," ""- N/A -   """
4.63,108.512,0.007872092, NaN, NaN, NaN,0.03601294," ""- N/A -   """
4.64,108.748,0.007891529, NaN, NaN, NaN,0.0347922," ""- N/A -   """
4.65,108.983,0.00790819, NaN, NaN, NaN,0.0335714," ""- N/A -   """
4.66,109.219,0.00792485, NaN, NaN, NaN,0.0335714," ""- N/A -   """
4.67,109.219,0.00794151, NaN, NaN, NaN,0.0335714," ""- N/A -   """
4.68,109.5732,0.007958171, NaN, NaN, NaN,0.0335714," ""- N/A -   """
4.69,109.8091,0.007974831, NaN, NaN, NaN,0.0335714," ""- N/A -   """
4.7,109.927,0.007991492, NaN, NaN, NaN,0.0335714," ""- N/A -   """
4.71,110.163,0.008008153, NaN, NaN, NaN,0.0335714," ""- N/A -   """
4.72,110.281,0.00802759, NaN, NaN, NaN,0.0335714," ""- N/A -   """
4.73,110.399,0.008041474, NaN, NaN, NaN,0.0335714," ""- N/A -   """
4.74,110.753,0.00805813, NaN, NaN, NaN,0.0335714," ""- N/A -   """
4.75,110.753,0.008074795, NaN, NaN, NaN,0.0335714," ""- N/A -   """
4.76,110.989,0.008091455, NaN, NaN, NaN,0.0335714," ""- N/A -   """
4.77,111.107,0.008108116, NaN, NaN, NaN,0.0347922," ""- N/A -   """
4.78,111.224,0.008121999, NaN, NaN, NaN,0.0347922," ""- N/A -   """
4.79,111.46,0.00813866, NaN, NaN, NaN,0.0347922," ""- N/A -   """
4.8,111.578,0.008152544, NaN, NaN, NaN,0.03601294," ""- N/A -   """
4.81,111.8142,0.008166427, NaN, NaN, NaN,0.0372337," ""- N/A -   """
4.82,111.8142,0.008183088, NaN, NaN, NaN,0.0384545," ""- N/A -   """
4.83,112.168,0.008196972, NaN, NaN, NaN,0.0384545," ""- N/A -   """
4.84,112.286,0.008210856, NaN, NaN, NaN,0.0396753," ""- N/A -   """
4.85,112.404,0.008224739, NaN, NaN, NaN,0.04089605," ""- N/A -   """
4.86,112.64,0.0082414, NaN, NaN, NaN,0.04089605," ""- N/A -   """
4.87,112.758,0.008258061, NaN, NaN, NaN,0.04089605," ""- N/A -   """
4.88,113.112,0.008274721, NaN, NaN, NaN,0.04089605," ""- N/A -   """
4.89,113.23,0.008294158, NaN, NaN, NaN,0.04089605," ""- N/A -   """
4.9,113.465,0.008310818, NaN, NaN, NaN,0.0396753," ""- N/A -   """
4.91,113.701,0.008330256, NaN, NaN, NaN,0.0396753," ""- N/A -   """
4.92,113.937,0.008344139, NaN, NaN, NaN,0.0396753," ""- N/A -   """
4.93,114.173,0.008363577, NaN, NaN, NaN,0.0396753," ""- N/A -   """
4.94,114.409,0.008380237, NaN, NaN, NaN,0.0384545," ""- N/A -   """
4.95,114.527,0.008394121, NaN, NaN, NaN,0.0396753," ""- N/A -   """
4.96,114.763,0.008410782, NaN, NaN, NaN,0.0396753," ""- N/A -   """
4.97,114.881,0.008427442, NaN, NaN, NaN,0.04089605," ""- N/A -   """
4.98,114.999,0.0084441, NaN, NaN, NaN,0.04089605," ""- N/A -   """
4.99,115.235,0.008460763, NaN, NaN, NaN,0.04089605," ""- N/A -   """
5,115.471,0.008474647, NaN, NaN, NaN,0.04089605," ""- N/A -   """
5.01,115.706,0.008494084, NaN, NaN, NaN,0.04089605," ""- N/A -   """
5.02,115.942,0.008513521, NaN, NaN, NaN,0.0396753," ""- N/A -   """
5.03,116.06,0.008530182, NaN, NaN, NaN,0.0384545," ""- N/A -   """
5.04,116.296,0.008546842, NaN, NaN, NaN,0.0384545," ""- N/A -   """
5.05,116.5321,0.008563503, NaN, NaN, NaN,0.0384545," ""- N/A -   """
5.06,116.768,0.008580163, NaN, NaN, NaN,0.0384545," ""- N/A -   """
5.07,116.886,0.00859682, NaN, NaN, NaN,0.0384545," ""- N/A -   """
5.08,117.122,0.008616261, NaN, NaN, NaN,0.0372337," ""- N/A -   """
5.09,117.358,0.008635699, NaN, NaN, NaN,0.03601294," ""- N/A -   """
5.1,117.594,0.008652359, NaN, NaN, NaN,0.03601294," ""- N/A -   """
5.11,117.83,0.00866902, NaN, NaN, NaN,0.0372337," ""- N/A -   """
5.12,117.947,0.00868568, NaN, NaN, NaN,0.0372337," ""- N/A -   """
5.13,118.183,0.008699563, NaN, NaN, NaN,0.0372337," ""- N/A -   """
5.14,118.301,0.008716225, NaN, NaN, NaN,0.0372337," ""- N/A -   """
5.15,118.537,0.008735661, NaN, NaN, NaN,0.0372337," ""- N/A -   """
5.16,118.7731,0.008752322, NaN, NaN, NaN,0.0372337," ""- N/A -   """
5.17,118.891,0.008768982, NaN, NaN, NaN,0.03601294," ""- N/A -   """
5.18,119.127,0.008785644, NaN, NaN, NaN,0.03601294," ""- N/A -   """
5.19,119.245,0.008802303, NaN, NaN, NaN,0.03601294," ""- N/A -   """
5.2,119.481,0.00881896, NaN, NaN, NaN,0.03601294," ""- N/A -   """
5.21,119.717,0.008835625, NaN, NaN, NaN,0.03601294," ""- N/A -   """
5.22,119.835,0.008855062, NaN, NaN, NaN,0.03601294," ""- N/A -   """
5.23,120.071,0.008871722, NaN, NaN, NaN,0.0347922," ""- N/A -   """
5.24,120.424,0.00889116, NaN, NaN, NaN,0.0347922," ""- N/A -   """
5.25,120.424,0.00890782, NaN, NaN, NaN,0.0347922," ""- N/A -   """
5.26,120.778,0.00892448, NaN, NaN, NaN,0.0335714," ""- N/A -   """
5.27,121.014,0.008943918, NaN, NaN, NaN,0.0323506," ""- N/A -   """
5.28,121.132,0.008960579, NaN, NaN, NaN,0.0323506," ""- N/A -   """
5.29,121.368,0.008980015, NaN, NaN, NaN,0.03112983," ""- N/A -   """
5.3,121.604,0.008996677, NaN, NaN, NaN,0.03112983," ""- N/A -   """
5.31,121.84,0.009016113, NaN, NaN, NaN,0.03112983," ""- N/A -   """
5.32,122.076,0.009032774, NaN, NaN, NaN,0.0299091," ""- N/A -   """
5.33,122.194,0.009049434, NaN, NaN, NaN,0.0299091," ""- N/A -   """
5.34,122.429,0.009066095, NaN, NaN, NaN,0.03112983," ""- N/A -   """
5.35,122.547,0.009082756, NaN, NaN, NaN,0.03112983," ""- N/A -   """
5.36,122.783,0.009096639, NaN, NaN, NaN,0.03112983," ""- N/A -   """
5.37,122.901,0.009116077, NaN, NaN, NaN,0.03112983," ""- N/A -   """
5.38,123.255,0.00912996, NaN, NaN, NaN,0.03112983," ""- N/A -   """
5.39,123.373,0.009143844, NaN, NaN, NaN,0.0323506," ""- N/A -   """
5.4,123.491,0.00915773, NaN, NaN, NaN,0.0335714," ""- N/A -   """
5.41,123.609,0.009171612, NaN, NaN, NaN,0.0347922," ""- N/A -   """
5.42,123.845,0.009188272, NaN, NaN, NaN,0.03601294," ""- N/A -   """
5.43,123.963,0.00920493, NaN, NaN, NaN,0.0347922," ""- N/A -   """
5.44,124.199,0.009221593, NaN, NaN, NaN,0.0347922," ""- N/A -   """
5.45,124.435,0.009241031, NaN, NaN, NaN,0.0347922," ""- N/A -   """
5.46,124.788,0.009260467, NaN, NaN, NaN,0.0335714," ""- N/A -   """
5.47,124.906,0.009277128, NaN, NaN, NaN,0.0323506," ""- N/A -   """
5.48,125.142,0.009293789, NaN, NaN, NaN,0.0323506," ""- N/A -   """
5.49,125.378,0.009310449, NaN, NaN, NaN,0.0323506," ""- N/A -   """
5.5,125.614,0.009329887, NaN, NaN, NaN,0.0323506," ""- N/A -   """
5.51,125.732,0.00934377, NaN, NaN, NaN,0.0323506," ""- N/A -   """
5.52,125.9679,0.009360431, NaN, NaN, NaN,0.0335714," ""- N/A -   """
5.53,126.086,0.009374315, NaN, NaN, NaN,0.0335714," ""- N/A -   """
5.54,126.204,0.009388198, NaN, NaN, NaN,0.0347922," ""- N/A -   """
5.55,126.204,0.009402082, NaN, NaN, NaN,0.03601294," ""- N/A -   """
5.56,126.44,0.00941597, NaN, NaN, NaN,0.0372337," ""- N/A -   """
5.57,126.676,0.00942985, NaN, NaN, NaN,0.0384545," ""- N/A -   """
5.58,126.794,0.00944651, NaN, NaN, NaN,0.0396753," ""- N/A -   """
5.59,127.029,0.009460394, NaN, NaN, NaN,0.04089605," ""- N/A -   """
5.6,127.029,0.00947428, NaN, NaN, NaN,0.04089605," ""- N/A -   """
5.61,127.383,0.009490938, NaN, NaN, NaN,0.04089605," ""- N/A -   """
5.62,127.619,0.009507598, NaN, NaN, NaN,0.04089605," ""- N/A -   """
5.63,127.737,0.009524259, NaN, NaN, NaN,0.04089605," ""- N/A -   """
5.64,127.973,0.009538142, NaN, NaN, NaN,0.04211683," ""- N/A -   """
5.65,127.973,0.009552026, NaN, NaN, NaN,0.0433376," ""- N/A -   """
5.66,128.327,0.00956591, NaN, NaN, NaN,0.0445584," ""- N/A -   """
5.67,128.4448,0.009582571, NaN, NaN, NaN,0.0445584," ""- N/A -   """
5.68,128.6807,0.009599232, NaN, NaN, NaN,0.0445584," ""- N/A -   """
5.69,128.917,0.009615892, NaN, NaN, NaN,0.04577916," ""- N/A -   """
5.7,129.152,0.009632552, NaN, NaN, NaN,0.0445584," ""- N/A -   """
5.71,129.27,0.00964921, NaN, NaN, NaN,0.0445584," ""- N/A -   """
5.72,129.506,0.009665874, NaN, NaN, NaN,0.04577916," ""- N/A -   """
5.73,129.742,0.009682534, NaN, NaN, NaN,0.0445584," ""- N/A -   """
5.74,130.096,0.009701972, NaN, NaN, NaN,0.0433376," ""- N/A -   """
5.75,130.332,0.009721409, NaN, NaN, NaN,0.04211683," ""- N/A -   """
5.76,130.568,0.009740846, NaN, NaN, NaN,0.04089605," ""- N/A -   """
5.77,130.922,0.00976306, NaN, NaN, NaN,0.0396753," ""- N/A -   """
5.78,131.1576,0.009779721, NaN, NaN, NaN,0.0384545," ""- N/A -   """
5.79,131.511,0.00980193, NaN, NaN, NaN,0.0372337," ""- N/A -   """
5.8,131.629,0.009821372, NaN, NaN, NaN,0.03601294," ""- N/A -   """
5.81,131.983,0.009838033, NaN, NaN, NaN,0.0347922," ""- N/A -   """
5.82,132.219,0.00985747, NaN, NaN, NaN,0.0335714," ""- N/A -   """
5.83,132.455,0.00987413, NaN, NaN, NaN,0.0335714," ""- N/A -   """
5.84,132.573,0.009893566, NaN, NaN, NaN,0.0335714," ""- N/A -   """
5.85,132.809,0.009910228, NaN, NaN, NaN,0.0323506," ""- N/A -   """
5.86,133.045,0.009926888, NaN, NaN, NaN,0.0323506," ""- N/A -   """
[...]
25.23,747.814,0.0422094, NaN, NaN, NaN,0.0335714," ""- N/A -   """
25.25,748.642,0.0422427, NaN, NaN, NaN,0.0323506," ""- N/A -   """
25.27,749.4703,0.0422733, NaN, NaN, NaN,0.0335714," ""- N/A -   """
25.29,749.9434,0.04230104, NaN, NaN, NaN,0.03601294," ""- N/A -   """
25.31,750.6531,0.04233158, NaN, NaN, NaN,0.0372337," ""- N/A -   """
25.33,751.2445,0.04235935, NaN, NaN, NaN,0.0396753," ""- N/A -   """
25.35,752.072,0.0423899, NaN, NaN, NaN,0.04089605," ""- N/A -   """
25.37,752.782,0.042426, NaN, NaN, NaN,0.04089605," ""- N/A -   """
25.39,753.7284,0.0424593, NaN, NaN, NaN,0.0396753," ""- N/A -   """
25.41,754.438,0.04249263, NaN, NaN, NaN,0.0396753," ""- N/A -   """
25.43,755.148,0.042526, NaN, NaN, NaN,0.0396753," ""- N/A -   """
25.45,756.094,0.0425593, NaN, NaN, NaN,0.0396753," ""- N/A -   """
25.47,756.922,0.04259537, NaN, NaN, NaN,0.0396753," ""- N/A -   """
25.49,757.75,0.04263147, NaN, NaN, NaN,0.0372337," ""- N/A -   """
25.51,758.696,0.0426676, NaN, NaN, NaN,0.03601294," ""- N/A -   """
25.53,759.6424,0.0427037, NaN, NaN, NaN,0.0347922," ""- N/A -   """
25.55,760.5887,0.042737, NaN, NaN, NaN,0.0347922," ""- N/A -   """
25.57,761.298,0.0427731, NaN, NaN, NaN,0.0347922," ""- N/A -   """
25.59,762.008,0.0428036, NaN, NaN, NaN,0.0347922," ""- N/A -   """
25.61,762.836,0.042837, NaN, NaN, NaN,0.0347922," ""- N/A -   """
25.63,763.5457,0.0428675, NaN, NaN, NaN,0.03601294," ""- N/A -   """
25.65,764.374,0.0429008, NaN, NaN, NaN,0.03601294," ""- N/A -   """
25.67,765.202,0.0429369, NaN, NaN, NaN,0.03601294," ""- N/A -   """
25.69,766.0296,0.04297301, NaN, NaN, NaN,0.0335714," ""- N/A -   """
25.71,766.9758,0.04300911, NaN, NaN, NaN,0.0323506," ""- N/A -   """
25.73,767.9221,0.04304243, NaN, NaN, NaN,0.0323506," ""- N/A -   """
25.75,768.6318,0.0430785, NaN, NaN, NaN,0.03112983," ""- N/A -   """
25.77,769.4597,0.04311185, NaN, NaN, NaN,0.03112983," ""- N/A -   """
25.79,770.1694,0.04314517, NaN, NaN, NaN,0.03112983," ""- N/A -   """
25.81,770.879,0.0431757, NaN, NaN, NaN,0.0323506," ""- N/A -   """
25.83,771.7071,0.043209, NaN, NaN, NaN,0.0323506," ""- N/A -   """
25.85,772.535,0.0432424, NaN, NaN, NaN,0.0323506," ""- N/A -   """
25.87,773.245,0.0432757, NaN, NaN, NaN,0.0323506," ""- N/A -   """
25.89,774.0727,0.04330622, NaN, NaN, NaN,0.0335714," ""- N/A -   """
25.91,774.664,0.0433368, NaN, NaN, NaN,0.0347922," ""- N/A -   """
25.93,775.6103,0.0433729, NaN, NaN, NaN,0.0347922," ""- N/A -   """
25.95,776.675,0.04340896, NaN, NaN, NaN,0.0323506," ""- N/A -   """
25.97,777.2663,0.0434395, NaN, NaN, NaN,0.0335714," ""- N/A -   """
25.99,777.976,0.04347005, NaN, NaN, NaN,0.0347922," ""- N/A -   """
26.01,778.686,0.0434978, NaN, NaN, NaN,0.0372337," ""- N/A -   """
26.03,779.277,0.0435284, NaN, NaN, NaN,0.0384545," ""- N/A -   """
26.05,779.868,0.0435561, NaN, NaN, NaN,0.04089605," ""- N/A -   """
26.07,780.6964,0.04358945, NaN, NaN, NaN,0.04089605," ""- N/A -   """
26.09,781.4061,0.04362277, NaN, NaN, NaN,0.04211683," ""- N/A -   """
26.11,782.2341,0.0436533, NaN, NaN, NaN,0.04211683," ""- N/A -   """
26.13,782.9437,0.04368386, NaN, NaN, NaN,0.0433376," ""- N/A -   """
26.15,783.7717,0.04371718, NaN, NaN, NaN,0.0445584," ""- N/A -   """
26.17,784.5997,0.0437477, NaN, NaN, NaN,0.04699994," ""- N/A -   """
26.19,785.4276,0.04378382, NaN, NaN, NaN,0.04577916," ""- N/A -   """
26.21,786.2557,0.04381992, NaN, NaN, NaN,0.0445584," ""- N/A -   """
26.23,787.0836,0.043856, NaN, NaN, NaN,0.04211683," ""- N/A -   """
26.25,787.912,0.0438893, NaN, NaN, NaN,0.04211683," ""- N/A -   """
26.27,788.858,0.0439282, NaN, NaN, NaN,0.0396753," ""- N/A -   """
26.29,789.8041,0.04396431, NaN, NaN, NaN,0.0384545," ""- N/A -   """
26.31,790.7503,0.04400041, NaN, NaN, NaN,0.0372337," ""- N/A -   """
26.33,791.5783,0.0440365, NaN, NaN, NaN,0.03601294," ""- N/A -   """
26.35,792.406,0.0440726, NaN, NaN, NaN,0.03601294," ""- N/A -   """
26.37,793.3525,0.0441087, NaN, NaN, NaN,0.0347922," ""- N/A -   """
26.39,794.0622,0.0441392, NaN, NaN, NaN,0.0347922," ""- N/A -   """
26.41,794.89,0.0441726, NaN, NaN, NaN,0.0347922," ""- N/A -   """
26.43,795.7181,0.0442059, NaN, NaN, NaN,0.0347922," ""- N/A -   """
26.45,796.428,0.0442364, NaN, NaN, NaN,0.03601294," ""- N/A -   """
26.47,797.256,0.04427253, NaN, NaN, NaN,0.03601294," ""- N/A -   """
26.49,798.0837,0.0443059, NaN, NaN, NaN,0.0347922," ""- N/A -   """
26.51,798.9116,0.0443447, NaN, NaN, NaN,0.0323506," ""- N/A -   """
26.53,799.9762,0.0443836, NaN, NaN, NaN,0.03112983," ""- N/A -   """
26.55,800.804,0.0444169, NaN, NaN, NaN,0.0299091," ""- N/A -   """
26.57,801.6321,0.0444502, NaN, NaN, NaN,0.0299091," ""- N/A -   """
26.59,802.2236,0.0444836, NaN, NaN, NaN,0.0299091," ""- N/A -   """
26.61,803.0515,0.04451411, NaN, NaN, NaN,0.03112983," ""- N/A -   """
26.63,803.6429,0.0445447, NaN, NaN, NaN,0.0323506," ""- N/A -   """
26.65,804.4709,0.0445752, NaN, NaN, NaN,0.0335714," ""- N/A -   """
26.67,805.0623,0.0446002, NaN, NaN, NaN,0.0372337," ""- N/A -   """
26.69,805.5354,0.0446252, NaN, NaN, NaN,0.04089605," ""- N/A -   """
26.71,806.245,0.0446529, NaN, NaN, NaN,0.0433376," ""- N/A -   """
26.73,806.8365,0.0446863, NaN, NaN, NaN,0.0445584," ""- N/A -   """
26.75,807.6645,0.0447168, NaN, NaN, NaN,0.0445584," ""- N/A -   """
26.77,808.374,0.04475013, NaN, NaN, NaN,0.04577916," ""- N/A -   """
26.79,809.2021,0.0447779, NaN, NaN, NaN,0.04699994," ""- N/A -   """
26.81,809.9118,0.0448084, NaN, NaN, NaN,0.0482207," ""- N/A -   """
26.83,810.74,0.0448445, NaN, NaN, NaN,0.04699994," ""- N/A -   """
26.85,811.804,0.0448806, NaN, NaN, NaN,0.04577916," ""- N/A -   """
26.87,812.751,0.0449195, NaN, NaN, NaN,0.0433376," ""- N/A -   """
26.89,813.5785,0.0449584, NaN, NaN, NaN,0.04089605," ""- N/A -   """
26.91,814.643,0.04500004, NaN, NaN, NaN,0.0384545," ""- N/A -   """
26.93,815.5893,0.0450361, NaN, NaN, NaN,0.03601294," ""- N/A -   """
26.95,816.5355,0.0450722, NaN, NaN, NaN,0.0347922," ""- N/A -   """
26.97,817.3635,0.0451083, NaN, NaN, NaN,0.0335714," ""- N/A -   """
26.99,818.191,0.0451417, NaN, NaN, NaN,0.0335714," ""- N/A -   """
27.01,819.0194,0.0451778, NaN, NaN, NaN,0.0335714," ""- N/A -   """
27.03,819.847,0.0452111, NaN, NaN, NaN,0.0323506," ""- N/A -   """
27.05,820.675,0.04524717, NaN, NaN, NaN,0.0323506," ""- N/A -   """
27.07,821.6216,0.04528327, NaN, NaN, NaN,0.0299091," ""- N/A -   """
27.09,822.5679,0.0453194, NaN, NaN, NaN,0.0286883," ""- N/A -   """
27.11,823.2775,0.0453555, NaN, NaN, NaN,0.0286883," ""- N/A -   """
27.13,824.224,0.0453888, NaN, NaN, NaN,0.0274675," ""- N/A -   """
27.15,825.0517,0.0454193, NaN, NaN, NaN,0.0286883," ""- N/A -   """
27.17,825.6432,0.04545265, NaN, NaN, NaN,0.0299091," ""- N/A -   """
27.19,826.4711,0.04548597, NaN, NaN, NaN,0.0299091," ""- N/A -   """
27.21,827.2991,0.0455165, NaN, NaN, NaN,0.0299091," ""- N/A -   """
27.23,828.0088,0.04554706, NaN, NaN, NaN,0.03112983," ""- N/A -   """
27.25,828.718,0.0455776, NaN, NaN, NaN,0.0323506," ""- N/A -   """
27.27,829.3098,0.04560815, NaN, NaN, NaN,0.0335714," ""- N/A -   """
27.29,830.02,0.0456359, NaN, NaN, NaN,0.03601294," ""- N/A -   """
27.31,830.729,0.04566646, NaN, NaN, NaN,0.0384545," ""- N/A -   """
27.33,831.3206,0.04569423, NaN, NaN, NaN,0.04089605," ""- N/A -   """
27.35,832.0303,0.045722, NaN, NaN, NaN,0.04211683," ""- N/A -   """
27.37,832.6217,0.0457498, NaN, NaN, NaN,0.0445584," ""- N/A -   """
27.39,833.3314,0.04578031, NaN, NaN, NaN,0.04577916," ""- N/A -   """
27.41,834.159,0.0458109, NaN, NaN, NaN,0.04699994," ""- N/A -   """
27.43,835.1056,0.04584695, NaN, NaN, NaN,0.04699994," ""- N/A -   """
27.45,836.0519,0.045883, NaN, NaN, NaN,0.04577916," ""- N/A -   """
27.47,836.8798,0.0459164, NaN, NaN, NaN,0.0445584," ""- N/A -   """
27.49,837.5895,0.0459497, NaN, NaN, NaN,0.0445584," ""- N/A -   """
27.51,838.4175,0.045983, NaN, NaN, NaN,0.0445584," ""- N/A -   """
27.53,839.2454,0.04601633, NaN, NaN, NaN,0.0445584," ""- N/A -   """
27.55,840.192,0.04605243, NaN, NaN, NaN,0.0433376," ""- N/A -   """
27.57,841.02,0.0460858, NaN, NaN, NaN,0.0433376," ""- N/A -   """
27.59,841.848,0.0461246, NaN, NaN, NaN,0.04089605," ""- N/A -   """
27.61,843.0304,0.0461635, NaN, NaN, NaN,0.0384545," ""- N/A -   """
27.63,843.8584,0.0462024, NaN, NaN, NaN,0.0372337," ""- N/A -   """
27.65,844.9229,0.04624125, NaN, NaN, NaN,0.0335714," ""- N/A -   """
27.67,845.869,0.0462773, NaN, NaN, NaN,0.0323506," ""- N/A -   """
27.69,846.697,0.0463107, NaN, NaN, NaN,0.0323506," ""- N/A -   """
27.71,847.4068,0.046344, NaN, NaN, NaN,0.0323506," ""- N/A -   """
27.73,848.353,0.04637731, NaN, NaN, NaN,0.0323506," ""- N/A -   """
27.75,849.2993,0.0464162, NaN, NaN, NaN,0.0299091," ""- N/A -   """
27.77,850.009,0.04645228, NaN, NaN, NaN,0.0299091," ""- N/A -   """
27.79,850.8369,0.04648838, NaN, NaN, NaN,0.0286883," ""- N/A -   """
27.81,851.5467,0.04651615, NaN, NaN, NaN,0.0299091," ""- N/A -   """
27.83,852.138,0.0465439, NaN, NaN, NaN,0.0323506," ""- N/A -   """
27.85,852.966,0.04657168, NaN, NaN, NaN,0.0347922," ""- N/A -   """
27.87,853.676,0.0466022, NaN, NaN, NaN,0.03601294," ""- N/A -   """
27.89,854.385,0.04663555, NaN, NaN, NaN,0.03601294," ""- N/A -   """
27.91,855.2134,0.04666609, NaN, NaN, NaN,0.0372337," ""- N/A -   """
27.93,856.0413,0.0466994, NaN, NaN, NaN,0.0384545," ""- N/A -   """
27.95,856.8693,0.04673273, NaN, NaN, NaN,0.0372337," ""- N/A -   """
27.97,857.697,0.04676605, NaN, NaN, NaN,0.0372337," ""- N/A -   """
27.99,858.6435,0.04680215, NaN, NaN, NaN,0.0372337," ""- N/A -   """
28.01,859.3532,0.0468327, NaN, NaN, NaN,0.0372337," ""- N/A -   """
28.03,860.063,0.04686602, NaN, NaN, NaN,0.0372337," ""- N/A -   """
28.05,860.8908,0.0468938, NaN, NaN, NaN,0.0396753," ""- N/A -   """
28.07,861.482,0.04692433, NaN, NaN, NaN,0.04211683," ""- N/A -   """
28.09,862.192,0.0469521, NaN, NaN, NaN,0.0433376," ""- N/A -   """
28.11,862.9016,0.04698264, NaN, NaN, NaN,0.0445584," ""- N/A -   """
28.13,863.73,0.04701596, NaN, NaN, NaN,0.0445584," ""- N/A -   """
28.15,864.4393,0.04704651, NaN, NaN, NaN,0.04577916," ""- N/A -   """
28.17,865.3855,0.0470826, NaN, NaN, NaN,0.04577916," ""- N/A -   """
28.19,866.3317,0.0471187, NaN, NaN, NaN,0.0433376," ""- N/A -   """
28.21,867.278,0.0471548, NaN, NaN, NaN,0.04211683," ""- N/A -   """
28.23,868.224,0.0471937, NaN, NaN, NaN,0.0396753," ""- N/A -   """
28.25,869.1705,0.0472325, NaN, NaN, NaN,0.0384545," ""- N/A -   """
28.27,870.235,0.0472714, NaN, NaN, NaN,0.0347922," ""- N/A -   """
28.29,871.1813,0.0473103, NaN, NaN, NaN,0.0335714," ""- N/A -   """
28.31,872.128,0.0473464, NaN, NaN, NaN,0.03112983," ""- N/A -   """
28.33,873.0738,0.0473825, NaN, NaN, NaN,0.0299091," ""- N/A -   """
28.35,874.02,0.04741859, NaN, NaN, NaN,0.0286883," ""- N/A -   """
28.37,874.73,0.04745469, NaN, NaN, NaN,0.0286883," ""- N/A -   """
28.39,875.3211,0.0474825, NaN, NaN, NaN,0.0299091," ""- N/A -   """
28.41,876.031,0.047513, NaN, NaN, NaN,0.0323506," ""- N/A -   """
28.43,876.6222,0.0475435, NaN, NaN, NaN,0.0323506," ""- N/A -   """
28.45,877.687,0.0475769, NaN, NaN, NaN,0.0335714," ""- N/A -   """
28.47,878.278,0.04760741, NaN, NaN, NaN,0.0335714," ""- N/A -   """
28.49,879.224,0.04764073, NaN, NaN, NaN,0.0335714," ""- N/A -   """
28.51,880.052,0.0476713, NaN, NaN, NaN,0.0347922," ""- N/A -   """
28.53,880.9986,0.0477101, NaN, NaN, NaN,0.0323506," ""- N/A -   """
28.55,881.9448,0.047749, NaN, NaN, NaN,0.03112983," ""- N/A -   """
28.57,882.7728,0.0477851, NaN, NaN, NaN,0.0299091," ""- N/A -   """
28.59,883.601,0.0478157, NaN, NaN, NaN,0.0299091," ""- N/A -   """
28.61,884.3104,0.0478462, NaN, NaN, NaN,0.03112983," ""- N/A -   """
28.63,885.0201,0.0478768, NaN, NaN, NaN,0.0323506," ""- N/A -   """
28.65,885.73,0.04790452, NaN, NaN, NaN,0.0347922," ""- N/A -   """
28.67,886.4395,0.04793507, NaN, NaN, NaN,0.0372337," ""- N/A -   """
28.69,887.1492,0.0479628, NaN, NaN, NaN,0.0384545," ""- N/A -   """
28.71,887.7406,0.0479934, NaN, NaN, NaN,0.0396753," ""- N/A -   """
28.73,888.569,0.0480211, NaN, NaN, NaN,0.04211683," ""- N/A -   """
28.75,889.16,0.04805169, NaN, NaN, NaN,0.0445584," ""- N/A -   """
28.77,889.9879,0.0480822, NaN, NaN, NaN,0.0445584," ""- N/A -   """
28.79,890.8159,0.04811556, NaN, NaN, NaN,0.0445584," ""- N/A -   """
28.81,891.762,0.04815443, NaN, NaN, NaN,0.04211683," ""- N/A -   """
28.83,892.5901,0.0481877, NaN, NaN, NaN,0.04211683," ""- N/A -   """
28.85,893.5364,0.0482211, NaN, NaN, NaN,0.04211683," ""- N/A -   """
28.87,894.246,0.0482544, NaN, NaN, NaN,0.04211683," ""- N/A -   """
28.89,895.074,0.0482877, NaN, NaN, NaN,0.04211683," ""- N/A -   """
28.91,896.02,0.04832659, NaN, NaN, NaN,0.0396753," ""- N/A -   """
28.93,896.9665,0.0483627, NaN, NaN, NaN,0.0384545," ""- N/A -   """
28.95,898.031,0.04840156, NaN, NaN, NaN,0.0372337," ""- N/A -   """
28.97,898.9773,0.04843766, NaN, NaN, NaN,0.0347922," ""- N/A -   """
28.99,899.805,0.0484738, NaN, NaN, NaN,0.0335714," ""- N/A -   """
29.01,900.5149,0.0485043, NaN, NaN, NaN,0.0347922," ""- N/A -   """
29.03,901.2246,0.0485348, NaN, NaN, NaN,0.03601294," ""- N/A -   """
29.05,901.934,0.0485654, NaN, NaN, NaN,0.0372337," ""- N/A -   """
29.07,902.644,0.04859593, NaN, NaN, NaN,0.0384545," ""- N/A -   """
29.09,903.5903,0.0486293, NaN, NaN, NaN,0.0384545," ""- N/A -   """
29.11,904.4182,0.0486654, NaN, NaN, NaN,0.0372337," ""- N/A -   """
29.13,905.483,0.0487042, NaN, NaN, NaN,0.0347922," ""- N/A -   """
29.15,906.429,0.0487431, NaN, NaN, NaN,0.0335714," ""- N/A -   """
29.17,907.2569,0.0487792, NaN, NaN, NaN,0.03112983," ""- N/A -   """
29.19,908.0849,0.04881252, NaN, NaN, NaN,0.03112983," ""- N/A -   """
29.21,908.9129,0.04884584, NaN, NaN, NaN,0.0323506," ""- N/A -   """
29.23,909.623,0.0488764, NaN, NaN, NaN,0.0323506," ""- N/A -   """
29.25,910.3322,0.04890693, NaN, NaN, NaN,0.0335714," ""- N/A -   """
29.27,911.0419,0.0489375, NaN, NaN, NaN,0.0347922," ""- N/A -   """
29.29,911.752,0.04896802, NaN, NaN, NaN,0.03601294," ""- N/A -   """
29.31,912.5796,0.04900412, NaN, NaN, NaN,0.0347922," ""- N/A -   """
29.33,913.644,0.0490402, NaN, NaN, NaN,0.0335714," ""- N/A -   """
29.35,914.472,0.04907631, NaN, NaN, NaN,0.0335714," ""- N/A -   """
29.37,915.4183,0.0491124, NaN, NaN, NaN,0.0323506," ""- N/A -   """
29.39,916.2462,0.049143, NaN, NaN, NaN,0.0323506," ""- N/A -   """
29.41,916.8377,0.0491735, NaN, NaN, NaN,0.0335714," ""- N/A -   """
29.43,917.666,0.0492013, NaN, NaN, NaN,0.03601294," ""- N/A -   """
29.45,918.257,0.0492318, NaN, NaN, NaN,0.0372337," ""- N/A -   """
29.47,918.9667,0.0492596, NaN, NaN, NaN,0.0396753," ""- N/A -   """
29.49,919.676,0.04929012, NaN, NaN, NaN,0.04089605," ""- N/A -   """
29.51,920.5044,0.0493234, NaN, NaN, NaN,0.04211683," ""- N/A -   """
29.53,921.096,0.04935121, NaN, NaN, NaN,0.0433376," ""- N/A -   """
29.55,921.8055,0.04938175, NaN, NaN, NaN,0.0445584," ""- N/A -   """
29.57,922.6334,0.0494151, NaN, NaN, NaN,0.04577916," ""- N/A -   """
29.59,923.58,0.0494484, NaN, NaN, NaN,0.0445584," ""- N/A -   """
29.61,924.526,0.04948727, NaN, NaN, NaN,0.0433376," ""- N/A -   """
29.63,925.472,0.04952337, NaN, NaN, NaN,0.04211683," ""- N/A -   """
29.65,926.4184,0.0495595, NaN, NaN, NaN,0.0396753," ""- N/A -   """
29.67,927.483,0.04959834, NaN, NaN, NaN,0.0372337," ""- N/A -   """
29.69,928.5475,0.04964, NaN, NaN, NaN,0.0347922," ""- N/A -   """
29.71,929.612,0.04967887, NaN, NaN, NaN,0.03112983," ""- N/A -   """
29.73,930.5582,0.04971774, NaN, NaN, NaN,0.0299091," ""- N/A -   """
29.75,931.268,0.0497483, NaN, NaN, NaN,0.0299091," ""- N/A -   """
29.77,931.9776,0.04977883, NaN, NaN, NaN,0.03112983," ""- N/A -   """
29.79,932.6873,0.04981215, NaN, NaN, NaN,0.0323506," ""- N/A -   """
29.81,933.515,0.0498455, NaN, NaN, NaN,0.0323506," ""- N/A -   """
29.83,934.3432,0.04987879, NaN, NaN, NaN,0.03112983," ""- N/A -   """
29.85,935.2895,0.0499121, NaN, NaN, NaN,0.0323506," ""- N/A -   """
29.87,935.999,0.04994266, NaN, NaN, NaN,0.0323506," ""- N/A -   """
29.89,936.8271,0.04997876, NaN, NaN, NaN,0.0323506," ""- N/A -   """
29.91,937.7734,0.0500149, NaN, NaN, NaN,0.03112983," ""- N/A -   """
29.93,938.7196,0.05005095, NaN, NaN, NaN,0.0299091," ""- N/A -   """
29.95,939.4293,0.0500843, NaN, NaN, NaN,0.0286883," ""- N/A -   """
29.97,940.2573,0.0501148, NaN, NaN, NaN,0.0299091," ""- N/A -   """
29.99,940.967,0.0501454, NaN, NaN, NaN,0.0323506," ""- N/A -   """
30.01,941.677,0.05017313, NaN, NaN, NaN,0.0335714," ""- N/A -   """
30.03,942.268,0.05020645, NaN, NaN, NaN,0.0347922," ""- N/A -   """
30.05,942.9778,0.050237, NaN, NaN, NaN,0.0347922," ""- N/A -   """
30.07,943.569,0.050262, NaN, NaN, NaN,0.0384545," ""- N/A -   """
30.09,944.2788,0.050287, NaN, NaN, NaN,0.04211683," ""- N/A -   """
30.11,944.752,0.0503147, NaN, NaN, NaN,0.0445584," ""- N/A -   """
30.13,945.4617,0.0503453, NaN, NaN, NaN,0.04699994," ""- N/A -   """
30.15,946.5262,0.0503786, NaN, NaN, NaN,0.04699994," ""- N/A -   """
30.17,947.236,0.05040915, NaN, NaN, NaN,0.04699994," ""- N/A -   """
30.19,948.064,0.0504425, NaN, NaN, NaN,0.04699994," ""- N/A -   """
30.21,949.0101,0.0504786, NaN, NaN, NaN,0.04577916," ""- N/A -   """
30.23,949.838,0.0505147, NaN, NaN, NaN,0.0445584," ""- N/A -   """
30.25,950.7843,0.0505508, NaN, NaN, NaN,0.0433376," ""- N/A -   """
30.27,951.8488,0.05058964, NaN, NaN, NaN,0.04211683," ""- N/A -   """
30.29,952.795,0.0506285, NaN, NaN, NaN,0.0384545," ""- N/A -   """
30.31,953.623,0.0506646, NaN, NaN, NaN,0.0372337," ""- N/A -   """
30.33,954.688,0.0507007, NaN, NaN, NaN,0.03601294," ""- N/A -   """
30.35,955.5155,0.0507368, NaN, NaN, NaN,0.0347922," ""- N/A -   """
30.37,956.4618,0.0507729, NaN, NaN, NaN,0.0335714," ""- N/A -   """
30.39,957.29,0.050809, NaN, NaN, NaN,0.0323506," ""- N/A -   """
30.41,957.9994,0.0508423, NaN, NaN, NaN,0.0323506," ""- N/A -   """
30.43,958.9457,0.0508756, NaN, NaN, NaN,0.0335714," ""- N/A -   """
30.45,959.7736,0.050909, NaN, NaN, NaN,0.0323506," ""- N/A -   """
30.47,960.4833,0.0509423, NaN, NaN, NaN,0.0335714," ""- N/A -   """
30.49,961.43,0.0509784, NaN, NaN, NaN,0.0323506," ""- N/A -   """
30.51,962.3758,0.0510145, NaN, NaN, NaN,0.0299091," ""- N/A -   """
30.53,963.44,0.0510534, NaN, NaN, NaN,0.0286883," ""- N/A -   """
30.55,964.2683,0.05108668, NaN, NaN, NaN,0.0274675," ""- N/A -   """
30.57,965.096,0.05112, NaN, NaN, NaN,0.0286883," ""- N/A -   """
30.59,965.8059,0.0511533, NaN, NaN, NaN,0.0274675," ""- N/A -   """
30.61,966.6339,0.05118387, NaN, NaN, NaN,0.0286883," ""- N/A -   """
30.63,967.344,0.0512144, NaN, NaN, NaN,0.0299091," ""- N/A -   """
30.65,968.1715,0.05124495, NaN, NaN, NaN,0.03112983," ""- N/A -   """
30.67,968.763,0.0512755, NaN, NaN, NaN,0.0323506," ""- N/A -   """
30.69,969.473,0.0513033, NaN, NaN, NaN,0.03601294," ""- N/A -   """
30.71,970.1823,0.0513338, NaN, NaN, NaN,0.0372337," ""- N/A -   """
30.73,970.892,0.05136158, NaN, NaN, NaN,0.0396753," ""- N/A -   """
30.75,971.602,0.0513921, NaN, NaN, NaN,0.04089605," ""- N/A -   """
30.77,972.3114,0.0514227, NaN, NaN, NaN,0.04211683," ""- N/A -   """
30.79,973.021,0.0514532, NaN, NaN, NaN,0.0433376," ""- N/A -   """
30.81,973.7307,0.0514838, NaN, NaN, NaN,0.0445584," ""- N/A -   """
30.83,974.677,0.0515171, NaN, NaN, NaN,0.0445584," ""- N/A -   """
30.85,975.6232,0.0515532, NaN, NaN, NaN,0.0445584," ""- N/A -   """
30.87,976.3329,0.0515865, NaN, NaN, NaN,0.0433376," ""- N/A -   """
30.89,977.2792,0.0516226, NaN, NaN, NaN,0.04211683," ""- N/A -   """
30.91,978.1071,0.0516531, NaN, NaN, NaN,0.0433376," ""- N/A -   """
30.93,978.817,0.0516865, NaN, NaN, NaN,0.0445584," ""- N/A -   """
30.95,979.645,0.05171978, NaN, NaN, NaN,0.0433376," ""- N/A -   """
30.97,980.591,0.05175588, NaN, NaN, NaN,0.04211683," ""- N/A -   """
30.99,981.419,0.051792, NaN, NaN, NaN,0.04211683," ""- N/A -   """
31.01,982.3653,0.0518253, NaN, NaN, NaN,0.04089605," ""- N/A -   """
31.03,983.3115,0.0518642, NaN, NaN, NaN,0.0396753," ""- N/A -   """
31.05,984.2578,0.05190027, NaN, NaN, NaN,0.0372337," ""- N/A -   """
31.062,984.8492,0.05192248, NaN, NaN, NaN,0.03601294," ""- N/A -   """