File: 2_Tensile_Data/Hamel_ForceTest_Bolt5_Test8.csv
Time, Load (lb), Position (in), AxialStrain (in), TransverseStrain (in), Auxiliary (), Control Out (V), Stress (psi)
0.0, 11.4409, 0.0, NaN, NaN, NaN, -0.007935055, "- N/A -   "
0.01, 11.4409, 0.0, NaN, NaN, NaN, -6.103888E-4, "- N/A -   "
0.02, 11.4409, 0.0, NaN, NaN, NaN, 0.006714277, "- N/A -   "
0.03, 11.4409, 0.0, NaN, NaN, NaN, 0.0238052, "- N/A -   "
0.04, 11.5589, 5.553504E-6, NaN, NaN, NaN, 0.04089605, "- N/A -   "
0.05, 11.7947, 1.66605e-05, NaN, NaN, NaN, 0.0555454, "- N/A -   "
0.06, 11.9127, 3.3321e-05, NaN, NaN, NaN, 0.0689739, "- N/A -   "
0.07, 12.2665, 5.27583e-05, NaN, NaN, NaN, 0.07874016, "- N/A -   "
0.08, 12.6204, 7.774905E-5, NaN, NaN, NaN, 0.0872856, "- N/A -   "
0.09, 13.09217, 0.000105517, NaN, NaN, NaN, 0.09461027, "- N/A -   "
0.1, 13.564, 0.000136061, NaN, NaN, NaN, 0.095831, "- N/A -   "
0.11, 14.0357, 0.000166605, NaN, NaN, NaN, 0.0897272, "- N/A -   "
0.12, 14.5075, 0.000194373, NaN, NaN, NaN, 0.084844, "- N/A -   "
0.13, 14.7434, 2.193634E-4, NaN, NaN, NaN, 0.0799609, "- N/A -   "
0.14, 15.2152, 2.471309E-4, NaN, NaN, NaN, 0.0762986, "- N/A -   "
0.15, 15.4511, 0.000269345, NaN, NaN, NaN, 0.07263627, "- N/A -   "
0.16, 15.805, 0.000288782, NaN, NaN, NaN, 0.07141549, "- N/A -   "
0.17, 15.9229, 0.000308219, NaN, NaN, NaN, 0.0701947, "- N/A -   "
0.18, 16.27675, 0.000327657, NaN, NaN, NaN, 0.0689739, "- N/A -   "
0.19, 16.6306, 0.000347094, NaN, NaN, NaN, 0.06775316, "- N/A -   "
0.2, 16.74854, 0.000366531, NaN, NaN, NaN, 0.06775316, "- N/A -   "
0.21, 17.1024, 3.859685E-4, NaN, NaN, NaN, 0.0653116, "- N/A -   "
0.22, 17.3383, 0.000402629, NaN, NaN, NaN, 0.0653116, "- N/A -   "
0.23, 17.5742, 0.000424843, NaN, NaN, NaN, 0.0640908, "- N/A -   "
0.24, 17.8101, 4.442803E-4, NaN, NaN, NaN, 0.06164927, "- N/A -   "
0.25, 18.046, 0.000463718, NaN, NaN, NaN, 0.0604285, "- N/A -   "
0.26, 18.16391, 4.831548E-4, NaN, NaN, NaN, 0.0592077, "- N/A -   "
0.27, 18.5178, 0.000502592, NaN, NaN, NaN, 0.0592077, "- N/A -   "
0.28, 18.7536, 5.192526E-4, NaN, NaN, NaN, 0.0579869, "- N/A -   "
0.29, 18.9895, 0.00053869, NaN, NaN, NaN, 0.05676616, "- N/A -   "
0.3, 19.2254, 5.581271E-4, NaN, NaN, NaN, 0.0555454, "- N/A -   "
0.31, 19.4613, 0.000577564, NaN, NaN, NaN, 0.0543246, "- N/A -   "
0.32, 19.8152, 0.000597002, NaN, NaN, NaN, 0.0531038, "- N/A -   "
0.33, 20.05107, 6.164389E-4, NaN, NaN, NaN, 0.05188305, "- N/A -   "
0.34, 20.287, 0.000638653, NaN, NaN, NaN, 0.0494415, "- N/A -   "
0.35, 20.4049, 0.00065809, NaN, NaN, NaN, 0.0482207, "- N/A -   "
0.36, 20.8767, 0.000677527, NaN, NaN, NaN, 0.04699994, "- N/A -   "
0.37, 20.99465, 6.969647E-4, NaN, NaN, NaN, 0.04577916, "- N/A -   "
0.38, 21.3485, 0.000716402, NaN, NaN, NaN, 0.0445584, "- N/A -   "
0.39, 21.5844, 0.000735839, NaN, NaN, NaN, 0.0433376, "- N/A -   "
0.4, 21.93823, 7.552765E-4, NaN, NaN, NaN, 0.04211683, "- N/A -   "
0.41, 22.0562, 7.774905E-4, NaN, NaN, NaN, 0.0396753, "- N/A -   "
0.42, 22.29207, 7.969278E-4, NaN, NaN, NaN, 0.0396753, "- N/A -   "
0.43, 22.6459, 0.000813588, NaN, NaN, NaN, 0.0384545, "- N/A -   "
0.44, 22.7639, 0.000833026, NaN, NaN, NaN, 0.0384545, "- N/A -   "
0.45, 22.9998, 0.000849686, NaN, NaN, NaN, 0.0384545, "- N/A -   "
0.46, 23.2357, 8.635698E-4, NaN, NaN, NaN, 0.0384545, "- N/A -   "
0.47, 23.3536, 8.830071E-4, NaN, NaN, NaN, 0.0384545, "- N/A -   "
0.48, 23.7074, 0.000902444, NaN, NaN, NaN, 0.0372337, "- N/A -   "
0.49, 23.9433, 0.000919105, NaN, NaN, NaN, 0.03601294, "- N/A -   "
0.5, 24.1792, 0.000941319, NaN, NaN, NaN, 0.0347922, "- N/A -   "
0.51, 24.5331, 0.000957979, NaN, NaN, NaN, 0.0335714, "- N/A -   "
0.52, 24.769, 9.801934E-4, NaN, NaN, NaN, 0.03112983, "- N/A -   "
0.53, 24.8869, 9.968539E-4, NaN, NaN, NaN, 0.03112983, "- N/A -   "
0.54, 25.3587, 0.00101629, NaN, NaN, NaN, 0.0299091, "- N/A -   "
0.55, 25.3587, 0.00103573, NaN, NaN, NaN, 0.0299091, "- N/A -   "
0.56, 25.5946, 0.00105239, NaN, NaN, NaN, 0.0286883, "- N/A -   "
0.57, 26.0664, 0.00107183, NaN, NaN, NaN, 0.0286883, "- N/A -   "
0.58, 26.0664, 0.00108571, NaN, NaN, NaN, 0.0286883, "- N/A -   "
0.59, 26.3023, 0.00110237, NaN, NaN, NaN, 0.0286883, "- N/A -   "
0.6, 26.6561, 0.00111625, NaN, NaN, NaN, 0.0299091, "- N/A -   "
0.61, 26.7741, 0.00113291, NaN, NaN, NaN, 0.03112983, "- N/A -   "
0.62, 27.01, 0.0011468, NaN, NaN, NaN, 0.03112983, "- N/A -   "
0.63, 27.2459, 0.00116068, NaN, NaN, NaN, 0.0323506, "- N/A -   "
0.64, 27.3638, 0.00117734, NaN, NaN, NaN, 0.0323506, "- N/A -   "
0.65, 27.5997, 0.001194, NaN, NaN, NaN, 0.0323506, "- N/A -   "
0.66, 27.8356, 0.00121066, NaN, NaN, NaN, 0.0323506, "- N/A -   "
0.67, 28.0715, 0.00122732, NaN, NaN, NaN, 0.0323506, "- N/A -   "
0.68, 28.42534, 0.001241208, NaN, NaN, NaN, 0.0335714, "- N/A -   "
0.69, 28.54329, 0.00125787, NaN, NaN, NaN, 0.0335714, "- N/A -   "
0.7, 28.6612, 0.00127175, NaN, NaN, NaN, 0.0347922, "- N/A -   "
0.71, 28.89713, 0.00128564, NaN, NaN, NaN, 0.03601294, "- N/A -   "
0.72, 29.133, 0.00129952, NaN, NaN, NaN, 0.0372337, "- N/A -   "
0.73, 29.3689, 0.0013134, NaN, NaN, NaN, 0.0384545, "- N/A -   "
0.74, 29.4869, 0.00132729, NaN, NaN, NaN, 0.0396753, "- N/A -   "
0.75, 29.6048, 0.00134117, NaN, NaN, NaN, 0.04089605, "- N/A -   "
0.76, 29.84071, 0.00135783, NaN, NaN, NaN, 0.04211683, "- N/A -   "
0.77, 29.9587, 0.00137172, NaN, NaN, NaN, 0.04211683, "- N/A -   "
0.78, 30.3125, 0.00138838, NaN, NaN, NaN, 0.04211683, "- N/A -   "
0.79, 30.5484, 0.00140504, NaN, NaN, NaN, 0.0433376, "- N/A -   "
0.8, 30.6663, 0.00141892, NaN, NaN, NaN, 0.0433376, "- N/A -   "
0.81, 30.9022, 0.00143558, NaN, NaN, NaN, 0.0433376, "- N/A -   "
0.82, 31.1381, 0.00144946, NaN, NaN, NaN, 0.0445584, "- N/A -   "
0.83, 31.492, 0.00146612, NaN, NaN, NaN, 0.0445584, "- N/A -   "
0.84, 31.72787, 0.00148279, NaN, NaN, NaN, 0.04577916, "- N/A -   "
0.85, 31.8458, 0.001499446, NaN, NaN, NaN, 0.04577916, "- N/A -   "
0.86, 32.08171, 0.00151611, NaN, NaN, NaN, 0.0445584, "- N/A -   "
0.87, 32.5535, 0.001532767, NaN, NaN, NaN, 0.0445584, "- N/A -   "
0.88, 32.67145, 0.0015522, NaN, NaN, NaN, 0.0445584, "- N/A -   "
0.89, 32.9073, 0.00156609, NaN, NaN, NaN, 0.0445584, "- N/A -   "
0.9, 33.1432, 0.00158275, NaN, NaN, NaN, 0.0445584, "- N/A -   "
0.91, 33.2612, 0.00160219, NaN, NaN, NaN, 0.0445584, "- N/A -   "
0.92, 33.61503, 0.00161607, NaN, NaN, NaN, 0.0445584, "- N/A -   "
0.93, 33.9689, 0.00163273, NaN, NaN, NaN, 0.0445584, "- N/A -   "
0.94, 34.08682, 0.00164939, NaN, NaN, NaN, 0.0445584, "- N/A -   "
0.95, 34.3227, 0.00166605, NaN, NaN, NaN, 0.0445584, "- N/A -   "
0.96, 34.6766, 0.00168549, NaN, NaN, NaN, 0.0433376, "- N/A -   "
0.97, 34.7945, 0.00170493, NaN, NaN, NaN, 0.04211683, "- N/A -   "
0.98, 35.1483, 0.00172436, NaN, NaN, NaN, 0.04211683, "- N/A -   "
0.99, 35.50219, 0.00174102, NaN, NaN, NaN, 0.04089605, "- N/A -   "
1, 35.7381, 0.00176046, NaN, NaN, NaN, 0.0396753, "- N/A -   "
1.01, 35.97398, 0.00177712, NaN, NaN, NaN, 0.0396753, "- N/A -   "
1.02, 36.2099, 0.00179378, NaN, NaN, NaN, 0.0396753, "- N/A -   "
1.03, 36.5637, 0.00181322, NaN, NaN, NaN, 0.0384545, "- N/A -   "
1.04, 36.79961, 0.00183266, NaN, NaN, NaN, 0.0384545, "- N/A -   "
1.05, 36.9176, 0.00185209, NaN, NaN, NaN, 0.0372337, "- N/A -   "
1.06, 37.3893, 0.00187153, NaN, NaN, NaN, 0.03601294, "- N/A -   "
1.07, 37.6252, 0.001890968, NaN, NaN, NaN, 0.0335714, "- N/A -   "
1.08, 37.9791, 0.00191041, NaN, NaN, NaN, 0.0323506, "- N/A -   "
1.09, 38.3329, 0.00192984, NaN, NaN, NaN, 0.03112983, "- N/A -   "
1.1, 38.5688, 0.00194928, NaN, NaN, NaN, 0.0299091, "- N/A -   "
1.11, 38.8047, 0.001968717, NaN, NaN, NaN, 0.0299091, "- N/A -   "
1.12, 39.04061, 0.00198538, NaN, NaN, NaN, 0.0286883, "- N/A -   "
1.13, 39.3945, 0.00200481, NaN, NaN, NaN, 0.0274675, "- N/A -   "
1.14, 39.6304, 0.00202148, NaN, NaN, NaN, 0.0274675, "- N/A -   "
1.15, 39.98419, 0.002038136, NaN, NaN, NaN, 0.0274675, "- N/A -   "
1.16, 40.22009, 0.0020548, NaN, NaN, NaN, 0.0274675, "- N/A -   "
1.17, 40.33803, 0.00207146, NaN, NaN, NaN, 0.0274675, "- N/A -   "
1.18, 40.57393, 0.00208812, NaN, NaN, NaN, 0.0274675, "- N/A -   "
1.19, 40.8098, 0.00210478, NaN, NaN, NaN, 0.0274675, "- N/A -   "
1.2, 41.2816, 0.00212144, NaN, NaN, NaN, 0.0286883, "- N/A -   "
1.21, 41.2816, 0.00213532, NaN, NaN, NaN, 0.0286883, "- N/A -   "
1.22, 41.6355, 0.00215198, NaN, NaN, NaN, 0.0286883, "- N/A -   "
1.23, 41.8714, 0.002168643, NaN, NaN, NaN, 0.0286883, "- N/A -   "
1.24, 42.1072, 0.0021853, NaN, NaN, NaN, 0.0286883, "- N/A -   "
1.25, 42.3431, 0.00220196, NaN, NaN, NaN, 0.0299091, "- N/A -   "
1.26, 42.4611, 0.00221585, NaN, NaN, NaN, 0.0299091, "- N/A -   "
1.27, 42.697, 0.00222973, NaN, NaN, NaN, 0.03112983, "- N/A -   "
1.28, 42.93288, 0.00224362, NaN, NaN, NaN, 0.0323506, "- N/A -   "
1.29, 43.0508, 0.0022575, NaN, NaN, NaN, 0.0335714, "- N/A -   "
1.3, 43.40467, 0.00227416, NaN, NaN, NaN, 0.0335714, "- N/A -   "
1.31, 43.6406, 0.00228804, NaN, NaN, NaN, 0.0347922, "- N/A -   "
1.32, 43.9944, 0.00230748, NaN, NaN, NaN, 0.0347922, "- N/A -   "
1.33, 44.2303, 0.00232136, NaN, NaN, NaN, 0.0347922, "- N/A -   "
1.34, 44.34825, 0.002338025, NaN, NaN, NaN, 0.0347922, "- N/A -   "
1.35, 44.58414, 0.00235469, NaN, NaN, NaN, 0.0347922, "- N/A -   "
1.36, 44.93799, 0.002371346, NaN, NaN, NaN, 0.03601294, "- N/A -   "
1.37, 45.17388, 0.00238523, NaN, NaN, NaN, 0.03601294, "- N/A -   "
1.38, 45.40978, 0.002404667, NaN, NaN, NaN, 0.03601294, "- N/A -   "
1.39, 45.5277, 0.00241855, NaN, NaN, NaN, 0.03601294, "- N/A -   "
1.4, 45.8816, 0.002437988, NaN, NaN, NaN, 0.0347922, "- N/A -   "
1.41, 46.11746, 0.00245187, NaN, NaN, NaN, 0.03601294, "- N/A -   "
1.42, 46.3534, 0.00246853, NaN, NaN, NaN, 0.03601294, "- N/A -   "
1.43, 46.5893, 0.002485193, NaN, NaN, NaN, 0.03601294, "- N/A -   "
1.44, 46.9431, 0.00250185, NaN, NaN, NaN, 0.0372337, "- N/A -   "
1.45, 47.061, 0.00251574, NaN, NaN, NaN, 0.0372337, "- N/A -   "
1.46, 47.2969, 0.0025324, NaN, NaN, NaN, 0.0384545, "- N/A -   "
1.47, 47.5328, 0.00254628, NaN, NaN, NaN, 0.0384545, "- N/A -   "
1.48, 47.8867, 0.002562942, NaN, NaN, NaN, 0.0384545, "- N/A -   "
1.49, 48.00462, 0.00257683, NaN, NaN, NaN, 0.0396753, "- N/A -   "
1.5, 48.2405, 0.00259071, NaN, NaN, NaN, 0.04089605, "- N/A -   "
1.51, 48.3585, 0.00260737, NaN, NaN, NaN, 0.04211683, "- N/A -   "
1.52, 48.7123, 0.00261848, NaN, NaN, NaN, 0.0433376, "- N/A -   "
1.53, 48.9482, 0.00263514, NaN, NaN, NaN, 0.0433376, "- N/A -   "
1.54, 49.1841, 0.00264902, NaN, NaN, NaN, 0.0445584, "- N/A -   "
1.55, 49.41999, 0.00266568, NaN, NaN, NaN, 0.0445584, "- N/A -   "
1.56, 49.6559, 0.00267957, NaN, NaN, NaN, 0.04577916, "- N/A -   "
1.57, 49.8918, 0.00269623, NaN, NaN, NaN, 0.04577916, "- N/A -   "
1.58, 50.1277, 0.00271566, NaN, NaN, NaN, 0.04577916, "- N/A -   "
1.59, 50.3636, 0.00272955, NaN, NaN, NaN, 0.04577916, "- N/A -   "
1.6, 50.7174, 0.00274621, NaN, NaN, NaN, 0.04699994, "- N/A -   "
1.61, 50.83536, 0.00276287, NaN, NaN, NaN, 0.04577916, "- N/A -   "
1.62, 51.1892, 0.00277953, NaN, NaN, NaN, 0.04699994, "- N/A -   "
1.63, 51.543, 0.00279341, NaN, NaN, NaN, 0.04699994, "- N/A -   "
1.64, 51.66099, 0.00281563, NaN, NaN, NaN, 0.04577916, "- N/A -   "
1.65, 52.01483, 0.00283229, NaN, NaN, NaN, 0.0445584, "- N/A -   "
1.66, 52.25073, 0.002854501, NaN, NaN, NaN, 0.0433376, "- N/A -   "
1.67, 52.6046, 0.00287116, NaN, NaN, NaN, 0.04211683, "- N/A -   "
1.68, 52.9584, 0.0028906, NaN, NaN, NaN, 0.04089605, "- N/A -   "
1.69, 53.19431, 0.002910036, NaN, NaN, NaN, 0.04089605, "- N/A -   "
1.7, 53.54815, 0.0029267, NaN, NaN, NaN, 0.0396753, "- N/A -   "
1.71, 53.784, 0.00294613, NaN, NaN, NaN, 0.0396753, "- N/A -   "
1.72, 54.13789, 0.002965571, NaN, NaN, NaN, 0.0384545, "- N/A -   "
1.73, 54.4917, 0.00298501, NaN, NaN, NaN, 0.0372337, "- N/A -   "
1.74, 54.7276, 0.003001669, NaN, NaN, NaN, 0.03601294, "- N/A -   "
1.75, 55.0815, 0.003021106, NaN, NaN, NaN, 0.0347922, "- N/A -   "
1.76, 55.3174, 0.00303777, NaN, NaN, NaN, 0.0347922, "- N/A -   "
1.77, 55.55326, 0.003057204, NaN, NaN, NaN, 0.0347922, "- N/A -   "
1.78, 55.7892, 0.00307664, NaN, NaN, NaN, 0.0335714, "- N/A -   "
1.79, 56.143, 0.0030933, NaN, NaN, NaN, 0.0335714, "- N/A -   "
1.8, 56.37889, 0.003109962, NaN, NaN, NaN, 0.0335714, "- N/A -   "
1.81, 56.6148, 0.00312662, NaN, NaN, NaN, 0.0323506, "- N/A -   "
1.82, 56.9686, 0.003143283, NaN, NaN, NaN, 0.0323506, "- N/A -   "
1.83, 57.20452, 0.00315994, NaN, NaN, NaN, 0.0323506, "- N/A -   "
1.84, 57.32247, 0.0031766, NaN, NaN, NaN, 0.0323506, "- N/A -   "
1.85, 57.6763, 0.003190488, NaN, NaN, NaN, 0.0335714, "- N/A -   "
1.86, 57.91221, 0.00320715, NaN, NaN, NaN, 0.0335714, "- N/A -   "
1.87, 58.1481, 0.003223809, NaN, NaN, NaN, 0.0335714, "- N/A -   "
1.88, 58.384, 0.00324047, NaN, NaN, NaN, 0.0335714, "- N/A -   "
1.89, 58.6199, 0.003254353, NaN, NaN, NaN, 0.0347922, "- N/A -   "
1.9, 58.9737, 0.00327101, NaN, NaN, NaN, 0.0347922, "- N/A -   "
1.91, 59.2096, 0.00328767, NaN, NaN, NaN, 0.0347922, "- N/A -   "
1.92, 59.4455, 0.00330433, NaN, NaN, NaN, 0.0347922, "- N/A -   "
1.93, 59.68142, 0.003321, NaN, NaN, NaN, 0.0347922, "- N/A -   "
1.94, 60.0353, 0.00334043, NaN, NaN, NaN, 0.0347922, "- N/A -   "
1.95, 60.27116, 0.003357093, NaN, NaN, NaN, 0.0347922, "- N/A -   "
1.96, 60.5071, 0.00337375, NaN, NaN, NaN, 0.0335714, "- N/A -   "
1.97, 60.8609, 0.00339319, NaN, NaN, NaN, 0.0323506, "- N/A -   "
1.98, 61.2147, 0.003409851, NaN, NaN, NaN, 0.0323506, "- N/A -   "
1.99, 61.3327, 0.00342651, NaN, NaN, NaN, 0.0323506, "- N/A -   "
2, 61.56858, 0.00344317, NaN, NaN, NaN, 0.0323506, "- N/A -   "
2.01, 61.9224, 0.00345983, NaN, NaN, NaN, 0.0323506, "- N/A -   "
2.02, 62.1583, 0.00347649, NaN, NaN, NaN, 0.0335714, "- N/A -   "
2.03, 62.3942, 0.00349038, NaN, NaN, NaN, 0.0347922, "- N/A -   "
2.04, 62.6301, 0.00350426, NaN, NaN, NaN, 0.0347922, "- N/A -   "
2.05, 62.866, 0.00352092, NaN, NaN, NaN, 0.0347922, "- N/A -   "
2.06, 63.1019, 0.00353758, NaN, NaN, NaN, 0.0347922, "- N/A -   "
2.07, 63.45574, 0.00355424, NaN, NaN, NaN, 0.0347922, "- N/A -   "
2.08, 63.6916, 0.0035709, NaN, NaN, NaN, 0.0347922, "- N/A -   "
2.09, 63.80958, 0.00358479, NaN, NaN, NaN, 0.03601294, "- N/A -   "
2.1, 64.04548, 0.00360145, NaN, NaN, NaN, 0.03601294, "- N/A -   "
2.11, 64.28137, 0.003615331, NaN, NaN, NaN, 0.0372337, "- N/A -   "
2.12, 64.5173, 0.00363199, NaN, NaN, NaN, 0.0372337, "- N/A -   "
2.13, 64.87111, 0.00364865, NaN, NaN, NaN, 0.0372337, "- N/A -   "
2.14, 65.107, 0.00366531, NaN, NaN, NaN, 0.0372337, "- N/A -   "
2.15, 65.3429, 0.00368197, NaN, NaN, NaN, 0.0372337, "- N/A -   "
2.16, 65.5788, 0.00369863, NaN, NaN, NaN, 0.0384545, "- N/A -   "
2.17, 65.69674, 0.00370974, NaN, NaN, NaN, 0.0396753, "- N/A -   "
2.18, 66.05058, 0.003726401, NaN, NaN, NaN, 0.04089605, "- N/A -   "
2.19, 66.2865, 0.00374028, NaN, NaN, NaN, 0.04089605, "- N/A -   "
2.2, 66.52237, 0.00375417, NaN, NaN, NaN, 0.04211683, "- N/A -   "
2.21, 66.75827, 0.003770829, NaN, NaN, NaN, 0.04211683, "- N/A -   "
2.22, 66.99416, 0.00378749, NaN, NaN, NaN, 0.04211683, "- N/A -   "
2.23, 67.23006, 0.00380693, NaN, NaN, NaN, 0.04089605, "- N/A -   "
2.24, 67.5839, 0.00382359, NaN, NaN, NaN, 0.04089605, "- N/A -   "
2.25, 67.81979, 0.00384025, NaN, NaN, NaN, 0.04089605, "- N/A -   "
2.26, 68.05569, 0.00385691, NaN, NaN, NaN, 0.04089605, "- N/A -   "
2.27, 68.29159, 0.003873569, NaN, NaN, NaN, 0.04089605, "- N/A -   "
2.28, 68.52748, 0.00389023, NaN, NaN, NaN, 0.04211683, "- N/A -   "
2.29, 68.7634, 0.00390689, NaN, NaN, NaN, 0.04089605, "- N/A -   "
2.3, 68.9993, 0.003926327, NaN, NaN, NaN, 0.04089605, "- N/A -   "
2.31, 69.35311, 0.00394299, NaN, NaN, NaN, 0.04089605, "- N/A -   "
2.32, 69.707, 0.00395965, NaN, NaN, NaN, 0.0396753, "- N/A -   "
2.33, 69.8249, 0.00397631, NaN, NaN, NaN, 0.0396753, "- N/A -   "
2.34, 70.29669, 0.003995746, NaN, NaN, NaN, 0.0384545, "- N/A -   "
2.35, 70.5326, 0.004015183, NaN, NaN, NaN, 0.0372337, "- N/A -   "
2.36, 70.7685, 0.00403462, NaN, NaN, NaN, 0.0372337, "- N/A -   "
2.37, 71.00438, 0.004051281, NaN, NaN, NaN, 0.03601294, "- N/A -   "
2.38, 71.3582, 0.00406794, NaN, NaN, NaN, 0.03601294, "- N/A -   "
2.39, 71.59412, 0.00408738, NaN, NaN, NaN, 0.0347922, "- N/A -   "
2.4, 71.83001, 0.004104039, NaN, NaN, NaN, 0.0347922, "- N/A -   "
2.41, 72.1838, 0.0041207, NaN, NaN, NaN, 0.0347922, "- N/A -   "
2.42, 72.5377, 0.00413736, NaN, NaN, NaN, 0.0347922, "- N/A -   "
2.43, 72.65564, 0.004154021, NaN, NaN, NaN, 0.0347922, "- N/A -   "
2.44, 72.89154, 0.00417068, NaN, NaN, NaN, 0.0347922, "- N/A -   "
2.45, 73.2454, 0.004187342, NaN, NaN, NaN, 0.0347922, "- N/A -   "
2.46, 73.36333, 0.004206779, NaN, NaN, NaN, 0.0347922, "- N/A -   "
2.47, 73.71717, 0.00422066, NaN, NaN, NaN, 0.0347922, "- N/A -   "
2.48, 73.83511, 0.004237323, NaN, NaN, NaN, 0.0347922, "- N/A -   "
2.49, 74.189, 0.004253984, NaN, NaN, NaN, 0.0347922, "- N/A -   "
2.5, 74.42485, 0.00427064, NaN, NaN, NaN, 0.0347922, "- N/A -   "
2.51, 74.66075, 0.004287305, NaN, NaN, NaN, 0.0347922, "- N/A -   "
2.52, 74.8966, 0.00430397, NaN, NaN, NaN, 0.0347922, "- N/A -   "
2.53, 75.13254, 0.00432063, NaN, NaN, NaN, 0.0347922, "- N/A -   "
2.54, 75.36844, 0.00434006, NaN, NaN, NaN, 0.0347922, "- N/A -   "
2.55, 75.7223, 0.00435672, NaN, NaN, NaN, 0.0335714, "- N/A -   "
2.56, 76.07612, 0.004376161, NaN, NaN, NaN, 0.0323506, "- N/A -   "
2.57, 76.31202, 0.004395598, NaN, NaN, NaN, 0.0323506, "- N/A -   "
2.58, 76.5479, 0.004412259, NaN, NaN, NaN, 0.03112983, "- N/A -   "
2.59, 76.7838, 0.00442892, NaN, NaN, NaN, 0.03112983, "- N/A -   "
2.6, 77.13765, 0.00444558, NaN, NaN, NaN, 0.03112983, "- N/A -   "
2.61, 77.37354, 0.004465017, NaN, NaN, NaN, 0.03112983, "- N/A -   "
2.62, 77.6094, 0.00448168, NaN, NaN, NaN, 0.03112983, "- N/A -   "
2.63, 77.96328, 0.004498338, NaN, NaN, NaN, 0.0299091, "- N/A -   "
2.64, 78.19917, 0.004515, NaN, NaN, NaN, 0.0299091, "- N/A -   "
2.65, 78.4351, 0.004531659, NaN, NaN, NaN, 0.03112983, "- N/A -   "
2.66, 78.67096, 0.004545543, NaN, NaN, NaN, 0.03112983, "- N/A -   "
2.67, 78.90686, 0.0045622, NaN, NaN, NaN, 0.0323506, "- N/A -   "
2.68, 79.0248, 0.004576087, NaN, NaN, NaN, 0.0323506, "- N/A -   "
2.69, 79.2607, 0.00459275, NaN, NaN, NaN, 0.0323506, "- N/A -   "
2.7, 79.4966, 0.004609408, NaN, NaN, NaN, 0.0335714, "- N/A -   "
2.71, 79.73249, 0.004623292, NaN, NaN, NaN, 0.0335714, "- N/A -   "
2.72, 80.0863, 0.00463995, NaN, NaN, NaN, 0.0335714, "- N/A -   "
2.73, 80.20428, 0.004656613, NaN, NaN, NaN, 0.0335714, "- N/A -   "
2.74, 80.55813, 0.00467327, NaN, NaN, NaN, 0.0335714, "- N/A -   "
2.75, 80.794, 0.00468993, NaN, NaN, NaN, 0.0347922, "- N/A -   "
2.76, 81.0299, 0.00470659, NaN, NaN, NaN, 0.0347922, "- N/A -   "
2.77, 81.26581, 0.004723255, NaN, NaN, NaN, 0.0347922, "- N/A -   "
2.78, 81.61965, 0.00473992, NaN, NaN, NaN, 0.0335714, "- N/A -   "
2.79, 81.8555, 0.00475935, NaN, NaN, NaN, 0.0323506, "- N/A -   "
2.8, 82.20939, 0.00477879, NaN, NaN, NaN, 0.0323506, "- N/A -   "
2.81, 82.44528, 0.00479545, NaN, NaN, NaN, 0.0323506, "- N/A -   "
2.82, 82.68118, 0.004809334, NaN, NaN, NaN, 0.0323506, "- N/A -   "
2.83, 82.91707, 0.004823218, NaN, NaN, NaN, 0.0335714, "- N/A -   "
2.84, 83.03502, 0.0048371, NaN, NaN, NaN, 0.0347922, "- N/A -   "
2.85, 83.27091, 0.00485099, NaN, NaN, NaN, 0.03601294, "- N/A -   "
2.86, 83.50681, 0.004864869, NaN, NaN, NaN, 0.0372337, "- N/A -   "
2.87, 83.74271, 0.004878753, NaN, NaN, NaN, 0.0384545, "- N/A -   "
2.88, 83.86065, 0.00489541, NaN, NaN, NaN, 0.0384545, "- N/A -   "
2.89, 84.21449, 0.004909297, NaN, NaN, NaN, 0.0396753, "- N/A -   "
2.9, 84.33244, 0.00492596, NaN, NaN, NaN, 0.0396753, "- N/A -   "
2.91, 84.56834, 0.004942619, NaN, NaN, NaN, 0.04089605, "- N/A -   "
2.92, 84.80424, 0.0049565, NaN, NaN, NaN, 0.04089605, "- N/A -   "
2.93, 85.15807, 0.004973163, NaN, NaN, NaN, 0.04089605, "- N/A -   "
2.94, 85.51192, 0.004987047, NaN, NaN, NaN, 0.04211683, "- N/A -   "
2.95, 85.62987, 0.005003707, NaN, NaN, NaN, 0.0433376, "- N/A -   "
2.96, 85.86576, 0.005017591, NaN, NaN, NaN, 0.0433376, "- N/A -   "
2.97, 86.1017, 0.005034251, NaN, NaN, NaN, 0.0433376, "- N/A -   "
2.98, 86.33755, 0.00505091, NaN, NaN, NaN, 0.0433376, "- N/A -   "
2.99, 86.57345, 0.00506757, NaN, NaN, NaN, 0.0445584, "- N/A -   "
3, 86.92729, 0.005084233, NaN, NaN, NaN, 0.0445584, "- N/A -   "
3.01, 87.16318, 0.005098117, NaN, NaN, NaN, 0.0445584, "- N/A -   "
3.02, 87.39908, 0.005114777, NaN, NaN, NaN, 0.04577916, "- N/A -   "
3.03, 87.75292, 0.00513144, NaN, NaN, NaN, 0.04577916, "- N/A -   "
3.04, 87.9888, 0.0051481, NaN, NaN, NaN, 0.04577916, "- N/A -   "
3.05, 88.22471, 0.005164759, NaN, NaN, NaN, 0.0445584, "- N/A -   "
3.06, 88.4606, 0.005181419, NaN, NaN, NaN, 0.0445584, "- N/A -   "
3.07, 88.6965, 0.005198079, NaN, NaN, NaN, 0.0445584, "- N/A -   "
3.08, 89.05035, 0.00521752, NaN, NaN, NaN, 0.0433376, "- N/A -   "
3.09, 89.40418, 0.00523695, NaN, NaN, NaN, 0.0433376, "- N/A -   "
3.1, 89.6401, 0.005253615, NaN, NaN, NaN, 0.04211683, "- N/A -   "
3.11, 89.87598, 0.00527305, NaN, NaN, NaN, 0.04211683, "- N/A -   "
3.12, 90.22981, 0.005289712, NaN, NaN, NaN, 0.04089605, "- N/A -   "
3.13, 90.58366, 0.005311926, NaN, NaN, NaN, 0.0396753, "- N/A -   "
3.14, 90.9375, 0.00532859, NaN, NaN, NaN, 0.0384545, "- N/A -   "
3.15, 91.1734, 0.00534802, NaN, NaN, NaN, 0.0372337, "- N/A -   "
3.16, 91.52724, 0.00536746, NaN, NaN, NaN, 0.03601294, "- N/A -   "
3.17, 91.88108, 0.005386899, NaN, NaN, NaN, 0.0347922, "- N/A -   "
3.18, 92.117, 0.005403559, NaN, NaN, NaN, 0.0347922, "- N/A -   "
3.19, 92.35287, 0.005422996, NaN, NaN, NaN, 0.0347922, "- N/A -   "
3.2, 92.70671, 0.00543966, NaN, NaN, NaN, 0.0335714, "- N/A -   "
3.21, 93.0606, 0.00545632, NaN, NaN, NaN, 0.0335714, "- N/A -   "
3.22, 93.1785, 0.00547298, NaN, NaN, NaN, 0.0335714, "- N/A -   "
3.23, 93.53234, 0.005489638, NaN, NaN, NaN, 0.0335714, "- N/A -   "
3.24, 93.76824, 0.0055063, NaN, NaN, NaN, 0.0335714, "- N/A -   "
3.25, 94.0041, 0.00552296, NaN, NaN, NaN, 0.0335714, "- N/A -   "
3.26, 94.24, 0.00553684, NaN, NaN, NaN, 0.0347922, "- N/A -   "
3.27, 94.47592, 0.0055535, NaN, NaN, NaN, 0.0347922, "- N/A -   "
3.28, 94.7118, 0.005570164, NaN, NaN, NaN, 0.0347922, "- N/A -   "
3.29, 95.06567, 0.00558683, NaN, NaN, NaN, 0.0347922, "- N/A -   "
3.3, 95.30156, 0.00560626, NaN, NaN, NaN, 0.0347922, "- N/A -   "
3.31, 95.6554, 0.005622922, NaN, NaN, NaN, 0.0335714, "- N/A -   "
3.32, 95.8913, 0.00564236, NaN, NaN, NaN, 0.0335714, "- N/A -   "
3.33, 96.24514, 0.00565902, NaN, NaN, NaN, 0.0335714, "- N/A -   "
3.34, 96.599, 0.00567568, NaN, NaN, NaN, 0.0323506, "- N/A -   "
3.35, 96.83487, 0.00569512, NaN, NaN, NaN, 0.03112983, "- N/A -   "
3.36, 97.07077, 0.00571456, NaN, NaN, NaN, 0.0299091, "- N/A -   "
3.37, 97.4246, 0.00573122, NaN, NaN, NaN, 0.0299091, "- N/A -   "
3.38, 97.6605, 0.00575065, NaN, NaN, NaN, 0.0299091, "- N/A -   "
3.39, 97.77845, 0.00576454, NaN, NaN, NaN, 0.0299091, "- N/A -   "
3.4, 98.13229, 0.0057812, NaN, NaN, NaN, 0.03112983, "- N/A -   "
3.41, 98.3682, 0.00579508, NaN, NaN, NaN, 0.03112983, "- N/A -   "
3.42, 98.60408, 0.00581174, NaN, NaN, NaN, 0.0323506, "- N/A -   "
3.43, 98.83998, 0.00582563, NaN, NaN, NaN, 0.0323506, "- N/A -   "
3.44, 99.0759, 0.00584229, NaN, NaN, NaN, 0.0323506, "- N/A -   "
3.45, 99.42972, 0.005858946, NaN, NaN, NaN, 0.0323506, "- N/A -   "
3.46, 99.66561, 0.00587561, NaN, NaN, NaN, 0.0323506, "- N/A -   "
3.47, 99.9015, 0.00589504, NaN, NaN, NaN, 0.0323506, "- N/A -   "
3.48, 100.255, 0.005911704, NaN, NaN, NaN, 0.0323506, "- N/A -   "
3.49, 100.491, 0.00592559, NaN, NaN, NaN, 0.0323506, "- N/A -   "
3.5, 100.727, 0.00594225, NaN, NaN, NaN, 0.0335714, "- N/A -   "
3.51, 100.963, 0.00595613, NaN, NaN, NaN, 0.0335714, "- N/A -   "
3.52, 101.199, 0.005970016, NaN, NaN, NaN, 0.0347922, "- N/A -   "
3.53, 101.435, 0.0059839, NaN, NaN, NaN, 0.03601294, "- N/A -   "
3.54, 101.553, 0.005997784, NaN, NaN, NaN, 0.0372337, "- N/A -   "
3.55, 101.907, 0.00601167, NaN, NaN, NaN, 0.0384545, "- N/A -   "
3.56, 102.025, 0.006025552, NaN, NaN, NaN, 0.0396753, "- N/A -   "
3.57, 102.26, 0.00603944, NaN, NaN, NaN, 0.04211683, "- N/A -   "
3.58, 102.3784, 0.00605332, NaN, NaN, NaN, 0.04211683, "- N/A -   "
3.59, 102.732, 0.0060672, NaN, NaN, NaN, 0.0433376, "- N/A -   "
3.6, 102.85, 0.006083864, NaN, NaN, NaN, 0.0445584, "- N/A -   "
3.61, 103.086, 0.00609775, NaN, NaN, NaN, 0.04577916, "- N/A -   "
3.62, 103.44, 0.00611163, NaN, NaN, NaN, 0.04699994, "- N/A -   "
3.63, 103.794, 0.00612551, NaN, NaN, NaN, 0.0482207, "- N/A -   "
3.64, 103.912, 0.006139398, NaN, NaN, NaN, 0.0494415, "- N/A -   "
3.65, 104.266, 0.00615606, NaN, NaN, NaN, 0.0494415, "- N/A -   "
3.66, 104.501, 0.00617272, NaN, NaN, NaN, 0.0494415, "- N/A -   "
3.67, 104.737, 0.006192156, NaN, NaN, NaN, 0.0494415, "- N/A -   "
3.68, 105.091, 0.00620882, NaN, NaN, NaN, 0.0482207, "- N/A -   "
3.69, 105.327, 0.006225478, NaN, NaN, NaN, 0.0482207, "- N/A -   "
3.7, 105.681, 0.00624491, NaN, NaN, NaN, 0.0482207, "- N/A -   "
3.71, 106.035, 0.006261576, NaN, NaN, NaN, 0.04699994, "- N/A -   "
3.72, 106.271, 0.006281012, NaN, NaN, NaN, 0.04577916, "- N/A -   "
3.73, 106.742, 0.00630045, NaN, NaN, NaN, 0.0445584, "- N/A -   "
3.74, 106.978, 0.00631989, NaN, NaN, NaN, 0.0433376, "- N/A -   "
3.75, 107.3322, 0.006339324, NaN, NaN, NaN, 0.04211683, "- N/A -   "
3.76, 107.686, 0.006358762, NaN, NaN, NaN, 0.04089605, "- N/A -   "
3.77, 108.158, 0.0063782, NaN, NaN, NaN, 0.0396753, "- N/A -   "
3.78, 108.276, 0.006397636, NaN, NaN, NaN, 0.0384545, "- N/A -   "
3.79, 108.63, 0.006417074, NaN, NaN, NaN, 0.0384545, "- N/A -   "
3.8, 108.983, 0.00643651, NaN, NaN, NaN, 0.0372337, "- N/A -   "
3.81, 109.3373, 0.006453172, NaN, NaN, NaN, 0.03601294, "- N/A -   "
3.82, 109.691, 0.00647539, NaN, NaN, NaN, 0.0347922, "- N/A -   "
3.83, 109.927, 0.006492046, NaN, NaN, NaN, 0.0335714, "- N/A -   "
3.84, 110.281, 0.00651148, NaN, NaN, NaN, 0.0323506, "- N/A -   "
3.85, 110.517, 0.006528144, NaN, NaN, NaN, 0.0335714, "- N/A -   "
3.86, 110.753, 0.006544804, NaN, NaN, NaN, 0.0335714, "- N/A -   "
3.87, 110.989, 0.006558688, NaN, NaN, NaN, 0.0335714, "- N/A -   "
3.88, 111.342, 0.00657812, NaN, NaN, NaN, 0.0335714, "- N/A -   "
3.89, 111.696, 0.006594786, NaN, NaN, NaN, 0.0323506, "- N/A -   "
3.9, 111.932, 0.00661145, NaN, NaN, NaN, 0.0323506, "- N/A -   "
3.91, 112.168, 0.006630884, NaN, NaN, NaN, 0.0323506, "- N/A -   "
3.92, 112.404, 0.006647544, NaN, NaN, NaN, 0.03112983, "- N/A -   "
3.93, 112.758, 0.00666698, NaN, NaN, NaN, 0.03112983, "- N/A -   "
3.94, 112.994, 0.006683642, NaN, NaN, NaN, 0.0299091, "- N/A -   "
3.95, 113.465, 0.00670308, NaN, NaN, NaN, 0.0286883, "- N/A -   "
3.96, 113.701, 0.00672252, NaN, NaN, NaN, 0.0286883, "- N/A -   "
3.97, 114.055, 0.0067364, NaN, NaN, NaN, 0.0286883, "- N/A -   "
3.98, 114.173, 0.00675306, NaN, NaN, NaN, 0.0286883, "- N/A -   "
3.99, 114.527, 0.00676972, NaN, NaN, NaN, 0.0286883, "- N/A -   "
4, 114.881, 0.006786382, NaN, NaN, NaN, 0.0286883, "- N/A -   "
4.01, 115.117, 0.00680304, NaN, NaN, NaN, 0.0286883, "- N/A -   "
4.02, 115.353, 0.006816926, NaN, NaN, NaN, 0.0299091, "- N/A -   "
4.03, 115.589, 0.00683359, NaN, NaN, NaN, 0.0299091, "- N/A -   "
4.04, 115.942, 0.006853024, NaN, NaN, NaN, 0.0299091, "- N/A -   "
4.05, 116.178, 0.00686968, NaN, NaN, NaN, 0.0286883, "- N/A -   "
4.06, 116.5321, 0.00688634, NaN, NaN, NaN, 0.0286883, "- N/A -   "
4.07, 116.768, 0.00690023, NaN, NaN, NaN, 0.0299091, "- N/A -   "
4.08, 117.004, 0.00691689, NaN, NaN, NaN, 0.0299091, "- N/A -   "
4.09, 117.24, 0.00693355, NaN, NaN, NaN, 0.03112983, "- N/A -   "
4.1, 117.476, 0.00694743, NaN, NaN, NaN, 0.0323506, "- N/A -   "
4.11, 117.712, 0.006961317, NaN, NaN, NaN, 0.0323506, "- N/A -   "
4.12, 117.947, 0.0069752, NaN, NaN, NaN, 0.0335714, "- N/A -   "
4.13, 118.183, 0.00698908, NaN, NaN, NaN, 0.0347922, "- N/A -   "
4.14, 118.419, 0.00700297, NaN, NaN, NaN, 0.03601294, "- N/A -   "
4.15, 118.655, 0.007019629, NaN, NaN, NaN, 0.03601294, "- N/A -   "
4.16, 119.009, 0.00703629, NaN, NaN, NaN, 0.0372337, "- N/A -   "
4.17, 119.245, 0.007050173, NaN, NaN, NaN, 0.0372337, "- N/A -   "
4.18, 119.481, 0.00706683, NaN, NaN, NaN, 0.0384545, "- N/A -   "
4.19, 119.717, 0.007080717, NaN, NaN, NaN, 0.0384545, "- N/A -   "
4.2, 119.953, 0.00710015, NaN, NaN, NaN, 0.0384545, "- N/A -   "
4.21, 120.306, 0.00711404, NaN, NaN, NaN, 0.0384545, "- N/A -   "
4.22, 120.424, 0.00712792, NaN, NaN, NaN, 0.0396753, "- N/A -   "
4.23, 120.778, 0.00714458, NaN, NaN, NaN, 0.04089605, "- N/A -   "
4.24, 120.896, 0.00715569, NaN, NaN, NaN, 0.04211683, "- N/A -   "
4.25, 121.132, 0.007169573, NaN, NaN, NaN, 0.0433376, "- N/A -   "
4.26, 121.486, 0.007183457, NaN, NaN, NaN, 0.0445584, "- N/A -   "
4.27, 121.722, 0.00719734, NaN, NaN, NaN, 0.04577916, "- N/A -   "
4.28, 122.076, 0.007214001, NaN, NaN, NaN, 0.04577916, "- N/A -   "
4.29, 122.429, 0.00723344, NaN, NaN, NaN, 0.0445584, "- N/A -   "
4.3, 122.665, 0.007250099, NaN, NaN, NaN, 0.0445584, "- N/A -   "
4.31, 122.901, 0.00726676, NaN, NaN, NaN, 0.04577916, "- N/A -   "
4.32, 123.137, 0.007280643, NaN, NaN, NaN, 0.04577916, "- N/A -   "
4.33, 123.491, 0.0072973, NaN, NaN, NaN, 0.04577916, "- N/A -   "
4.34, 123.7269, 0.00731396, NaN, NaN, NaN, 0.04577916, "- N/A -   "
4.35, 124.081, 0.007330625, NaN, NaN, NaN, 0.04577916, "- N/A -   "
4.36, 124.317, 0.007347285, NaN, NaN, NaN, 0.04577916, "- N/A -   "
4.37, 124.553, 0.007363946, NaN, NaN, NaN, 0.04577916, "- N/A -   "
4.38, 124.906, 0.00738061, NaN, NaN, NaN, 0.04577916, "- N/A -   "
4.39, 125.26, 0.007397267, NaN, NaN, NaN, 0.04577916, "- N/A -   "
4.4, 125.614, 0.007419481, NaN, NaN, NaN, 0.0445584, "- N/A -   "
4.41, 125.85, 0.007436141, NaN, NaN, NaN, 0.0433376, "- N/A -   "
4.42, 126.204, 0.0074528, NaN, NaN, NaN, 0.0433376, "- N/A -   "
4.43, 126.558, 0.00746946, NaN, NaN, NaN, 0.0433376, "- N/A -   "
4.44, 126.794, 0.0074889, NaN, NaN, NaN, 0.0433376, "- N/A -   "
4.45, 127.029, 0.00750556, NaN, NaN, NaN, 0.0433376, "- N/A -   "
4.46, 127.501, 0.007524997, NaN, NaN, NaN, 0.04211683, "- N/A -   "
4.47, 127.737, 0.00754443, NaN, NaN, NaN, 0.04089605, "- N/A -   "
4.48, 128.209, 0.00756387, NaN, NaN, NaN, 0.0396753, "- N/A -   "
4.49, 128.4448, 0.00758053, NaN, NaN, NaN, 0.0384545, "- N/A -   "
4.5, 128.799, 0.00759997, NaN, NaN, NaN, 0.0372337, "- N/A -   "
4.51, 129.035, 0.007619407, NaN, NaN, NaN, 0.03601294, "- N/A -   "
4.52, 129.388, 0.00763884, NaN, NaN, NaN, 0.0347922, "- N/A -   "
4.53, 129.86, 0.00766106, NaN, NaN, NaN, 0.0335714, "- N/A -   "
4.54, 130.096, 0.0076805, NaN, NaN, NaN, 0.0323506, "- N/A -   "
4.55, 130.4499, 0.00769716, NaN, NaN, NaN, 0.03112983, "- N/A -   "
4.56, 130.804, 0.00771659, NaN, NaN, NaN, 0.0299091, "- N/A -   "
4.57, 131.04, 0.00773325, NaN, NaN, NaN, 0.0299091, "- N/A -   "
4.58, 131.276, 0.00774991, NaN, NaN, NaN, 0.0299091, "- N/A -   "
4.59, 131.629, 0.007766575, NaN, NaN, NaN, 0.0299091, "- N/A -   "
4.6, 131.983, 0.007783235, NaN, NaN, NaN, 0.0299091, "- N/A -   "
4.61, 132.219, 0.0077999, NaN, NaN, NaN, 0.0299091, "- N/A -   "
4.62, 132.455, 0.007819333, NaN, NaN, NaN, 0.0299091, "- N/A -   "
4.63, 132.6909, 0.007835994, NaN, NaN, NaN, 0.0286883, "- N/A -   "
4.64, 133.163, 0.007852655, NaN, NaN, NaN, 0.0286883, "- N/A -   "
4.65, 133.399, 0.007866538, NaN, NaN, NaN, 0.0299091, "- N/A -   "
4.66, 133.517, 0.007880421, NaN, NaN, NaN, 0.03112983, "- N/A -   "
4.67, 133.87, 0.007897083, NaN, NaN, NaN, 0.03112983, "- N/A -   "
4.68, 134.106, 0.007913743, NaN, NaN, NaN, 0.0323506, "- N/A -   "
4.69, 134.342, 0.007927627, NaN, NaN, NaN, 0.0323506, "- N/A -   "
4.7, 134.696, 0.00794151, NaN, NaN, NaN, 0.0335714, "- N/A -   "
4.71, 134.932, 0.007958171, NaN, NaN, NaN, 0.0335714, "- N/A -   "
4.72, 135.286, 0.007974831, NaN, NaN, NaN, 0.0347922, "- N/A -   "
4.73, 135.522, 0.007988716, NaN, NaN, NaN, 0.0347922, "- N/A -   "
4.74, 135.64, 0.008002599, NaN, NaN, NaN, 0.03601294, "- N/A -   "
4.75, 135.875, 0.008016483, NaN, NaN, NaN, 0.0372337, "- N/A -   "
4.76, 136.229, 0.008033143, NaN, NaN, NaN, 0.0372337, "- N/A -   "
4.77, 136.583, 0.008049804, NaN, NaN, NaN, 0.0372337, "- N/A -   "
4.78, 136.701, 0.008066465, NaN, NaN, NaN, 0.0372337, "- N/A -   "
4.79, 137.055, 0.008080347, NaN, NaN, NaN, 0.0384545, "- N/A -   "
4.8, 137.4088, 0.008097009, NaN, NaN, NaN, 0.0384545, "- N/A -   "
4.81, 137.6447, 0.008113669, NaN, NaN, NaN, 0.0384545, "- N/A -   "
4.82, 138.116, 0.008133107, NaN, NaN, NaN, 0.0384545, "- N/A -   "
4.83, 138.352, 0.008149767, NaN, NaN, NaN, 0.0372337, "- N/A -   "
4.84, 138.588, 0.008166427, NaN, NaN, NaN, 0.0372337, "- N/A -   "
4.85, 138.824, 0.008183087, NaN, NaN, NaN, 0.0372337, "- N/A -   "
4.86, 139.178, 0.008199749, NaN, NaN, NaN, 0.0372337, "- N/A -   "
4.87, 139.532, 0.008216409, NaN, NaN, NaN, 0.0372337, "- N/A -   "
4.88, 139.768, 0.008233069, NaN, NaN, NaN, 0.0372337, "- N/A -   "
4.89, 140.004, 0.008246954, NaN, NaN, NaN, 0.0384545, "- N/A -   "
4.9, 140.24, 0.008263613, NaN, NaN, NaN, 0.0384545, "- N/A -   "
4.91, 140.593, 0.00828027, NaN, NaN, NaN, 0.0396753, "- N/A -   "
4.92, 140.829, 0.008294158, NaN, NaN, NaN, 0.0396753, "- N/A -   "
4.93, 141.065, 0.008308042, NaN, NaN, NaN, 0.04089605, "- N/A -   "
4.94, 141.301, 0.008324701, NaN, NaN, NaN, 0.04089605, "- N/A -   "
4.95, 141.6549, 0.008341363, NaN, NaN, NaN, 0.04211683, "- N/A -   "
4.96, 141.891, 0.008358023, NaN, NaN, NaN, 0.04211683, "- N/A -   "
4.97, 142.1267, 0.008371907, NaN, NaN, NaN, 0.04211683, "- N/A -   "
4.98, 142.3626, 0.008388568, NaN, NaN, NaN, 0.04211683, "- N/A -   "
4.99, 142.716, 0.008402451, NaN, NaN, NaN, 0.0433376, "- N/A -   "
5, 142.952, 0.008416335, NaN, NaN, NaN, 0.0445584, "- N/A -   "
5.01, 143.188, 0.008433, NaN, NaN, NaN, 0.0445584, "- N/A -   "
5.02, 143.424, 0.008449656, NaN, NaN, NaN, 0.0445584, "- N/A -   "
5.03, 143.896, 0.008466317, NaN, NaN, NaN, 0.0445584, "- N/A -   "
5.04, 144.132, 0.008485753, NaN, NaN, NaN, 0.0445584, "- N/A -   "
5.05, 144.486, 0.00850241, NaN, NaN, NaN, 0.0433376, "- N/A -   "
5.06, 144.957, 0.008521851, NaN, NaN, NaN, 0.0433376, "- N/A -   "
5.07, 145.193, 0.008541289, NaN, NaN, NaN, 0.04211683, "- N/A -   "
5.08, 145.547, 0.008557949, NaN, NaN, NaN, 0.04089605, "- N/A -   "
5.09, 146.019, 0.008580163, NaN, NaN, NaN, 0.0396753, "- N/A -   "
5.1, 146.255, 0.008596824, NaN, NaN, NaN, 0.0384545, "- N/A -   "
5.11, 146.6087, 0.008616261, NaN, NaN, NaN, 0.0372337, "- N/A -   "
5.12, 146.963, 0.008635698, NaN, NaN, NaN, 0.03601294, "- N/A -   "
5.13, 147.316, 0.00865514, NaN, NaN, NaN, 0.0347922, "- N/A -   "
5.14, 147.67, 0.008674573, NaN, NaN, NaN, 0.0335714, "- N/A -   "
5.15, 148.024, 0.00869401, NaN, NaN, NaN, 0.0335714, "- N/A -   "
5.16, 148.378, 0.008710671, NaN, NaN, NaN, 0.0323506, "- N/A -   "
5.17, 148.6138, 0.008730108, NaN, NaN, NaN, 0.03112983, "- N/A -   "
5.18, 149.0856, 0.008749546, NaN, NaN, NaN, 0.0299091, "- N/A -   "
5.19, 149.439, 0.008766206, NaN, NaN, NaN, 0.0299091, "- N/A -   "
5.2, 149.675, 0.008785644, NaN, NaN, NaN, 0.0299091, "- N/A -   "
5.21, 149.911, 0.008802303, NaN, NaN, NaN, 0.0286883, "- N/A -   "
5.22, 150.265, 0.008818964, NaN, NaN, NaN, 0.0286883, "- N/A -   "
5.23, 150.501, 0.008835624, NaN, NaN, NaN, 0.0299091, "- N/A -   "
5.24, 150.855, 0.008852285, NaN, NaN, NaN, 0.0299091, "- N/A -   "
5.25, 150.973, 0.00886617, NaN, NaN, NaN, 0.0299091, "- N/A -   "
5.26, 151.327, 0.00888283, NaN, NaN, NaN, 0.03112983, "- N/A -   "
5.27, 151.5625, 0.008896713, NaN, NaN, NaN, 0.03112983, "- N/A -   "
5.28, 151.916, 0.008910597, NaN, NaN, NaN, 0.0323506, "- N/A -   "
5.29, 152.152, 0.00892448, NaN, NaN, NaN, 0.0335714, "- N/A -   "
5.3, 152.388, 0.008941141, NaN, NaN, NaN, 0.0347922, "- N/A -   "
5.31, 152.742, 0.008955025, NaN, NaN, NaN, 0.0347922, "- N/A -   "
5.32, 152.978, 0.008971686, NaN, NaN, NaN, 0.0347922, "- N/A -   "
5.33, 153.332, 0.008988346, NaN, NaN, NaN, 0.03601294, "- N/A -   "
5.34, 153.686, 0.009002229, NaN, NaN, NaN, 0.03601294, "- N/A -   "
5.35, 153.921, 0.00901889, NaN, NaN, NaN, 0.03601294, "- N/A -   "
5.36, 154.157, 0.00903555, NaN, NaN, NaN, 0.03601294, "- N/A -   "
5.37, 154.511, 0.009052211, NaN, NaN, NaN, 0.03601294, "- N/A -   "
5.38, 154.747, 0.009071648, NaN, NaN, NaN, 0.0347922, "- N/A -   "
5.39, 155.219, 0.009091086, NaN, NaN, NaN, 0.0347922, "- N/A -   "
5.4, 155.455, 0.009107746, NaN, NaN, NaN, 0.0335714, "- N/A -   "
5.41, 155.809, 0.009124407, NaN, NaN, NaN, 0.0335714, "- N/A -   "
5.42, 156.162, 0.009143844, NaN, NaN, NaN, 0.0323506, "- N/A -   "
5.43, 156.5163, 0.009163282, NaN, NaN, NaN, 0.0323506, "- N/A -   "
5.44, 156.87, 0.009179941, NaN, NaN, NaN, 0.03112983, "- N/A -   "
5.45, 157.224, 0.009196602, NaN, NaN, NaN, 0.03112983, "- N/A -   "
5.46, 157.46, 0.009213262, NaN, NaN, NaN, 0.03112983, "- N/A -   "
5.47, 157.696, 0.009227146, NaN, NaN, NaN, 0.0323506, "- N/A -   "
5.48, 157.932, 0.009243808, NaN, NaN, NaN, 0.0323506, "- N/A -   "
5.49, 158.168, 0.009260467, NaN, NaN, NaN, 0.0335714, "- N/A -   "
5.5, 158.521, 0.009274351, NaN, NaN, NaN, 0.0347922, "- N/A -   "
5.51, 158.7573, 0.009285458, NaN, NaN, NaN, 0.03601294, "- N/A -   "
5.52, 158.9932, 0.009302118, NaN, NaN, NaN, 0.0372337, "- N/A -   "
5.53, 159.347, 0.009316002, NaN, NaN, NaN, 0.0372337, "- N/A -   "
5.54, 159.583, 0.009332663, NaN, NaN, NaN, 0.0372337, "- N/A -   "
5.55, 159.937, 0.009349324, NaN, NaN, NaN, 0.0372337, "- N/A -   "
5.56, 160.2906, 0.009365984, NaN, NaN, NaN, 0.0384545, "- N/A -   "
5.57, 160.5265, 0.009377091, NaN, NaN, NaN, 0.0396753, "- N/A -   "
5.58, 160.7624, 0.009393752, NaN, NaN, NaN, 0.04089605, "- N/A -   "
5.59, 160.998, 0.009407636, NaN, NaN, NaN, 0.04089605, "- N/A -   "
5.6, 161.352, 0.009424296, NaN, NaN, NaN, 0.04089605, "- N/A -   "
5.61, 161.588, 0.009438179, NaN, NaN, NaN, 0.04211683, "- N/A -   "
5.62, 161.942, 0.00945484, NaN, NaN, NaN, 0.04211683, "- N/A -   "
5.63, 162.296, 0.0094715, NaN, NaN, NaN, 0.04211683, "- N/A -   "
5.64, 162.768, 0.009488162, NaN, NaN, NaN, 0.04211683, "- N/A -   "
5.65, 163.0034, 0.009507598, NaN, NaN, NaN, 0.04089605, "- N/A -   "
5.66, 163.475, 0.009524259, NaN, NaN, NaN, 0.04089605, "- N/A -   "
5.67, 163.829, 0.009543696, NaN, NaN, NaN, 0.04089605, "- N/A -   "
5.68, 164.183, 0.00955758, NaN, NaN, NaN, 0.04089605, "- N/A -   "
5.69, 164.537, 0.009577017, NaN, NaN, NaN, 0.04089605, "- N/A -   "
5.7, 164.891, 0.0095909, NaN, NaN, NaN, 0.04089605, "- N/A -   "
5.71, 165.2444, 0.009610338, NaN, NaN, NaN, 0.0396753, "- N/A -   "
5.72, 165.598, 0.009626999, NaN, NaN, NaN, 0.0396753, "- N/A -   "
5.73, 165.952, 0.00964366, NaN, NaN, NaN, 0.0396753, "- N/A -   "
5.74, 166.188, 0.00966032, NaN, NaN, NaN, 0.0396753, "- N/A -   "
5.75, 166.66, 0.00967698, NaN, NaN, NaN, 0.0396753, "- N/A -   "
5.76, 167.014, 0.009693641, NaN, NaN, NaN, 0.0396753, "- N/A -   "
5.77, 167.367, 0.009710302, NaN, NaN, NaN, 0.0396753, "- N/A -   "
5.78, 167.7213, 0.009729738, NaN, NaN, NaN, 0.0396753, "- N/A -   "
5.79, 168.075, 0.0097464, NaN, NaN, NaN, 0.0396753, "- N/A -   "
5.8, 168.429, 0.00976306, NaN, NaN, NaN, 0.0396753, "- N/A -   "
5.81, 168.783, 0.009776944, NaN, NaN, NaN, 0.0396753, "- N/A -   "
5.82, 169.137, 0.009793604, NaN, NaN, NaN, 0.0396753, "- N/A -   "
5.83, 169.373, 0.009810264, NaN, NaN, NaN, 0.0396753, "- N/A -   "
5.84, 169.726, 0.009826926, NaN, NaN, NaN, 0.0396753, "- N/A -   "
5.85, 170.08, 0.009843586, NaN, NaN, NaN, 0.0396753, "- N/A -   "
5.86, 170.316, 0.009863023, NaN, NaN, NaN, 0.0396753, "- N/A -   "
5.87, 170.788, 0.009879684, NaN, NaN, NaN, 0.0396753, "- N/A -   "
5.88, 171.142, 0.009896344, NaN, NaN, NaN, 0.0384545, "- N/A -   "
5.89, 171.496, 0.009913004, NaN, NaN, NaN, 0.0384545, "- N/A -   "
5.9, 171.849, 0.009929664, NaN, NaN, NaN, 0.0384545, "- N/A -   "
5.91, 172.203, 0.009949102, NaN, NaN, NaN, 0.0384545, "- N/A -   "
5.92, 172.6751, 0.00996576, NaN, NaN, NaN, 0.0384545, "- N/A -   "
5.93, 172.911, 0.009982424, NaN, NaN, NaN, 0.0384545, "- N/A -   "
5.94, 173.265, 0.009999084, NaN, NaN, NaN, 0.0372337, "- N/A -   "
5.95, 173.619, 0.0100157, NaN, NaN, NaN, 0.0372337, "- N/A -   "
5.96, 174.09, 0.0100352, NaN, NaN, NaN, 0.03601294, "- N/A -   "
[...]
28.85, 1066.9, 0.04817109, NaN, NaN, NaN, 0.04211683, "- N/A -   "
28.88, 1068.21, 0.04821552, NaN, NaN, NaN, 0.0445584, "- N/A -   "
28.91, 1069.287, 0.0482655, NaN, NaN, NaN, 0.0445584, "- N/A -   "
28.94, 1070.718, 0.04831826, NaN, NaN, NaN, 0.0433376, "- N/A -   "
28.97, 1072.39, 0.04837657, NaN, NaN, NaN, 0.0396753, "- N/A -   "
29, 1073.82, 0.0484377, NaN, NaN, NaN, 0.03601294, "- N/A -   "
29.03, 1075.25, 0.04849042, NaN, NaN, NaN, 0.0347922, "- N/A -   "
29.06, 1076.56, 0.0485404, NaN, NaN, NaN, 0.0347922, "- N/A -   "
29.09, 1077.873, 0.04859038, NaN, NaN, NaN, 0.0335714, "- N/A -   "
29.12, 1079.18, 0.04864314, NaN, NaN, NaN, 0.0335714, "- N/A -   "
29.15, 1080.38, 0.04868757, NaN, NaN, NaN, 0.0347922, "- N/A -   "
29.18, 1081.57, 0.0487348, NaN, NaN, NaN, 0.0372337, "- N/A -   "
29.21, 1082.76, 0.048782, NaN, NaN, NaN, 0.0372337, "- N/A -   "
29.24, 1084.07, 0.04883196, NaN, NaN, NaN, 0.0372337, "- N/A -   "
29.27, 1085.51, 0.04888472, NaN, NaN, NaN, 0.03601294, "- N/A -   "
29.3, 1086.94, 0.04894025, NaN, NaN, NaN, 0.0335714, "- N/A -   "
29.33, 1088.25, 0.0489902, NaN, NaN, NaN, 0.0335714, "- N/A -   "
29.36, 1089.44, 0.0490374, NaN, NaN, NaN, 0.0347922, "- N/A -   "
29.39, 1090.75, 0.04908464, NaN, NaN, NaN, 0.0372337, "- N/A -   "
29.42, 1091.83, 0.0491291, NaN, NaN, NaN, 0.0384545, "- N/A -   "
29.45, 1092.9, 0.0491735, NaN, NaN, NaN, 0.04089605, "- N/A -   "
29.48, 1093.972, 0.04921793, NaN, NaN, NaN, 0.0433376, "- N/A -   "
29.51, 1095.28, 0.04926791, NaN, NaN, NaN, 0.0445584, "- N/A -   "
29.54, 1096.6, 0.0493207, NaN, NaN, NaN, 0.0433376, "- N/A -   "
29.57, 1098.15, 0.0493734, NaN, NaN, NaN, 0.04089605, "- N/A -   "
29.6, 1099.46, 0.0494262, NaN, NaN, NaN, 0.04089605, "- N/A -   "
29.63, 1100.77, 0.0494762, NaN, NaN, NaN, 0.0396753, "- N/A -   "
29.66, 1102.2, 0.0495289, NaN, NaN, NaN, 0.0384545, "- N/A -   "
29.69, 1103.51, 0.04958168, NaN, NaN, NaN, 0.0372337, "- N/A -   "
29.72, 1104.94, 0.0496344, NaN, NaN, NaN, 0.03601294, "- N/A -   "
29.75, 1106.26, 0.0496872, NaN, NaN, NaN, 0.0347922, "- N/A -   "
29.78, 1107.686, 0.0497427, NaN, NaN, NaN, 0.0323506, "- N/A -   "
29.81, 1109, 0.0497927, NaN, NaN, NaN, 0.0323506, "- N/A -   "
29.84, 1110.31, 0.0498455, NaN, NaN, NaN, 0.03112983, "- N/A -   "
29.87, 1111.74, 0.04989823, NaN, NaN, NaN, 0.03112983, "- N/A -   "
29.9, 1113.05, 0.0499454, NaN, NaN, NaN, 0.03112983, "- N/A -   "
29.93, 1114.245, 0.04999542, NaN, NaN, NaN, 0.03112983, "- N/A -   "
29.96, 1115.44, 0.05004262, NaN, NaN, NaN, 0.0323506, "- N/A -   "
29.99, 1116.87, 0.05009538, NaN, NaN, NaN, 0.03112983, "- N/A -   "
30.02, 1118.3, 0.0501481, NaN, NaN, NaN, 0.0299091, "- N/A -   "
30.05, 1119.61, 0.0501981, NaN, NaN, NaN, 0.0299091, "- N/A -   "
30.08, 1121.04, 0.05025088, NaN, NaN, NaN, 0.0299091, "- N/A -   "
30.11, 1122.23, 0.0502981, NaN, NaN, NaN, 0.0299091, "- N/A -   "
30.14, 1123.19, 0.05033696, NaN, NaN, NaN, 0.0347922, "- N/A -   "
30.17, 1124.14, 0.0503758, NaN, NaN, NaN, 0.0396753, "- N/A -   "
30.2, 1125.1, 0.0504175, NaN, NaN, NaN, 0.0433376, "- N/A -   "
30.23, 1126.29, 0.0504619, NaN, NaN, NaN, 0.04577916, "- N/A -   "
30.26, 1127.6, 0.0505119, NaN, NaN, NaN, 0.04577916, "- N/A -   "
30.29, 1128.79, 0.0505591, NaN, NaN, NaN, 0.04699994, "- N/A -   "
30.32, 1130.11, 0.05060908, NaN, NaN, NaN, 0.04699994, "- N/A -   "
30.35, 1131.42, 0.0506591, NaN, NaN, NaN, 0.04699994, "- N/A -   "
30.38, 1132.85, 0.0507146, NaN, NaN, NaN, 0.0445584, "- N/A -   "
30.41, 1134.16, 0.05077013, NaN, NaN, NaN, 0.04211683, "- N/A -   "
30.44, 1135.71, 0.0508257, NaN, NaN, NaN, 0.0396753, "- N/A -   "
30.47, 1137.26, 0.0508812, NaN, NaN, NaN, 0.0372337, "- N/A -   "
30.5, 1138.69, 0.0509367, NaN, NaN, NaN, 0.0347922, "- N/A -   "
30.53, 1140.242, 0.0509923, NaN, NaN, NaN, 0.0323506, "- N/A -   "
30.56, 1141.55, 0.05104781, NaN, NaN, NaN, 0.0299091, "- N/A -   "
30.59, 1142.87, 0.0510978, NaN, NaN, NaN, 0.0299091, "- N/A -   "
30.62, 1144.18, 0.05114777, NaN, NaN, NaN, 0.0299091, "- N/A -   "
30.65, 1145.73, 0.0512033, NaN, NaN, NaN, 0.0286883, "- N/A -   "
30.68, 1146.8, 0.0512505, NaN, NaN, NaN, 0.0286883, "- N/A -   "
30.71, 1147.99, 0.0512949, NaN, NaN, NaN, 0.03112983, "- N/A -   "
30.74, 1149.42, 0.05134492, NaN, NaN, NaN, 0.03112983, "- N/A -   "
30.77, 1150.62, 0.0513949, NaN, NaN, NaN, 0.0323506, "- N/A -   "
30.8, 1151.81, 0.05143933, NaN, NaN, NaN, 0.0347922, "- N/A -   "
30.83, 1152.76, 0.05148098, NaN, NaN, NaN, 0.0396753, "- N/A -   "
30.86, 1153.84, 0.0515199, NaN, NaN, NaN, 0.0433376, "- N/A -   "
30.89, 1154.79, 0.0515643, NaN, NaN, NaN, 0.04699994, "- N/A -   "
30.92, 1156.1, 0.0516087, NaN, NaN, NaN, 0.0482207, "- N/A -   "
30.95, 1157.41, 0.05165869, NaN, NaN, NaN, 0.0494415, "- N/A -   "
30.98, 1158.61, 0.0517087, NaN, NaN, NaN, 0.0482207, "- N/A -   "
31.01, 1160.28, 0.051767, NaN, NaN, NaN, 0.0445584, "- N/A -   "
31.04, 1161.71, 0.0518253, NaN, NaN, NaN, 0.04211683, "- N/A -   "
31.07, 1163.38, 0.0518864, NaN, NaN, NaN, 0.03601294, "- N/A -   "
31.1, 1164.81, 0.0519391, NaN, NaN, NaN, 0.0347922, "- N/A -   "
31.13, 1166.358, 0.05199468, NaN, NaN, NaN, 0.0335714, "- N/A -   "
31.16, 1167.67, 0.05204744, NaN, NaN, NaN, 0.03112983, "- N/A -   "
31.19, 1169.1, 0.05210297, NaN, NaN, NaN, 0.0286883, "- N/A -   "
31.22, 1170.53, 0.05215573, NaN, NaN, NaN, 0.0274675, "- N/A -   "
31.25, 1171.84, 0.0522085, NaN, NaN, NaN, 0.0274675, "- N/A -   "
31.28, 1173.04, 0.0522557, NaN, NaN, NaN, 0.0286883, "- N/A -   "
31.31, 1174.47, 0.0523029, NaN, NaN, NaN, 0.0286883, "- N/A -   "
31.34, 1175.66, 0.0523557, NaN, NaN, NaN, 0.0274675, "- N/A -   "
31.37, 1176.97, 0.0524056, NaN, NaN, NaN, 0.0274675, "- N/A -   "
31.4, 1178.04, 0.05245007, NaN, NaN, NaN, 0.0299091, "- N/A -   "
31.43, 1179.24, 0.0524945, NaN, NaN, NaN, 0.0323506, "- N/A -   "
31.46, 1180.072, 0.05253059, NaN, NaN, NaN, 0.0384545, "- N/A -   "
31.49, 1181.15, 0.0525722, NaN, NaN, NaN, 0.04211683, "- N/A -   "
31.52, 1182.22, 0.0526139, NaN, NaN, NaN, 0.04577916, "- N/A -   "
31.55, 1183.53, 0.0526639, NaN, NaN, NaN, 0.04699994, "- N/A -   "
31.58, 1184.842, 0.0527139, NaN, NaN, NaN, 0.04577916, "- N/A -   "
31.61, 1186.15, 0.0527666, NaN, NaN, NaN, 0.04577916, "- N/A -   "
31.64, 1187.47, 0.0528166, NaN, NaN, NaN, 0.04577916, "- N/A -   "
31.67, 1188.9, 0.0528638, NaN, NaN, NaN, 0.04577916, "- N/A -   "
31.7, 1190.21, 0.05291934, NaN, NaN, NaN, 0.0445584, "- N/A -   "
31.73, 1191.64, 0.05296932, NaN, NaN, NaN, 0.0433376, "- N/A -   "
31.76, 1193.07, 0.05302763, NaN, NaN, NaN, 0.0396753, "- N/A -   "
31.79, 1194.62, 0.05308594, NaN, NaN, NaN, 0.0372337, "- N/A -   "
31.82, 1196.29, 0.0531443, NaN, NaN, NaN, 0.0335714, "- N/A -   "
31.85, 1197.602, 0.05319701, NaN, NaN, NaN, 0.03112983, "- N/A -   "
31.88, 1199.03, 0.053247, NaN, NaN, NaN, 0.03112983, "- N/A -   "
31.91, 1200.23, 0.053297, NaN, NaN, NaN, 0.03112983, "- N/A -   "
31.94, 1201.42, 0.0533442, NaN, NaN, NaN, 0.0323506, "- N/A -   "
31.97, 1202.61, 0.0533914, NaN, NaN, NaN, 0.0335714, "- N/A -   "
32, 1203.92, 0.05343581, NaN, NaN, NaN, 0.03601294, "- N/A -   "
32.03, 1205.35, 0.05348857, NaN, NaN, NaN, 0.03601294, "- N/A -   "
32.06, 1206.43, 0.0535358, NaN, NaN, NaN, 0.03601294, "- N/A -   "
32.09, 1207.86, 0.0535858, NaN, NaN, NaN, 0.0372337, "- N/A -   "
32.12, 1209.05, 0.05363296, NaN, NaN, NaN, 0.0372337, "- N/A -   "
32.15, 1210.362, 0.05368017, NaN, NaN, NaN, 0.0384545, "- N/A -   "
32.18, 1211.55, 0.0537274, NaN, NaN, NaN, 0.0396753, "- N/A -   "
32.21, 1212.63, 0.0537746, NaN, NaN, NaN, 0.04211683, "- N/A -   "
32.24, 1213.94, 0.053819, NaN, NaN, NaN, 0.0433376, "- N/A -   "
32.27, 1215.13, 0.053869, NaN, NaN, NaN, 0.0445584, "- N/A -   "
32.3, 1216.32, 0.05391619, NaN, NaN, NaN, 0.0445584, "- N/A -   "
32.33, 1217.64, 0.0539634, NaN, NaN, NaN, 0.04577916, "- N/A -   "
32.36, 1219.07, 0.05401338, NaN, NaN, NaN, 0.04577916, "- N/A -   "
32.39, 1220.62, 0.05407724, NaN, NaN, NaN, 0.04089605, "- N/A -   "
32.42, 1222.168, 0.0541383, NaN, NaN, NaN, 0.0347922, "- N/A -   "
32.45, 1223.96, 0.0541966, NaN, NaN, NaN, 0.03112983, "- N/A -   "
32.48, 1225.39, 0.054255, NaN, NaN, NaN, 0.0286883, "- N/A -   "
32.51, 1226.7, 0.05430216, NaN, NaN, NaN, 0.0286883, "- N/A -   "
32.54, 1227.77, 0.0543494, NaN, NaN, NaN, 0.0299091, "- N/A -   "
32.57, 1229.08, 0.0543966, NaN, NaN, NaN, 0.03112983, "- N/A -   "
32.6, 1230.4, 0.0544438, NaN, NaN, NaN, 0.0323506, "- N/A -   "
32.63, 1231.47, 0.0544882, NaN, NaN, NaN, 0.0347922, "- N/A -   "
32.66, 1232.66, 0.0545382, NaN, NaN, NaN, 0.03601294, "- N/A -   "
32.69, 1234.09, 0.05459094, NaN, NaN, NaN, 0.0335714, "- N/A -   "
32.72, 1235.76, 0.0546465, NaN, NaN, NaN, 0.03112983, "- N/A -   "
32.75, 1237.07, 0.0546992, NaN, NaN, NaN, 0.0299091, "- N/A -   "
32.78, 1238.39, 0.05474922, NaN, NaN, NaN, 0.03112983, "- N/A -   "
32.81, 1239.46, 0.0547909, NaN, NaN, NaN, 0.0335714, "- N/A -   "
32.84, 1240.53, 0.0548353, NaN, NaN, NaN, 0.03601294, "- N/A -   "
32.87, 1241.606, 0.0548797, NaN, NaN, NaN, 0.0396753, "- N/A -   "
32.9, 1242.8, 0.0549242, NaN, NaN, NaN, 0.04211683, "- N/A -   "
32.93, 1243.99, 0.0549714, NaN, NaN, NaN, 0.04211683, "- N/A -   "
32.96, 1245.54, 0.0550269, NaN, NaN, NaN, 0.0396753, "- N/A -   "
32.99, 1246.85, 0.0550769, NaN, NaN, NaN, 0.0396753, "- N/A -   "
33.02, 1248.28, 0.0551269, NaN, NaN, NaN, 0.0396753, "- N/A -   "
33.05, 1249.36, 0.0551768, NaN, NaN, NaN, 0.04089605, "- N/A -   "
33.08, 1250.79, 0.0552296, NaN, NaN, NaN, 0.0396753, "- N/A -   "
33.11, 1252.22, 0.05527958, NaN, NaN, NaN, 0.0384545, "- N/A -   "
33.14, 1253.53, 0.0553296, NaN, NaN, NaN, 0.0396753, "- N/A -   "
33.17, 1254.843, 0.05537954, NaN, NaN, NaN, 0.0384545, "- N/A -   "
33.2, 1256.15, 0.0554323, NaN, NaN, NaN, 0.0372337, "- N/A -   "
33.23, 1257.47, 0.05548228, NaN, NaN, NaN, 0.0372337, "- N/A -   "
33.26, 1258.9, 0.055535, NaN, NaN, NaN, 0.03601294, "- N/A -   "
33.29, 1260.33, 0.05559057, NaN, NaN, NaN, 0.0347922, "- N/A -   "
33.32, 1261.64, 0.05563778, NaN, NaN, NaN, 0.0347922, "- N/A -   "
33.35, 1262.952, 0.05568776, NaN, NaN, NaN, 0.0347922, "- N/A -   "
33.38, 1264.38, 0.0557405, NaN, NaN, NaN, 0.0335714, "- N/A -   "
33.41, 1265.46, 0.0557905, NaN, NaN, NaN, 0.0335714, "- N/A -   "
33.44, 1266.77, 0.0558377, NaN, NaN, NaN, 0.03601294, "- N/A -   "
33.47, 1268.08, 0.05589046, NaN, NaN, NaN, 0.0335714, "- N/A -   "
33.5, 1269.51, 0.0559432, NaN, NaN, NaN, 0.0335714, "- N/A -   "
33.53, 1270.82, 0.0559932, NaN, NaN, NaN, 0.0323506, "- N/A -   "
33.56, 1271.896, 0.05603485, NaN, NaN, NaN, 0.03601294, "- N/A -   "
33.59, 1273.09, 0.0560793, NaN, NaN, NaN, 0.0384545, "- N/A -   "
33.62, 1274.4, 0.0561265, NaN, NaN, NaN, 0.0396753, "- N/A -   "
33.65, 1275.47, 0.05617369, NaN, NaN, NaN, 0.04089605, "- N/A -   "
33.68, 1276.67, 0.0562181, NaN, NaN, NaN, 0.0433376, "- N/A -   "
33.71, 1277.98, 0.05626532, NaN, NaN, NaN, 0.0445584, "- N/A -   "
33.74, 1279.29, 0.0563153, NaN, NaN, NaN, 0.0445584, "- N/A -   "
33.77, 1280.72, 0.05636806, NaN, NaN, NaN, 0.0433376, "- N/A -   "
33.8, 1282.15, 0.0564236, NaN, NaN, NaN, 0.04089605, "- N/A -   "
33.83, 1283.82, 0.0564847, NaN, NaN, NaN, 0.0372337, "- N/A -   "
33.86, 1285.37, 0.056543, NaN, NaN, NaN, 0.0323506, "- N/A -   "
33.89, 1286.8, 0.0565985, NaN, NaN, NaN, 0.03112983, "- N/A -   "
33.92, 1288, 0.0566485, NaN, NaN, NaN, 0.03112983, "- N/A -   "
33.95, 1289.55, 0.0567013, NaN, NaN, NaN, 0.0299091, "- N/A -   "
33.98, 1290.62, 0.05674848, NaN, NaN, NaN, 0.0299091, "- N/A -   "
34.01, 1291.93, 0.0567957, NaN, NaN, NaN, 0.03112983, "- N/A -   "
34.04, 1293.24, 0.05684844, NaN, NaN, NaN, 0.0299091, "- N/A -   "
34.07, 1294.67, 0.0569012, NaN, NaN, NaN, 0.0286883, "- N/A -   "
34.1, 1295.985, 0.0569512, NaN, NaN, NaN, 0.0299091, "- N/A -   "
34.13, 1297.3, 0.0570012, NaN, NaN, NaN, 0.0286883, "- N/A -   "
34.16, 1298.61, 0.0570511, NaN, NaN, NaN, 0.0286883, "- N/A -   "
34.19, 1299.8, 0.0570956, NaN, NaN, NaN, 0.03112983, "- N/A -   "
34.22, 1300.87, 0.05714, NaN, NaN, NaN, 0.0335714, "- N/A -   "
34.25, 1301.83, 0.0571789, NaN, NaN, NaN, 0.0384545, "- N/A -   "
34.28, 1302.78, 0.0572205, NaN, NaN, NaN, 0.0433376, "- N/A -   "
34.31, 1303.97, 0.057265, NaN, NaN, NaN, 0.04577916, "- N/A -   "
34.34, 1305.17, 0.0573122, NaN, NaN, NaN, 0.04577916, "- N/A -   "
34.37, 1306.48, 0.05735659, NaN, NaN, NaN, 0.0482207, "- N/A -   "
34.4, 1307.79, 0.0574093, NaN, NaN, NaN, 0.04699994, "- N/A -   "
34.43, 1309.34, 0.0574649, NaN, NaN, NaN, 0.0445584, "- N/A -   "
34.46, 1310.65, 0.0575204, NaN, NaN, NaN, 0.04211683, "- N/A -   "
34.49, 1312.2, 0.05757595, NaN, NaN, NaN, 0.0396753, "- N/A -   "
34.52, 1313.63, 0.05762871, NaN, NaN, NaN, 0.0384545, "- N/A -   "
34.55, 1315.07, 0.0576815, NaN, NaN, NaN, 0.0372337, "- N/A -   "
34.58, 1316.38, 0.05773423, NaN, NaN, NaN, 0.03601294, "- N/A -   "
34.61, 1317.81, 0.057787, NaN, NaN, NaN, 0.0347922, "- N/A -   "
34.64, 1319.239, 0.0578425, NaN, NaN, NaN, 0.0323506, "- N/A -   "
34.67, 1320.67, 0.05790083, NaN, NaN, NaN, 0.0299091, "- N/A -   "
34.7, 1321.98, 0.05795081, NaN, NaN, NaN, 0.0286883, "- N/A -   "
34.73, 1323.53, 0.0580036, NaN, NaN, NaN, 0.0274675, "- N/A -   "
34.76, 1324.61, 0.0580508, NaN, NaN, NaN, 0.0299091, "- N/A -   "
34.79, 1325.92, 0.05809798, NaN, NaN, NaN, 0.0299091, "- N/A -   "
34.82, 1327.229, 0.0581452, NaN, NaN, NaN, 0.03112983, "- N/A -   "
34.85, 1328.06, 0.0581868, NaN, NaN, NaN, 0.0347922, "- N/A -   "
34.88, 1329.26, 0.05822849, NaN, NaN, NaN, 0.0384545, "- N/A -   "
34.91, 1330.33, 0.0582729, NaN, NaN, NaN, 0.04089605, "- N/A -   "
34.94, 1331.522, 0.05832012, NaN, NaN, NaN, 0.0433376, "- N/A -   "
34.97, 1332.83, 0.0583673, NaN, NaN, NaN, 0.0433376, "- N/A -   "
35, 1334.26, 0.0584201, NaN, NaN, NaN, 0.04211683, "- N/A -   "
35.03, 1335.46, 0.0584701, NaN, NaN, NaN, 0.04211683, "- N/A -   "
35.06, 1336.77, 0.05852, NaN, NaN, NaN, 0.0433376, "- N/A -   "
35.09, 1338.08, 0.05857003, NaN, NaN, NaN, 0.04211683, "- N/A -   "
35.12, 1339.39, 0.05862001, NaN, NaN, NaN, 0.04211683, "- N/A -   "
35.15, 1340.82, 0.0586755, NaN, NaN, NaN, 0.0396753, "- N/A -   "
35.18, 1342.37, 0.0587339, NaN, NaN, NaN, 0.03601294, "- N/A -   "
35.21, 1344.04, 0.0587949, NaN, NaN, NaN, 0.03112983, "- N/A -   "
35.24, 1345.59, 0.0588533, NaN, NaN, NaN, 0.0274675, "- N/A -   "
35.27, 1346.91, 0.05890324, NaN, NaN, NaN, 0.0274675, "- N/A -   "
35.3, 1348.22, 0.058956, NaN, NaN, NaN, 0.0274675, "- N/A -   "
35.33, 1349.65, 0.0590088, NaN, NaN, NaN, 0.0262467, "- N/A -   "
35.36, 1350.84, 0.059056, NaN, NaN, NaN, 0.0274675, "- N/A -   "
35.39, 1351.91, 0.05910039, NaN, NaN, NaN, 0.0299091, "- N/A -   "
35.42, 1353.226, 0.0591448, NaN, NaN, NaN, 0.0323506, "- N/A -   "
35.45, 1354.3, 0.0591865, NaN, NaN, NaN, 0.03601294, "- N/A -   "
35.48, 1355.49, 0.05923645, NaN, NaN, NaN, 0.03601294, "- N/A -   "
35.51, 1356.92, 0.0592864, NaN, NaN, NaN, 0.03601294, "- N/A -   "
35.54, 1358.23, 0.0593392, NaN, NaN, NaN, 0.0347922, "- N/A -   "
35.57, 1359.43, 0.0593892, NaN, NaN, NaN, 0.0347922, "- N/A -   "
35.6, 1360.74, 0.0594336, NaN, NaN, NaN, 0.0372337, "- N/A -   "
35.63, 1361.57, 0.05947247, NaN, NaN, NaN, 0.04211683, "- N/A -   "
35.66, 1362.65, 0.05951412, NaN, NaN, NaN, 0.04699994, "- N/A -   "
35.69, 1363.84, 0.0595613, NaN, NaN, NaN, 0.04699994, "- N/A -   "
35.72, 1365.27, 0.0596085, NaN, NaN, NaN, 0.0482207, "- N/A -   "
35.75, 1366.7, 0.05966129, NaN, NaN, NaN, 0.04699994, "- N/A -   "
35.78, 1368.25, 0.0597196, NaN, NaN, NaN, 0.0445584, "- N/A -   "
35.81, 1369.92, 0.05978069, NaN, NaN, NaN, 0.0396753, "- N/A -   "
35.84, 1371.35, 0.0598362, NaN, NaN, NaN, 0.03601294, "- N/A -   "
35.87, 1372.78, 0.05989176, NaN, NaN, NaN, 0.0335714, "- N/A -   "
35.9, 1374.095, 0.0599445, NaN, NaN, NaN, 0.0323506, "- N/A -   "
35.93, 1375.29, 0.0599917, NaN, NaN, NaN, 0.0347922, "- N/A -   "
35.96, 1376.48, 0.0600362, NaN, NaN, NaN, 0.03601294, "- N/A -   "
35.99, 1377.79, 0.0600834, NaN, NaN, NaN, 0.0372337, "- N/A -   "
36.02, 1378.865, 0.0601278, NaN, NaN, NaN, 0.0396753, "- N/A -   "
36.05, 1380.18, 0.0601778, NaN, NaN, NaN, 0.0396753, "- N/A -   "
36.08, 1381.61, 0.0602333, NaN, NaN, NaN, 0.0372337, "- N/A -   "
36.11, 1383.039, 0.06028884, NaN, NaN, NaN, 0.0347922, "- N/A -   "
36.14, 1384.47, 0.0603416, NaN, NaN, NaN, 0.0335714, "- N/A -   "
36.17, 1385.9, 0.0603916, NaN, NaN, NaN, 0.0335714, "- N/A -   "
36.2, 1387.09, 0.0604416, NaN, NaN, NaN, 0.0335714, "- N/A -   "
36.23, 1388.41, 0.0604888, NaN, NaN, NaN, 0.03601294, "- N/A -   "
36.26, 1389.48, 0.0605332, NaN, NaN, NaN, 0.0372337, "- N/A -   "
36.29, 1390.55, 0.0605748, NaN, NaN, NaN, 0.04089605, "- N/A -   "
36.32, 1391.86, 0.0606248, NaN, NaN, NaN, 0.04089605, "- N/A -   "
36.35, 1393.18, 0.06067758, NaN, NaN, NaN, 0.04089605, "- N/A -   "
36.38, 1394.61, 0.06073034, NaN, NaN, NaN, 0.0384545, "- N/A -   "
36.41, 1395.8, 0.0607775, NaN, NaN, NaN, 0.04089605, "- N/A -   "
36.44, 1397.23, 0.0608275, NaN, NaN, NaN, 0.04089605, "- N/A -   "
36.47, 1398.54, 0.06088029, NaN, NaN, NaN, 0.0396753, "- N/A -   "
36.5, 1400.09, 0.060933, NaN, NaN, NaN, 0.0372337, "- N/A -   "
36.53, 1401.4, 0.060983, NaN, NaN, NaN, 0.0372337, "- N/A -   "
36.56, 1402.6, 0.061033, NaN, NaN, NaN, 0.0372337, "- N/A -   "
36.59, 1403.908, 0.0610885, NaN, NaN, NaN, 0.03601294, "- N/A -   "
36.62, 1405.22, 0.0611385, NaN, NaN, NaN, 0.0347922, "- N/A -   "
36.65, 1406.65, 0.06119128, NaN, NaN, NaN, 0.0335714, "- N/A -   "
36.68, 1408.08, 0.06124404, NaN, NaN, NaN, 0.0323506, "- N/A -   "
36.71, 1409.51, 0.0612968, NaN, NaN, NaN, 0.03112983, "- N/A -   "
36.74, 1410.71, 0.0613468, NaN, NaN, NaN, 0.03112983, "- N/A -   "
36.77, 1412.14, 0.0613968, NaN, NaN, NaN, 0.03112983, "- N/A -   "
36.8, 1413.45, 0.0614467, NaN, NaN, NaN, 0.03112983, "- N/A -   "
36.83, 1414.52, 0.06149117, NaN, NaN, NaN, 0.0335714, "- N/A -   "
36.86, 1415.83, 0.0615384, NaN, NaN, NaN, 0.0347922, "- N/A -   "
36.89, 1417.14, 0.0615911, NaN, NaN, NaN, 0.0335714, "- N/A -   "
36.92, 1418.46, 0.0616411, NaN, NaN, NaN, 0.0335714, "- N/A -   "
36.95, 1419.77, 0.0616911, NaN, NaN, NaN, 0.0335714, "- N/A -   "
36.98, 1420.84, 0.0617383, NaN, NaN, NaN, 0.03601294, "- N/A -   "
37.01, 1422.03, 0.06178, NaN, NaN, NaN, 0.0384545, "- N/A -   "
37.04, 1423.23, 0.0618244, NaN, NaN, NaN, 0.04089605, "- N/A -   "
37.07, 1424.3, 0.06187159, NaN, NaN, NaN, 0.0433376, "- N/A -   "
37.1, 1425.49, 0.061916, NaN, NaN, NaN, 0.04577916, "- N/A -   "
37.13, 1426.8, 0.06196322, NaN, NaN, NaN, 0.04577916, "- N/A -   "
37.16, 1428.12, 0.062016, NaN, NaN, NaN, 0.04577916, "- N/A -   "
37.19, 1429.67, 0.0620715, NaN, NaN, NaN, 0.04211683, "- N/A -   "
37.22, 1431.22, 0.06212982, NaN, NaN, NaN, 0.0396753, "- N/A -   "
37.25, 1432.767, 0.06218536, NaN, NaN, NaN, 0.03601294, "- N/A -   "
37.28, 1434.08, 0.0622381, NaN, NaN, NaN, 0.03601294, "- N/A -   "
37.31, 1435.27, 0.0622853, NaN, NaN, NaN, 0.03601294, "- N/A -   "
37.34, 1436.58, 0.0623353, NaN, NaN, NaN, 0.03601294, "- N/A -   "
37.37, 1438.13, 0.0623881, NaN, NaN, NaN, 0.0347922, "- N/A -   "
37.4, 1439.33, 0.062438, NaN, NaN, NaN, 0.0347922, "- N/A -   "
37.43, 1440.76, 0.0624908, NaN, NaN, NaN, 0.0335714, "- N/A -   "
37.46, 1442.07, 0.0625436, NaN, NaN, NaN, 0.0323506, "- N/A -   "
37.49, 1443.38, 0.06259632, NaN, NaN, NaN, 0.03112983, "- N/A -   "
37.52, 1444.69, 0.0626463, NaN, NaN, NaN, 0.0323506, "- N/A -   "
37.55, 1446, 0.06269628, NaN, NaN, NaN, 0.03112983, "- N/A -   "
37.58, 1447.32, 0.0627407, NaN, NaN, NaN, 0.0335714, "- N/A -   "
37.61, 1448.51, 0.06279069, NaN, NaN, NaN, 0.0335714, "- N/A -   "
37.64, 1449.58, 0.06283512, NaN, NaN, NaN, 0.03601294, "- N/A -   "
37.67, 1450.54, 0.06287677, NaN, NaN, NaN, 0.0396753, "- N/A -   "
37.7, 1451.728, 0.0629212, NaN, NaN, NaN, 0.04211683, "- N/A -   "
37.73, 1452.92, 0.0629656, NaN, NaN, NaN, 0.0445584, "- N/A -   "
37.76, 1454.113, 0.06301283, NaN, NaN, NaN, 0.04577916, "- N/A -   "
37.79, 1455.31, 0.06306281, NaN, NaN, NaN, 0.04699994, "- N/A -   "
37.796, 1455.544, 0.06307114, NaN, NaN, NaN, 0.04699994, "- N/A -   "