File: 2_Tensile_Data/Hamel_ForceTest_Bolt4_Test10.csv
Time, Load (lb), Position (in), AxialStrain (in), TransverseStrain (in), Auxiliary (), Control Out (V), Stress (psi)
0.0, 14.2716, 0.0, NaN, NaN, NaN, -0.007935055, "- N/A -   "
0.01, 14.3896, 0.0, NaN, NaN, NaN, -6.103888E-4, "- N/A -   "
0.02, 14.2716, 0.0, NaN, NaN, NaN, 0.0115974, "- N/A -   "
0.03, 14.3896, 2.776752E-6, NaN, NaN, NaN, 0.0299091, "- N/A -   "
0.04, 14.3896, 8.330256E-6, NaN, NaN, NaN, 0.04699994, "- N/A -   "
0.05, 14.7434, 1.94373e-05, NaN, NaN, NaN, 0.06164927, "- N/A -   "
0.06, 14.8614, 3.60978e-05, NaN, NaN, NaN, 0.07385705, "- N/A -   "
0.07, 15.4511, 5.5535e-05, NaN, NaN, NaN, 0.084844, "- N/A -   "
0.08, 16.0409, 8.05258E-5, NaN, NaN, NaN, 0.09338949, "- N/A -   "
0.09, 16.6306, 0.00011107, NaN, NaN, NaN, 0.09949338, "- N/A -   "
0.1, 17.2203, 0.000141614, NaN, NaN, NaN, 0.103156, "- N/A -   "
0.11, 17.928, 0.000177712, NaN, NaN, NaN, 0.09461027, "- N/A -   "
0.12, 18.3998, 0.000211033, NaN, NaN, NaN, 0.08850638, "- N/A -   "
0.13, 19.1075, 0.000238801, NaN, NaN, NaN, 0.08362327, "- N/A -   "
0.14, 19.4613, 0.000263791, NaN, NaN, NaN, 0.0799609, "- N/A -   "
0.15, 20.05107, 0.000288782, NaN, NaN, NaN, 0.0750778, "- N/A -   "
0.16, 20.287, 3.109962E-4, NaN, NaN, NaN, 0.07385705, "- N/A -   "
0.17, 20.7588, 0.000330433, NaN, NaN, NaN, 0.07141549, "- N/A -   "
0.18, 21.1126, 0.000349871, NaN, NaN, NaN, 0.0701947, "- N/A -   "
0.19, 21.46644, 0.000372085, NaN, NaN, NaN, 0.06775316, "- N/A -   "
0.2, 21.93823, 0.000391522, NaN, NaN, NaN, 0.06653238, "- N/A -   "
0.21, 22.29207, 4.081825E-4, NaN, NaN, NaN, 0.06653238, "- N/A -   "
0.22, 22.6459, 4.276198E-4, NaN, NaN, NaN, 0.0653116, "- N/A -   "
0.23, 22.9998, 0.000447057, NaN, NaN, NaN, 0.0640908, "- N/A -   "
0.24, 23.3536, 4.664943E-4, NaN, NaN, NaN, 0.06287005, "- N/A -   "
0.25, 23.7074, 4.887083E-4, NaN, NaN, NaN, 0.06164927, "- N/A -   "
0.26, 24.0613, 5.053688E-4, NaN, NaN, NaN, 0.0604285, "- N/A -   "
0.27, 24.4151, 5.248061E-4, NaN, NaN, NaN, 0.0592077, "- N/A -   "
0.28, 24.8869, 5.470201E-4, NaN, NaN, NaN, 0.0579869, "- N/A -   "
0.29, 25.2408, 5.664574E-4, NaN, NaN, NaN, 0.0555454, "- N/A -   "
0.3, 25.4767, 5.858946E-4, NaN, NaN, NaN, 0.0543246, "- N/A -   "
0.31, 25.9484, 6.053319E-4, NaN, NaN, NaN, 0.0531038, "- N/A -   "
0.32, 26.4202, 0.000627546, NaN, NaN, NaN, 0.05188305, "- N/A -   "
0.33, 26.6561, 0.000646983, NaN, NaN, NaN, 0.05066227, "- N/A -   "
0.34, 27.01, 0.00066642, NaN, NaN, NaN, 0.0482207, "- N/A -   "
0.35, 27.4818, 6.858577E-4, NaN, NaN, NaN, 0.04699994, "- N/A -   "
0.36, 27.8356, 0.000705295, NaN, NaN, NaN, 0.04699994, "- N/A -   "
0.37, 28.1894, 7.219555E-4, NaN, NaN, NaN, 0.04577916, "- N/A -   "
0.38, 28.54329, 7.413927E-4, NaN, NaN, NaN, 0.0445584, "- N/A -   "
0.39, 28.89713, 7.6083E-4, NaN, NaN, NaN, 0.0433376, "- N/A -   "
0.4, 29.251, 0.000780267, NaN, NaN, NaN, 0.04211683, "- N/A -   "
0.41, 29.6048, 0.000802481, NaN, NaN, NaN, 0.04089605, "- N/A -   "
0.42, 29.9587, 8.191418E-4, NaN, NaN, NaN, 0.0396753, "- N/A -   "
0.43, 30.3125, 8.38579E-4, NaN, NaN, NaN, 0.0384545, "- N/A -   "
0.44, 30.6663, 8.552396E-4, NaN, NaN, NaN, 0.0384545, "- N/A -   "
0.45, 30.9022, 8.746768E-4, NaN, NaN, NaN, 0.0384545, "- N/A -   "
0.46, 31.374, 0.000891337, NaN, NaN, NaN, 0.0372337, "- N/A -   "
0.47, 31.492, 0.000907998, NaN, NaN, NaN, 0.0372337, "- N/A -   "
0.48, 31.9638, 9.274351E-4, NaN, NaN, NaN, 0.0372337, "- N/A -   "
0.49, 32.1997, 9.440956E-4, NaN, NaN, NaN, 0.0372337, "- N/A -   "
0.5, 32.67145, 0.000960756, NaN, NaN, NaN, 0.03601294, "- N/A -   "
0.51, 32.9073, 9.801934E-4, NaN, NaN, NaN, 0.03601294, "- N/A -   "
0.52, 33.2612, 9.968539E-4, NaN, NaN, NaN, 0.0347922, "- N/A -   "
0.53, 33.49708, 0.00101351, NaN, NaN, NaN, 0.0347922, "- N/A -   "
0.54, 33.8509, 0.00103017, NaN, NaN, NaN, 0.0347922, "- N/A -   "
0.55, 34.2048, 0.00104961, NaN, NaN, NaN, 0.0335714, "- N/A -   "
0.56, 34.4407, 0.00106627, NaN, NaN, NaN, 0.0335714, "- N/A -   "
0.57, 34.9125, 0.00108571, NaN, NaN, NaN, 0.0323506, "- N/A -   "
0.58, 35.2663, 0.00110515, NaN, NaN, NaN, 0.03112983, "- N/A -   "
0.59, 35.6201, 0.00112181, NaN, NaN, NaN, 0.03112983, "- N/A -   "
0.6, 35.85603, 0.001141245, NaN, NaN, NaN, 0.03112983, "- N/A -   "
0.61, 36.2099, 0.00115791, NaN, NaN, NaN, 0.0299091, "- N/A -   "
0.62, 36.5637, 0.001174566, NaN, NaN, NaN, 0.0299091, "- N/A -   "
0.63, 36.79961, 0.00119123, NaN, NaN, NaN, 0.0299091, "- N/A -   "
0.64, 37.0355, 0.00120789, NaN, NaN, NaN, 0.03112983, "- N/A -   "
0.65, 37.2714, 0.00122177, NaN, NaN, NaN, 0.03112983, "- N/A -   "
0.66, 37.6252, 0.00123843, NaN, NaN, NaN, 0.0323506, "- N/A -   "
0.67, 37.8611, 0.00125232, NaN, NaN, NaN, 0.0323506, "- N/A -   "
0.68, 38.215, 0.00126898, NaN, NaN, NaN, 0.0323506, "- N/A -   "
0.69, 38.4509, 0.00128286, NaN, NaN, NaN, 0.0335714, "- N/A -   "
0.7, 38.68677, 0.00129952, NaN, NaN, NaN, 0.0347922, "- N/A -   "
0.71, 38.9227, 0.0013134, NaN, NaN, NaN, 0.0347922, "- N/A -   "
0.72, 39.2765, 0.00132729, NaN, NaN, NaN, 0.03601294, "- N/A -   "
0.73, 39.3945, 0.00134117, NaN, NaN, NaN, 0.0372337, "- N/A -   "
0.74, 39.7483, 0.00135505, NaN, NaN, NaN, 0.0384545, "- N/A -   "
0.75, 39.98419, 0.00136894, NaN, NaN, NaN, 0.0396753, "- N/A -   "
0.76, 40.22009, 0.0013856, NaN, NaN, NaN, 0.0396753, "- N/A -   "
0.77, 40.456, 0.00140226, NaN, NaN, NaN, 0.04089605, "- N/A -   "
0.78, 40.69188, 0.00141614, NaN, NaN, NaN, 0.04089605, "- N/A -   "
0.79, 41.04572, 0.0014328, NaN, NaN, NaN, 0.04211683, "- N/A -   "
0.8, 41.16367, 0.00144669, NaN, NaN, NaN, 0.04211683, "- N/A -   "
0.81, 41.51751, 0.00146335, NaN, NaN, NaN, 0.04211683, "- N/A -   "
0.82, 41.8714, 0.00148001, NaN, NaN, NaN, 0.0433376, "- N/A -   "
0.83, 42.1072, 0.00149667, NaN, NaN, NaN, 0.0433376, "- N/A -   "
0.84, 42.3431, 0.001510553, NaN, NaN, NaN, 0.0433376, "- N/A -   "
0.85, 42.579, 0.00152721, NaN, NaN, NaN, 0.0433376, "- N/A -   "
0.86, 42.93288, 0.001543874, NaN, NaN, NaN, 0.0433376, "- N/A -   "
0.87, 43.2867, 0.00156053, NaN, NaN, NaN, 0.0433376, "- N/A -   "
0.88, 43.5226, 0.001577195, NaN, NaN, NaN, 0.0433376, "- N/A -   "
0.89, 43.87646, 0.00159386, NaN, NaN, NaN, 0.0433376, "- N/A -   "
0.9, 44.1124, 0.00160774, NaN, NaN, NaN, 0.0445584, "- N/A -   "
0.91, 44.34825, 0.0016244, NaN, NaN, NaN, 0.0445584, "- N/A -   "
0.92, 44.58414, 0.00164106, NaN, NaN, NaN, 0.0445584, "- N/A -   "
0.93, 44.93799, 0.00165772, NaN, NaN, NaN, 0.0445584, "- N/A -   "
0.94, 45.17388, 0.001677158, NaN, NaN, NaN, 0.0433376, "- N/A -   "
0.95, 45.40978, 0.00169382, NaN, NaN, NaN, 0.0433376, "- N/A -   "
0.96, 45.76362, 0.00171048, NaN, NaN, NaN, 0.0445584, "- N/A -   "
0.97, 45.8816, 0.00172714, NaN, NaN, NaN, 0.0433376, "- N/A -   "
0.98, 46.23541, 0.00174658, NaN, NaN, NaN, 0.0433376, "- N/A -   "
0.99, 46.5893, 0.00176601, NaN, NaN, NaN, 0.04211683, "- N/A -   "
1, 46.8251, 0.00178267, NaN, NaN, NaN, 0.04089605, "- N/A -   "
1.01, 47.179, 0.001802112, NaN, NaN, NaN, 0.0396753, "- N/A -   "
1.02, 47.5328, 0.00182155, NaN, NaN, NaN, 0.0384545, "- N/A -   "
1.03, 47.8867, 0.00184376, NaN, NaN, NaN, 0.0372337, "- N/A -   "
1.04, 48.00462, 0.00186042, NaN, NaN, NaN, 0.03601294, "- N/A -   "
1.05, 48.2405, 0.001879861, NaN, NaN, NaN, 0.03601294, "- N/A -   "
1.06, 48.59436, 0.00189652, NaN, NaN, NaN, 0.0347922, "- N/A -   "
1.07, 48.7123, 0.00191596, NaN, NaN, NaN, 0.0335714, "- N/A -   "
1.08, 49.0661, 0.001935396, NaN, NaN, NaN, 0.0323506, "- N/A -   "
1.09, 49.41999, 0.00195761, NaN, NaN, NaN, 0.0299091, "- N/A -   "
1.1, 49.6559, 0.00197705, NaN, NaN, NaN, 0.0286883, "- N/A -   "
1.11, 50.0097, 0.00199648, NaN, NaN, NaN, 0.0286883, "- N/A -   "
1.12, 50.1277, 0.00201592, NaN, NaN, NaN, 0.0274675, "- N/A -   "
1.13, 50.3636, 0.00202981, NaN, NaN, NaN, 0.0274675, "- N/A -   "
1.14, 50.7174, 0.00205202, NaN, NaN, NaN, 0.0262467, "- N/A -   "
1.15, 50.9533, 0.0020659, NaN, NaN, NaN, 0.0262467, "- N/A -   "
1.16, 51.1892, 0.002082564, NaN, NaN, NaN, 0.0262467, "- N/A -   "
1.17, 51.4251, 0.00209922, NaN, NaN, NaN, 0.0262467, "- N/A -   "
1.18, 51.66099, 0.00211588, NaN, NaN, NaN, 0.0274675, "- N/A -   "
1.19, 51.89689, 0.00212977, NaN, NaN, NaN, 0.0274675, "- N/A -   "
1.2, 52.01483, 0.00214643, NaN, NaN, NaN, 0.0286883, "- N/A -   "
1.21, 52.36868, 0.00216031, NaN, NaN, NaN, 0.0286883, "- N/A -   "
1.22, 52.6046, 0.00217697, NaN, NaN, NaN, 0.0286883, "- N/A -   "
1.23, 52.72252, 0.002193634, NaN, NaN, NaN, 0.0299091, "- N/A -   "
1.24, 53.0764, 0.00220752, NaN, NaN, NaN, 0.0299091, "- N/A -   "
1.25, 53.3123, 0.0022214, NaN, NaN, NaN, 0.03112983, "- N/A -   "
1.26, 53.4302, 0.002238062, NaN, NaN, NaN, 0.0323506, "- N/A -   "
1.27, 53.6661, 0.00225195, NaN, NaN, NaN, 0.0323506, "- N/A -   "
1.28, 53.902, 0.00226861, NaN, NaN, NaN, 0.0323506, "- N/A -   "
1.29, 54.2558, 0.00228527, NaN, NaN, NaN, 0.0323506, "- N/A -   "
1.3, 54.4917, 0.00230193, NaN, NaN, NaN, 0.0335714, "- N/A -   "
1.31, 54.8456, 0.002315811, NaN, NaN, NaN, 0.0335714, "- N/A -   "
1.32, 54.9635, 0.00233247, NaN, NaN, NaN, 0.0335714, "- N/A -   "
1.33, 55.1994, 0.00234636, NaN, NaN, NaN, 0.0347922, "- N/A -   "
1.34, 55.43531, 0.002360239, NaN, NaN, NaN, 0.03601294, "- N/A -   "
1.35, 55.7892, 0.00237968, NaN, NaN, NaN, 0.0347922, "- N/A -   "
1.36, 55.9071, 0.00239634, NaN, NaN, NaN, 0.0347922, "- N/A -   "
1.37, 56.143, 0.002413, NaN, NaN, NaN, 0.03601294, "- N/A -   "
1.38, 56.4968, 0.00242966, NaN, NaN, NaN, 0.0347922, "- N/A -   "
1.39, 56.73273, 0.00244354, NaN, NaN, NaN, 0.03601294, "- N/A -   "
1.4, 56.9686, 0.0024602, NaN, NaN, NaN, 0.03601294, "- N/A -   "
1.41, 57.32247, 0.00247686, NaN, NaN, NaN, 0.03601294, "- N/A -   "
1.42, 57.44042, 0.00249075, NaN, NaN, NaN, 0.0372337, "- N/A -   "
1.43, 57.6763, 0.00250463, NaN, NaN, NaN, 0.0384545, "- N/A -   "
1.44, 58.0302, 0.00252407, NaN, NaN, NaN, 0.0372337, "- N/A -   "
1.45, 58.1481, 0.002540728, NaN, NaN, NaN, 0.0372337, "- N/A -   "
1.46, 58.384, 0.00255461, NaN, NaN, NaN, 0.0384545, "- N/A -   "
1.47, 58.6199, 0.0025685, NaN, NaN, NaN, 0.0396753, "- N/A -   "
1.48, 58.7378, 0.00258238, NaN, NaN, NaN, 0.04089605, "- N/A -   "
1.49, 59.0917, 0.00259904, NaN, NaN, NaN, 0.04089605, "- N/A -   "
1.5, 59.3276, 0.0026157, NaN, NaN, NaN, 0.04211683, "- N/A -   "
1.51, 59.5635, 0.00262958, NaN, NaN, NaN, 0.04211683, "- N/A -   "
1.52, 59.9173, 0.00264624, NaN, NaN, NaN, 0.04211683, "- N/A -   "
1.53, 60.0353, 0.002662905, NaN, NaN, NaN, 0.0433376, "- N/A -   "
1.54, 60.27116, 0.00267679, NaN, NaN, NaN, 0.0433376, "- N/A -   "
1.55, 60.5071, 0.00269345, NaN, NaN, NaN, 0.0445584, "- N/A -   "
1.56, 60.8609, 0.00271011, NaN, NaN, NaN, 0.0433376, "- N/A -   "
1.57, 61.09679, 0.00272677, NaN, NaN, NaN, 0.0433376, "- N/A -   "
1.58, 61.3327, 0.002743431, NaN, NaN, NaN, 0.0433376, "- N/A -   "
1.59, 61.56858, 0.00275731, NaN, NaN, NaN, 0.0445584, "- N/A -   "
1.6, 61.9224, 0.00277398, NaN, NaN, NaN, 0.0445584, "- N/A -   "
1.61, 62.0404, 0.00279341, NaN, NaN, NaN, 0.0445584, "- N/A -   "
1.62, 62.5122, 0.00281007, NaN, NaN, NaN, 0.0445584, "- N/A -   "
1.63, 62.7481, 0.00282396, NaN, NaN, NaN, 0.0445584, "- N/A -   "
1.64, 63.1019, 0.002843394, NaN, NaN, NaN, 0.0433376, "- N/A -   "
1.65, 63.33779, 0.00286561, NaN, NaN, NaN, 0.04211683, "- N/A -   "
1.66, 63.6916, 0.00288505, NaN, NaN, NaN, 0.04089605, "- N/A -   "
1.67, 64.16342, 0.00290448, NaN, NaN, NaN, 0.0384545, "- N/A -   "
1.68, 64.3993, 0.00292392, NaN, NaN, NaN, 0.0384545, "- N/A -   "
1.69, 64.75317, 0.00294058, NaN, NaN, NaN, 0.0372337, "- N/A -   "
1.7, 64.98906, 0.002957241, NaN, NaN, NaN, 0.0372337, "- N/A -   "
1.71, 65.22495, 0.00297668, NaN, NaN, NaN, 0.03601294, "- N/A -   "
1.72, 65.5788, 0.00299334, NaN, NaN, NaN, 0.03601294, "- N/A -   "
1.73, 65.93263, 0.00301555, NaN, NaN, NaN, 0.0347922, "- N/A -   "
1.74, 66.16853, 0.003032213, NaN, NaN, NaN, 0.0335714, "- N/A -   "
1.75, 66.52237, 0.00305165, NaN, NaN, NaN, 0.0335714, "- N/A -   "
1.76, 66.75827, 0.003068311, NaN, NaN, NaN, 0.0323506, "- N/A -   "
1.77, 67.1121, 0.00308497, NaN, NaN, NaN, 0.0323506, "- N/A -   "
1.78, 67.23006, 0.00310441, NaN, NaN, NaN, 0.0323506, "- N/A -   "
1.79, 67.46596, 0.003121069, NaN, NaN, NaN, 0.0323506, "- N/A -   "
1.8, 67.70185, 0.00313495, NaN, NaN, NaN, 0.0323506, "- N/A -   "
1.81, 68.05569, 0.00315161, NaN, NaN, NaN, 0.0323506, "- N/A -   "
1.82, 68.29159, 0.003165497, NaN, NaN, NaN, 0.0335714, "- N/A -   "
1.83, 68.52748, 0.00318216, NaN, NaN, NaN, 0.0335714, "- N/A -   "
1.84, 68.8813, 0.003201595, NaN, NaN, NaN, 0.0335714, "- N/A -   "
1.85, 68.9993, 0.00321826, NaN, NaN, NaN, 0.0335714, "- N/A -   "
1.86, 69.35311, 0.00323214, NaN, NaN, NaN, 0.0335714, "- N/A -   "
1.87, 69.589, 0.003246023, NaN, NaN, NaN, 0.0347922, "- N/A -   "
1.88, 69.94285, 0.00325991, NaN, NaN, NaN, 0.03601294, "- N/A -   "
1.89, 70.0608, 0.00327657, NaN, NaN, NaN, 0.03601294, "- N/A -   "
1.9, 70.41464, 0.00329045, NaN, NaN, NaN, 0.0372337, "- N/A -   "
1.91, 70.5326, 0.00330711, NaN, NaN, NaN, 0.0372337, "- N/A -   "
1.92, 70.88643, 0.003323772, NaN, NaN, NaN, 0.0372337, "- N/A -   "
1.93, 71.12233, 0.00334043, NaN, NaN, NaN, 0.0384545, "- N/A -   "
1.94, 71.3582, 0.003357093, NaN, NaN, NaN, 0.0384545, "- N/A -   "
1.95, 71.71206, 0.00337098, NaN, NaN, NaN, 0.0384545, "- N/A -   "
1.96, 71.94796, 0.00338764, NaN, NaN, NaN, 0.0384545, "- N/A -   "
1.97, 72.3018, 0.00340707, NaN, NaN, NaN, 0.0372337, "- N/A -   "
1.98, 72.65564, 0.00342651, NaN, NaN, NaN, 0.0372337, "- N/A -   "
1.99, 73.00948, 0.00344595, NaN, NaN, NaN, 0.03601294, "- N/A -   "
2, 73.2454, 0.00346261, NaN, NaN, NaN, 0.0347922, "- N/A -   "
2.01, 73.59922, 0.00348205, NaN, NaN, NaN, 0.0347922, "- N/A -   "
2.02, 73.9531, 0.00349871, NaN, NaN, NaN, 0.0335714, "- N/A -   "
2.03, 74.3069, 0.00351537, NaN, NaN, NaN, 0.0335714, "- N/A -   "
2.04, 74.5428, 0.00353481, NaN, NaN, NaN, 0.0335714, "- N/A -   "
2.05, 74.8966, 0.00355147, NaN, NaN, NaN, 0.0323506, "- N/A -   "
2.06, 75.13254, 0.00356813, NaN, NaN, NaN, 0.0323506, "- N/A -   "
2.07, 75.48638, 0.00358479, NaN, NaN, NaN, 0.0323506, "- N/A -   "
2.08, 75.7223, 0.00360145, NaN, NaN, NaN, 0.0335714, "- N/A -   "
2.09, 76.07612, 0.003615331, NaN, NaN, NaN, 0.0335714, "- N/A -   "
2.1, 76.31202, 0.00363199, NaN, NaN, NaN, 0.0335714, "- N/A -   "
2.11, 76.5479, 0.00364588, NaN, NaN, NaN, 0.0347922, "- N/A -   "
2.12, 76.90175, 0.00366254, NaN, NaN, NaN, 0.03601294, "- N/A -   "
2.13, 77.13765, 0.00367642, NaN, NaN, NaN, 0.0372337, "- N/A -   "
2.14, 77.25559, 0.0036903, NaN, NaN, NaN, 0.0372337, "- N/A -   "
2.15, 77.6094, 0.003704187, NaN, NaN, NaN, 0.0384545, "- N/A -   "
2.16, 77.84533, 0.003718071, NaN, NaN, NaN, 0.0396753, "- N/A -   "
2.17, 78.08122, 0.00373195, NaN, NaN, NaN, 0.04089605, "- N/A -   "
2.18, 78.31712, 0.003748615, NaN, NaN, NaN, 0.04089605, "- N/A -   "
2.19, 78.67096, 0.00376528, NaN, NaN, NaN, 0.04089605, "- N/A -   "
2.2, 79.0248, 0.003781936, NaN, NaN, NaN, 0.04089605, "- N/A -   "
2.21, 79.37865, 0.0037986, NaN, NaN, NaN, 0.04089605, "- N/A -   "
2.22, 79.73249, 0.003818034, NaN, NaN, NaN, 0.04089605, "- N/A -   "
2.23, 79.96838, 0.00383469, NaN, NaN, NaN, 0.04089605, "- N/A -   "
2.24, 80.44018, 0.00385135, NaN, NaN, NaN, 0.0396753, "- N/A -   "
2.25, 80.67606, 0.00386802, NaN, NaN, NaN, 0.0396753, "- N/A -   "
2.26, 81.0299, 0.00388745, NaN, NaN, NaN, 0.0396753, "- N/A -   "
2.27, 81.38376, 0.003904113, NaN, NaN, NaN, 0.0384545, "- N/A -   "
2.28, 81.7376, 0.00392077, NaN, NaN, NaN, 0.0396753, "- N/A -   "
2.29, 81.8555, 0.00393466, NaN, NaN, NaN, 0.0396753, "- N/A -   "
2.3, 82.20939, 0.003951318, NaN, NaN, NaN, 0.04089605, "- N/A -   "
2.31, 82.44528, 0.003965202, NaN, NaN, NaN, 0.04211683, "- N/A -   "
2.32, 82.91707, 0.00397909, NaN, NaN, NaN, 0.04211683, "- N/A -   "
2.33, 83.15297, 0.003995746, NaN, NaN, NaN, 0.04211683, "- N/A -   "
2.34, 83.50681, 0.004015183, NaN, NaN, NaN, 0.04211683, "- N/A -   "
2.35, 83.74271, 0.00403184, NaN, NaN, NaN, 0.04089605, "- N/A -   "
2.36, 84.09654, 0.004051281, NaN, NaN, NaN, 0.0396753, "- N/A -   "
2.37, 84.45039, 0.00406794, NaN, NaN, NaN, 0.0396753, "- N/A -   "
2.38, 84.80424, 0.004084602, NaN, NaN, NaN, 0.0396753, "- N/A -   "
2.39, 85.15807, 0.004104039, NaN, NaN, NaN, 0.0384545, "- N/A -   "
2.4, 85.51192, 0.0041207, NaN, NaN, NaN, 0.0384545, "- N/A -   "
2.41, 85.86576, 0.004140137, NaN, NaN, NaN, 0.0384545, "- N/A -   "
2.42, 86.2196, 0.0041568, NaN, NaN, NaN, 0.0372337, "- N/A -   "
2.43, 86.57345, 0.004176235, NaN, NaN, NaN, 0.0372337, "- N/A -   "
2.44, 86.80934, 0.00419012, NaN, NaN, NaN, 0.0372337, "- N/A -   "
2.45, 87.16318, 0.004206779, NaN, NaN, NaN, 0.0372337, "- N/A -   "
2.46, 87.51702, 0.00422344, NaN, NaN, NaN, 0.0372337, "- N/A -   "
2.47, 87.8709, 0.00424288, NaN, NaN, NaN, 0.0372337, "- N/A -   "
2.48, 88.10676, 0.00425954, NaN, NaN, NaN, 0.03601294, "- N/A -   "
2.49, 88.57855, 0.004276198, NaN, NaN, NaN, 0.03601294, "- N/A -   "
2.5, 88.8144, 0.004295635, NaN, NaN, NaN, 0.0347922, "- N/A -   "
2.51, 89.28623, 0.004315072, NaN, NaN, NaN, 0.0335714, "- N/A -   "
2.52, 89.6401, 0.00433451, NaN, NaN, NaN, 0.0335714, "- N/A -   "
2.53, 89.99392, 0.00435117, NaN, NaN, NaN, 0.0323506, "- N/A -   "
2.54, 90.34776, 0.00437061, NaN, NaN, NaN, 0.0323506, "- N/A -   "
2.55, 90.70161, 0.004387268, NaN, NaN, NaN, 0.03112983, "- N/A -   "
2.56, 91.1734, 0.00440671, NaN, NaN, NaN, 0.03112983, "- N/A -   "
2.57, 91.52724, 0.00442059, NaN, NaN, NaN, 0.03112983, "- N/A -   "
2.58, 91.76313, 0.00444003, NaN, NaN, NaN, 0.0299091, "- N/A -   "
2.59, 92.117, 0.004456687, NaN, NaN, NaN, 0.03112983, "- N/A -   "
2.6, 92.47082, 0.00447057, NaN, NaN, NaN, 0.03112983, "- N/A -   "
2.61, 92.82466, 0.004487231, NaN, NaN, NaN, 0.03112983, "- N/A -   "
2.62, 93.0606, 0.00450389, NaN, NaN, NaN, 0.0323506, "- N/A -   "
2.63, 93.41439, 0.00451778, NaN, NaN, NaN, 0.0323506, "- N/A -   "
2.64, 93.65029, 0.004534436, NaN, NaN, NaN, 0.0335714, "- N/A -   "
2.65, 93.8862, 0.00454832, NaN, NaN, NaN, 0.0335714, "- N/A -   "
2.66, 94.35797, 0.00456498, NaN, NaN, NaN, 0.0335714, "- N/A -   "
2.67, 94.7118, 0.004584417, NaN, NaN, NaN, 0.0323506, "- N/A -   "
2.68, 95.06567, 0.004601078, NaN, NaN, NaN, 0.0323506, "- N/A -   "
2.69, 95.30156, 0.00461774, NaN, NaN, NaN, 0.0335714, "- N/A -   "
2.7, 95.6554, 0.004631622, NaN, NaN, NaN, 0.0335714, "- N/A -   "
2.71, 96.00924, 0.00465106, NaN, NaN, NaN, 0.0335714, "- N/A -   "
2.72, 96.481, 0.00466772, NaN, NaN, NaN, 0.0323506, "- N/A -   "
2.73, 96.83487, 0.004687157, NaN, NaN, NaN, 0.0323506, "- N/A -   "
2.74, 97.07077, 0.00470382, NaN, NaN, NaN, 0.03112983, "- N/A -   "
2.75, 97.4246, 0.0047177, NaN, NaN, NaN, 0.0323506, "- N/A -   "
2.76, 97.77845, 0.004734362, NaN, NaN, NaN, 0.0323506, "- N/A -   "
2.77, 98.13229, 0.00475102, NaN, NaN, NaN, 0.0323506, "- N/A -   "
2.78, 98.4861, 0.004767683, NaN, NaN, NaN, 0.0323506, "- N/A -   "
2.79, 98.83998, 0.00478434, NaN, NaN, NaN, 0.0323506, "- N/A -   "
2.8, 99.0759, 0.004798227, NaN, NaN, NaN, 0.0335714, "- N/A -   "
2.81, 99.42972, 0.00481489, NaN, NaN, NaN, 0.0335714, "- N/A -   "
2.82, 99.7836, 0.004828771, NaN, NaN, NaN, 0.0347922, "- N/A -   "
2.83, 100.019, 0.00484266, NaN, NaN, NaN, 0.03601294, "- N/A -   "
2.84, 100.255, 0.004856539, NaN, NaN, NaN, 0.0372337, "- N/A -   "
2.85, 100.6092, 0.004870423, NaN, NaN, NaN, 0.0384545, "- N/A -   "
2.86, 100.845, 0.004887083, NaN, NaN, NaN, 0.0384545, "- N/A -   "
2.87, 101.317, 0.00490374, NaN, NaN, NaN, 0.0384545, "- N/A -   "
2.88, 101.671, 0.004920405, NaN, NaN, NaN, 0.0396753, "- N/A -   "
2.89, 101.907, 0.004937065, NaN, NaN, NaN, 0.0384545, "- N/A -   "
2.9, 102.26, 0.00495373, NaN, NaN, NaN, 0.0396753, "- N/A -   "
2.91, 102.6143, 0.004970385, NaN, NaN, NaN, 0.0396753, "- N/A -   "
2.92, 102.968, 0.00498427, NaN, NaN, NaN, 0.0396753, "- N/A -   "
2.93, 103.204, 0.00500093, NaN, NaN, NaN, 0.04089605, "- N/A -   "
2.94, 103.676, 0.005017591, NaN, NaN, NaN, 0.04089605, "- N/A -   "
2.95, 103.912, 0.005031475, NaN, NaN, NaN, 0.04089605, "- N/A -   "
2.96, 104.266, 0.00504814, NaN, NaN, NaN, 0.04089605, "- N/A -   "
2.97, 104.501, 0.005062019, NaN, NaN, NaN, 0.04211683, "- N/A -   "
2.98, 104.973, 0.00507868, NaN, NaN, NaN, 0.0433376, "- N/A -   "
2.99, 105.209, 0.005092563, NaN, NaN, NaN, 0.0433376, "- N/A -   "
3, 105.445, 0.005106447, NaN, NaN, NaN, 0.0445584, "- N/A -   "
3.01, 105.917, 0.005123107, NaN, NaN, NaN, 0.0445584, "- N/A -   "
3.02, 106.271, 0.005142545, NaN, NaN, NaN, 0.0433376, "- N/A -   "
3.03, 106.625, 0.00515921, NaN, NaN, NaN, 0.0433376, "- N/A -   "
3.04, 107.0963, 0.00517587, NaN, NaN, NaN, 0.0433376, "- N/A -   "
3.05, 107.3322, 0.00519253, NaN, NaN, NaN, 0.0445584, "- N/A -   "
3.06, 107.804, 0.005209187, NaN, NaN, NaN, 0.0445584, "- N/A -   "
3.07, 108.158, 0.005225847, NaN, NaN, NaN, 0.0433376, "- N/A -   "
3.08, 108.512, 0.00524528, NaN, NaN, NaN, 0.0433376, "- N/A -   "
3.09, 108.866, 0.005261945, NaN, NaN, NaN, 0.04211683, "- N/A -   "
3.1, 109.219, 0.005281382, NaN, NaN, NaN, 0.04211683, "- N/A -   "
3.11, 109.691, 0.005298043, NaN, NaN, NaN, 0.04089605, "- N/A -   "
3.12, 110.163, 0.00531748, NaN, NaN, NaN, 0.0396753, "- N/A -   "
3.13, 110.635, 0.00533692, NaN, NaN, NaN, 0.0384545, "- N/A -   "
3.14, 111.107, 0.00535913, NaN, NaN, NaN, 0.0372337, "- N/A -   "
3.15, 111.578, 0.00537857, NaN, NaN, NaN, 0.03601294, "- N/A -   "
3.16, 111.932, 0.00539801, NaN, NaN, NaN, 0.0347922, "- N/A -   "
3.17, 112.286, 0.00541467, NaN, NaN, NaN, 0.0335714, "- N/A -   "
3.18, 112.64, 0.005431327, NaN, NaN, NaN, 0.0347922, "- N/A -   "
3.19, 112.994, 0.00544521, NaN, NaN, NaN, 0.0347922, "- N/A -   "
3.2, 113.348, 0.005461871, NaN, NaN, NaN, 0.0347922, "- N/A -   "
3.21, 113.701, 0.00547853, NaN, NaN, NaN, 0.0347922, "- N/A -   "
3.22, 114.173, 0.00549519, NaN, NaN, NaN, 0.0347922, "- N/A -   "
3.23, 114.527, 0.005514629, NaN, NaN, NaN, 0.0335714, "- N/A -   "
3.24, 114.881, 0.00553129, NaN, NaN, NaN, 0.0335714, "- N/A -   "
3.25, 115.235, 0.00554795, NaN, NaN, NaN, 0.0335714, "- N/A -   "
3.26, 115.589, 0.00556183, NaN, NaN, NaN, 0.0347922, "- N/A -   "
3.27, 115.706, 0.00557572, NaN, NaN, NaN, 0.03601294, "- N/A -   "
3.28, 116.06, 0.00559516, NaN, NaN, NaN, 0.03601294, "- N/A -   "
3.29, 116.414, 0.005609039, NaN, NaN, NaN, 0.03601294, "- N/A -   "
3.3, 116.886, 0.0056257, NaN, NaN, NaN, 0.03601294, "- N/A -   "
3.31, 117.24, 0.00564236, NaN, NaN, NaN, 0.03601294, "- N/A -   "
3.32, 117.594, 0.00565902, NaN, NaN, NaN, 0.03601294, "- N/A -   "
3.33, 117.947, 0.00567846, NaN, NaN, NaN, 0.03601294, "- N/A -   "
3.34, 118.419, 0.00569512, NaN, NaN, NaN, 0.0347922, "- N/A -   "
3.35, 119.009, 0.00571456, NaN, NaN, NaN, 0.0335714, "- N/A -   "
3.36, 119.245, 0.005733992, NaN, NaN, NaN, 0.0323506, "- N/A -   "
3.37, 119.835, 0.00575343, NaN, NaN, NaN, 0.03112983, "- N/A -   "
3.38, 120.188, 0.00577287, NaN, NaN, NaN, 0.03112983, "- N/A -   "
3.39, 120.66, 0.005792304, NaN, NaN, NaN, 0.0299091, "- N/A -   "
3.4, 121.014, 0.00581174, NaN, NaN, NaN, 0.0286883, "- N/A -   "
3.41, 121.368, 0.00582563, NaN, NaN, NaN, 0.0286883, "- N/A -   "
3.42, 121.722, 0.00584229, NaN, NaN, NaN, 0.0286883, "- N/A -   "
3.43, 122.076, 0.005858946, NaN, NaN, NaN, 0.0299091, "- N/A -   "
3.44, 122.429, 0.00587283, NaN, NaN, NaN, 0.0299091, "- N/A -   "
3.45, 122.783, 0.005886714, NaN, NaN, NaN, 0.03112983, "- N/A -   "
3.46, 123.019, 0.005903374, NaN, NaN, NaN, 0.0323506, "- N/A -   "
3.47, 123.373, 0.005917258, NaN, NaN, NaN, 0.0323506, "- N/A -   "
3.48, 123.609, 0.005933918, NaN, NaN, NaN, 0.0335714, "- N/A -   "
3.49, 124.081, 0.005947802, NaN, NaN, NaN, 0.0335714, "- N/A -   "
3.5, 124.317, 0.005961686, NaN, NaN, NaN, 0.0347922, "- N/A -   "
3.51, 124.553, 0.005972794, NaN, NaN, NaN, 0.0372337, "- N/A -   "
3.52, 124.906, 0.00598945, NaN, NaN, NaN, 0.0384545, "- N/A -   "
3.53, 125.142, 0.00600056, NaN, NaN, NaN, 0.0396753, "- N/A -   "
3.54, 125.496, 0.006014444, NaN, NaN, NaN, 0.04089605, "- N/A -   "
3.55, 125.732, 0.00603111, NaN, NaN, NaN, 0.04211683, "- N/A -   "
3.56, 126.204, 0.006044988, NaN, NaN, NaN, 0.04211683, "- N/A -   "
3.57, 126.44, 0.006058872, NaN, NaN, NaN, 0.0433376, "- N/A -   "
3.58, 126.911, 0.00607553, NaN, NaN, NaN, 0.0445584, "- N/A -   "
3.59, 127.147, 0.00608942, NaN, NaN, NaN, 0.0445584, "- N/A -   "
3.6, 127.501, 0.0061033, NaN, NaN, NaN, 0.04577916, "- N/A -   "
3.61, 127.855, 0.00611996, NaN, NaN, NaN, 0.04577916, "- N/A -   "
3.62, 128.209, 0.006133844, NaN, NaN, NaN, 0.0482207, "- N/A -   "
3.63, 128.4448, 0.00615051, NaN, NaN, NaN, 0.0494415, "- N/A -   "
3.64, 128.799, 0.00616439, NaN, NaN, NaN, 0.0494415, "- N/A -   "
3.65, 129.152, 0.00618105, NaN, NaN, NaN, 0.0494415, "- N/A -   "
3.66, 129.506, 0.00619771, NaN, NaN, NaN, 0.0494415, "- N/A -   "
3.67, 129.86, 0.00621437, NaN, NaN, NaN, 0.0494415, "- N/A -   "
3.68, 130.332, 0.006233808, NaN, NaN, NaN, 0.0494415, "- N/A -   "
3.69, 130.804, 0.00625325, NaN, NaN, NaN, 0.04699994, "- N/A -   "
3.7, 131.1576, 0.006272682, NaN, NaN, NaN, 0.04699994, "- N/A -   "
3.71, 131.747, 0.00629212, NaN, NaN, NaN, 0.0445584, "- N/A -   "
3.72, 132.219, 0.00630878, NaN, NaN, NaN, 0.0445584, "- N/A -   "
3.73, 132.573, 0.00632822, NaN, NaN, NaN, 0.0433376, "- N/A -   "
3.74, 133.045, 0.00635043, NaN, NaN, NaN, 0.04211683, "- N/A -   "
3.75, 133.634, 0.006372646, NaN, NaN, NaN, 0.0396753, "- N/A -   "
3.76, 134.106, 0.006392082, NaN, NaN, NaN, 0.0372337, "- N/A -   "
3.77, 134.46, 0.00641152, NaN, NaN, NaN, 0.0372337, "- N/A -   "
3.78, 134.932, 0.00642818, NaN, NaN, NaN, 0.03601294, "- N/A -   "
3.79, 135.1678, 0.006447618, NaN, NaN, NaN, 0.0347922, "- N/A -   "
3.8, 135.758, 0.00646428, NaN, NaN, NaN, 0.0347922, "- N/A -   "
3.81, 136.111, 0.006483716, NaN, NaN, NaN, 0.0335714, "- N/A -   "
3.82, 136.465, 0.006500376, NaN, NaN, NaN, 0.0335714, "- N/A -   "
3.83, 136.937, 0.00651704, NaN, NaN, NaN, 0.0335714, "- N/A -   "
3.84, 137.173, 0.006533697, NaN, NaN, NaN, 0.0335714, "- N/A -   "
3.85, 137.527, 0.00655313, NaN, NaN, NaN, 0.0335714, "- N/A -   "
3.86, 137.999, 0.00656979, NaN, NaN, NaN, 0.0335714, "- N/A -   "
3.87, 138.352, 0.00658646, NaN, NaN, NaN, 0.0323506, "- N/A -   "
3.88, 138.706, 0.006603116, NaN, NaN, NaN, 0.0323506, "- N/A -   "
3.89, 139.178, 0.006619776, NaN, NaN, NaN, 0.0323506, "- N/A -   "
3.9, 139.532, 0.006639214, NaN, NaN, NaN, 0.03112983, "- N/A -   "
3.91, 140.004, 0.00665865, NaN, NaN, NaN, 0.0299091, "- N/A -   "
3.92, 140.357, 0.006675312, NaN, NaN, NaN, 0.0299091, "- N/A -   "
3.93, 140.829, 0.00669475, NaN, NaN, NaN, 0.0286883, "- N/A -   "
3.94, 141.183, 0.00671141, NaN, NaN, NaN, 0.0286883, "- N/A -   "
3.95, 141.6549, 0.00673085, NaN, NaN, NaN, 0.0274675, "- N/A -   "
3.96, 141.891, 0.00674751, NaN, NaN, NaN, 0.0286883, "- N/A -   "
3.97, 142.3626, 0.006764168, NaN, NaN, NaN, 0.0286883, "- N/A -   "
3.98, 142.5985, 0.006778052, NaN, NaN, NaN, 0.0286883, "- N/A -   "
3.99, 143.07, 0.006794712, NaN, NaN, NaN, 0.0286883, "- N/A -   "
4, 143.306, 0.006808596, NaN, NaN, NaN, 0.0299091, "- N/A -   "
4.01, 143.66, 0.006825256, NaN, NaN, NaN, 0.0299091, "- N/A -   "
4.02, 144.014, 0.00683914, NaN, NaN, NaN, 0.03112983, "- N/A -   "
4.03, 144.368, 0.0068558, NaN, NaN, NaN, 0.03112983, "- N/A -   "
4.04, 144.722, 0.00687246, NaN, NaN, NaN, 0.03112983, "- N/A -   "
4.05, 145.0754, 0.006889122, NaN, NaN, NaN, 0.03112983, "- N/A -   "
4.06, 145.547, 0.00690856, NaN, NaN, NaN, 0.03112983, "- N/A -   "
4.07, 146.019, 0.00692522, NaN, NaN, NaN, 0.03112983, "- N/A -   "
4.08, 146.255, 0.0069391, NaN, NaN, NaN, 0.03112983, "- N/A -   "
4.09, 146.6087, 0.006955764, NaN, NaN, NaN, 0.0323506, "- N/A -   "
4.1, 146.963, 0.00696965, NaN, NaN, NaN, 0.0323506, "- N/A -   "
4.11, 147.198, 0.006986308, NaN, NaN, NaN, 0.0335714, "- N/A -   "
4.12, 147.552, 0.007000192, NaN, NaN, NaN, 0.0335714, "- N/A -   "
4.13, 147.906, 0.007014075, NaN, NaN, NaN, 0.0347922, "- N/A -   "
4.14, 148.26, 0.00702796, NaN, NaN, NaN, 0.03601294, "- N/A -   "
4.15, 148.6138, 0.00704462, NaN, NaN, NaN, 0.0372337, "- N/A -   "
4.16, 148.8497, 0.00705573, NaN, NaN, NaN, 0.0384545, "- N/A -   "
4.17, 149.204, 0.00706961, NaN, NaN, NaN, 0.0396753, "- N/A -   "
4.18, 149.3215, 0.007083494, NaN, NaN, NaN, 0.04089605, "- N/A -   "
4.19, 149.675, 0.00710015, NaN, NaN, NaN, 0.04211683, "- N/A -   "
4.2, 150.029, 0.007111262, NaN, NaN, NaN, 0.0433376, "- N/A -   "
4.21, 150.383, 0.00712792, NaN, NaN, NaN, 0.0433376, "- N/A -   "
4.22, 150.619, 0.007141806, NaN, NaN, NaN, 0.0445584, "- N/A -   "
4.23, 151.091, 0.00715569, NaN, NaN, NaN, 0.04577916, "- N/A -   "
4.24, 151.445, 0.00717235, NaN, NaN, NaN, 0.04577916, "- N/A -   "
4.25, 151.68, 0.00718901, NaN, NaN, NaN, 0.04699994, "- N/A -   "
4.26, 152.152, 0.00720567, NaN, NaN, NaN, 0.04699994, "- N/A -   "
4.27, 152.506, 0.007222332, NaN, NaN, NaN, 0.04699994, "- N/A -   "
4.28, 152.978, 0.00723899, NaN, NaN, NaN, 0.04577916, "- N/A -   "
4.29, 153.332, 0.007252876, NaN, NaN, NaN, 0.04699994, "- N/A -   "
4.3, 153.686, 0.007272313, NaN, NaN, NaN, 0.04577916, "- N/A -   "
4.31, 154.157, 0.00728897, NaN, NaN, NaN, 0.04577916, "- N/A -   "
4.32, 154.393, 0.00730563, NaN, NaN, NaN, 0.04577916, "- N/A -   "
4.33, 154.983, 0.00732229, NaN, NaN, NaN, 0.04577916, "- N/A -   "
4.34, 155.219, 0.007338955, NaN, NaN, NaN, 0.04577916, "- N/A -   "
4.35, 155.573, 0.00735839, NaN, NaN, NaN, 0.04577916, "- N/A -   "
4.36, 156.0445, 0.00737228, NaN, NaN, NaN, 0.04577916, "- N/A -   "
4.37, 156.398, 0.007388937, NaN, NaN, NaN, 0.04577916, "- N/A -   "
4.38, 156.752, 0.007405597, NaN, NaN, NaN, 0.04577916, "- N/A -   "
4.39, 157.224, 0.00742503, NaN, NaN, NaN, 0.04577916, "- N/A -   "
4.4, 157.578, 0.007441695, NaN, NaN, NaN, 0.0445584, "- N/A -   "
4.41, 158.0496, 0.00746113, NaN, NaN, NaN, 0.0445584, "- N/A -   "
4.42, 158.403, 0.007477793, NaN, NaN, NaN, 0.0433376, "- N/A -   "
4.43, 158.875, 0.00749723, NaN, NaN, NaN, 0.0433376, "- N/A -   "
4.44, 159.229, 0.007516667, NaN, NaN, NaN, 0.04211683, "- N/A -   "
4.45, 159.701, 0.007536105, NaN, NaN, NaN, 0.0396753, "- N/A -   "
4.46, 160.055, 0.00755554, NaN, NaN, NaN, 0.0396753, "- N/A -   "
4.47, 160.5265, 0.00757498, NaN, NaN, NaN, 0.0384545, "- N/A -   "
4.48, 160.998, 0.007591639, NaN, NaN, NaN, 0.0372337, "- N/A -   "
4.49, 161.4701, 0.007611077, NaN, NaN, NaN, 0.03601294, "- N/A -   "
4.5, 161.824, 0.00763051, NaN, NaN, NaN, 0.0347922, "- N/A -   "
4.51, 162.414, 0.007649951, NaN, NaN, NaN, 0.0335714, "- N/A -   "
4.52, 162.768, 0.007669389, NaN, NaN, NaN, 0.0323506, "- N/A -   "
4.53, 163.2393, 0.00768883, NaN, NaN, NaN, 0.03112983, "- N/A -   "
4.54, 163.593, 0.007708263, NaN, NaN, NaN, 0.0299091, "- N/A -   "
4.55, 164.065, 0.0077277, NaN, NaN, NaN, 0.0299091, "- N/A -   "
4.56, 164.301, 0.00774158, NaN, NaN, NaN, 0.0299091, "- N/A -   "
4.57, 164.773, 0.007758245, NaN, NaN, NaN, 0.0299091, "- N/A -   "
4.58, 165.009, 0.00777213, NaN, NaN, NaN, 0.03112983, "- N/A -   "
4.59, 165.362, 0.00779157, NaN, NaN, NaN, 0.0299091, "- N/A -   "
4.6, 165.598, 0.00780545, NaN, NaN, NaN, 0.03112983, "- N/A -   "
4.61, 166.07, 0.007824887, NaN, NaN, NaN, 0.03112983, "- N/A -   "
4.62, 166.424, 0.007838771, NaN, NaN, NaN, 0.03112983, "- N/A -   "
4.63, 166.66, 0.007855431, NaN, NaN, NaN, 0.0323506, "- N/A -   "
4.64, 167.25, 0.007869315, NaN, NaN, NaN, 0.0323506, "- N/A -   "
4.65, 167.485, 0.007885975, NaN, NaN, NaN, 0.0323506, "- N/A -   "
4.66, 167.9572, 0.007902635, NaN, NaN, NaN, 0.0323506, "- N/A -   "
4.67, 168.193, 0.007919297, NaN, NaN, NaN, 0.0335714, "- N/A -   "
4.68, 168.547, 0.007933181, NaN, NaN, NaN, 0.0335714, "- N/A -   "
4.69, 168.901, 0.007947063, NaN, NaN, NaN, 0.0347922, "- N/A -   "
4.7, 169.019, 0.007963724, NaN, NaN, NaN, 0.03601294, "- N/A -   "
4.71, 169.491, 0.007977609, NaN, NaN, NaN, 0.03601294, "- N/A -   "
4.72, 169.962, 0.007994269, NaN, NaN, NaN, 0.0372337, "- N/A -   "
4.73, 170.316, 0.008008153, NaN, NaN, NaN, 0.0372337, "- N/A -   "
4.74, 170.67, 0.008027589, NaN, NaN, NaN, 0.03601294, "- N/A -   "
4.75, 171.024, 0.00804425, NaN, NaN, NaN, 0.03601294, "- N/A -   "
4.76, 171.496, 0.008060911, NaN, NaN, NaN, 0.03601294, "- N/A -   "
4.77, 171.849, 0.008077571, NaN, NaN, NaN, 0.03601294, "- N/A -   "
4.78, 172.203, 0.008094232, NaN, NaN, NaN, 0.03601294, "- N/A -   "
4.79, 172.557, 0.008110893, NaN, NaN, NaN, 0.03601294, "- N/A -   "
4.8, 172.911, 0.008127553, NaN, NaN, NaN, 0.03601294, "- N/A -   "
4.81, 173.265, 0.008144213, NaN, NaN, NaN, 0.03601294, "- N/A -   "
4.82, 173.619, 0.008160873, NaN, NaN, NaN, 0.03601294, "- N/A -   "
4.83, 173.855, 0.008177535, NaN, NaN, NaN, 0.03601294, "- N/A -   "
4.84, 174.326, 0.008194195, NaN, NaN, NaN, 0.03601294, "- N/A -   "
4.85, 174.798, 0.008210856, NaN, NaN, NaN, 0.03601294, "- N/A -   "
4.86, 175.152, 0.008227515, NaN, NaN, NaN, 0.03601294, "- N/A -   "
4.87, 175.506, 0.008241399, NaN, NaN, NaN, 0.0372337, "- N/A -   "
4.88, 175.742, 0.00825806, NaN, NaN, NaN, 0.0372337, "- N/A -   "
4.89, 176.096, 0.008271944, NaN, NaN, NaN, 0.0396753, "- N/A -   "
4.9, 176.331, 0.008283051, NaN, NaN, NaN, 0.04089605, "- N/A -   "
4.91, 176.567, 0.008299711, NaN, NaN, NaN, 0.04211683, "- N/A -   "
4.92, 176.803, 0.008313595, NaN, NaN, NaN, 0.0433376, "- N/A -   "
4.93, 177.1571, 0.00832748, NaN, NaN, NaN, 0.0445584, "- N/A -   "
4.94, 177.393, 0.008344139, NaN, NaN, NaN, 0.0445584, "- N/A -   "
4.95, 177.983, 0.008360799, NaN, NaN, NaN, 0.0433376, "- N/A -   "
4.96, 178.219, 0.008374684, NaN, NaN, NaN, 0.0445584, "- N/A -   "
4.97, 178.69, 0.008394121, NaN, NaN, NaN, 0.0445584, "- N/A -   "
4.98, 179.044, 0.008408005, NaN, NaN, NaN, 0.0445584, "- N/A -   "
4.99, 179.3981, 0.008424665, NaN, NaN, NaN, 0.0445584, "- N/A -   "
5, 179.634, 0.008441325, NaN, NaN, NaN, 0.04577916, "- N/A -   "
5.01, 180.106, 0.008457986, NaN, NaN, NaN, 0.04577916, "- N/A -   "
5.02, 180.342, 0.00847187, NaN, NaN, NaN, 0.04577916, "- N/A -   "
5.03, 180.696, 0.00849131, NaN, NaN, NaN, 0.04577916, "- N/A -   "
5.04, 181.049, 0.008507968, NaN, NaN, NaN, 0.0445584, "- N/A -   "
5.05, 181.403, 0.008524627, NaN, NaN, NaN, 0.0445584, "- N/A -   "
5.06, 181.875, 0.008544065, NaN, NaN, NaN, 0.0433376, "- N/A -   "
5.07, 182.229, 0.008563503, NaN, NaN, NaN, 0.04211683, "- N/A -   "
5.08, 182.819, 0.00858572, NaN, NaN, NaN, 0.04089605, "- N/A -   "
5.09, 183.29, 0.008605153, NaN, NaN, NaN, 0.0384545, "- N/A -   "
5.1, 183.644, 0.008624592, NaN, NaN, NaN, 0.0372337, "- N/A -   "
5.11, 184.116, 0.00864403, NaN, NaN, NaN, 0.03601294, "- N/A -   "
5.12, 184.47, 0.008663465, NaN, NaN, NaN, 0.03601294, "- N/A -   "
5.13, 184.942, 0.008682903, NaN, NaN, NaN, 0.0347922, "- N/A -   "
5.14, 185.178, 0.008699563, NaN, NaN, NaN, 0.0335714, "- N/A -   "
5.15, 185.767, 0.008721777, NaN, NaN, NaN, 0.03112983, "- N/A -   "
5.16, 186.121, 0.008738438, NaN, NaN, NaN, 0.03112983, "- N/A -   "
5.17, 186.475, 0.008757875, NaN, NaN, NaN, 0.0299091, "- N/A -   "
5.18, 186.947, 0.008774536, NaN, NaN, NaN, 0.0299091, "- N/A -   "
5.19, 187.301, 0.008793973, NaN, NaN, NaN, 0.0286883, "- N/A -   "
5.2, 187.654, 0.00881341, NaN, NaN, NaN, 0.0286883, "- N/A -   "
5.21, 187.89, 0.008830071, NaN, NaN, NaN, 0.0286883, "- N/A -   "
5.22, 188.3621, 0.008843956, NaN, NaN, NaN, 0.0286883, "- N/A -   "
5.23, 188.48, 0.008857838, NaN, NaN, NaN, 0.0299091, "- N/A -   "
5.24, 188.834, 0.008871722, NaN, NaN, NaN, 0.03112983, "- N/A -   "
5.25, 189.0698, 0.008885606, NaN, NaN, NaN, 0.0323506, "- N/A -   "
5.26, 189.424, 0.008902266, NaN, NaN, NaN, 0.0323506, "- N/A -   "
5.27, 189.66, 0.00891615, NaN, NaN, NaN, 0.0335714, "- N/A -   "
5.28, 190.013, 0.008930034, NaN, NaN, NaN, 0.0347922, "- N/A -   "
5.29, 190.249, 0.008946694, NaN, NaN, NaN, 0.0347922, "- N/A -   "
5.3, 190.603, 0.008963356, NaN, NaN, NaN, 0.0347922, "- N/A -   "
5.31, 191.075, 0.008980015, NaN, NaN, NaN, 0.0347922, "- N/A -   "
5.32, 191.311, 0.008996676, NaN, NaN, NaN, 0.0347922, "- N/A -   "
5.33, 191.665, 0.009013336, NaN, NaN, NaN, 0.0347922, "- N/A -   "
5.34, 192.018, 0.00903, NaN, NaN, NaN, 0.0347922, "- N/A -   "
5.35, 192.372, 0.009046658, NaN, NaN, NaN, 0.0347922, "- N/A -   "
5.36, 192.726, 0.009066096, NaN, NaN, NaN, 0.0335714, "- N/A -   "
5.37, 193.08, 0.009082756, NaN, NaN, NaN, 0.0335714, "- N/A -   "
5.38, 193.5518, 0.009102192, NaN, NaN, NaN, 0.0323506, "- N/A -   "
5.39, 193.7877, 0.009121629, NaN, NaN, NaN, 0.0323506, "- N/A -   "
5.4, 194.377, 0.00913829, NaN, NaN, NaN, 0.03112983, "- N/A -   "
5.41, 194.613, 0.009154951, NaN, NaN, NaN, 0.03112983, "- N/A -   "
5.42, 195.085, 0.009171612, NaN, NaN, NaN, 0.03112983, "- N/A -   "
5.43, 195.321, 0.009188272, NaN, NaN, NaN, 0.03112983, "- N/A -   "
5.44, 195.5569, 0.00920493, NaN, NaN, NaN, 0.03112983, "- N/A -   "
5.45, 196.0287, 0.009221594, NaN, NaN, NaN, 0.0323506, "- N/A -   "
5.46, 196.265, 0.009235476, NaN, NaN, NaN, 0.0323506, "- N/A -   "
5.47, 196.618, 0.00924936, NaN, NaN, NaN, 0.0335714, "- N/A -   "
5.48, 196.854, 0.009266022, NaN, NaN, NaN, 0.0335714, "- N/A -   "
5.49, 197.208, 0.009282682, NaN, NaN, NaN, 0.0347922, "- N/A -   "
5.5, 197.444, 0.009296565, NaN, NaN, NaN, 0.0347922, "- N/A -   "
5.51, 197.798, 0.009313226, NaN, NaN, NaN, 0.03601294, "- N/A -   "
5.52, 198.152, 0.00932711, NaN, NaN, NaN, 0.03601294, "- N/A -   "
5.53, 198.388, 0.009340994, NaN, NaN, NaN, 0.0372337, "- N/A -   "
5.54, 198.624, 0.009354877, NaN, NaN, NaN, 0.0384545, "- N/A -   "
5.55, 198.977, 0.009371538, NaN, NaN, NaN, 0.0384545, "- N/A -   "
5.56, 199.331, 0.009385422, NaN, NaN, NaN, 0.0396753, "- N/A -   "
5.57, 199.449, 0.009399306, NaN, NaN, NaN, 0.04089605, "- N/A -   "
5.58, 199.685, 0.009413188, NaN, NaN, NaN, 0.04211683, "- N/A -   "
5.59, 200.157, 0.00942985, NaN, NaN, NaN, 0.04211683, "- N/A -   "
5.6, 200.393, 0.009443734, NaN, NaN, NaN, 0.0433376, "- N/A -   "
5.61, 200.629, 0.009460394, NaN, NaN, NaN, 0.0445584, "- N/A -   "
5.62, 200.9825, 0.009477054, NaN, NaN, NaN, 0.0445584, "- N/A -   "
5.63, 201.336, 0.009493714, NaN, NaN, NaN, 0.0445584, "- N/A -   "
5.64, 201.808, 0.009510376, NaN, NaN, NaN, 0.0433376, "- N/A -   "
5.65, 202.162, 0.009527036, NaN, NaN, NaN, 0.0433376, "- N/A -   "
5.66, 202.516, 0.009546473, NaN, NaN, NaN, 0.04211683, "- N/A -   "
5.67, 202.7517, 0.009563134, NaN, NaN, NaN, 0.04211683, "- N/A -   "
5.68, 203.2235, 0.00957979, NaN, NaN, NaN, 0.04211683, "- N/A -   "
5.69, 203.459, 0.009596454, NaN, NaN, NaN, 0.04211683, "- N/A -   "
5.7, 203.813, 0.009613114, NaN, NaN, NaN, 0.04211683, "- N/A -   "
5.71, 204.167, 0.009629776, NaN, NaN, NaN, 0.04211683, "- N/A -   "
5.72, 204.403, 0.009646436, NaN, NaN, NaN, 0.04211683, "- N/A -   "
5.73, 204.875, 0.009665874, NaN, NaN, NaN, 0.04211683, "- N/A -   "
5.74, 205.111, 0.009682534, NaN, NaN, NaN, 0.04089605, "- N/A -   "
5.75, 205.582, 0.009699194, NaN, NaN, NaN, 0.04089605, "- N/A -   "
5.76, 205.936, 0.00971863, NaN, NaN, NaN, 0.0396753, "- N/A -   "
5.77, 206.408, 0.009735292, NaN, NaN, NaN, 0.0396753, "- N/A -   "
5.78, 206.762, 0.00975473, NaN, NaN, NaN, 0.0384545, "- N/A -   "
5.79, 207.116, 0.009774166, NaN, NaN, NaN, 0.0384545, "- N/A -   "
5.8, 207.4696, 0.009790827, NaN, NaN, NaN, 0.0372337, "- N/A -   "
5.81, 207.823, 0.009810264, NaN, NaN, NaN, 0.0372337, "- N/A -   "
5.82, 208.059, 0.009826925, NaN, NaN, NaN, 0.0372337, "- N/A -   "
5.83, 208.4132, 0.009843585, NaN, NaN, NaN, 0.0372337, "- N/A -   "
5.84, 208.767, 0.009857468, NaN, NaN, NaN, 0.0372337, "- N/A -   "
5.85, 209.121, 0.009874129, NaN, NaN, NaN, 0.0372337, "- N/A -   "
5.86, 209.475, 0.00989079, NaN, NaN, NaN, 0.0372337, "- N/A -   "
5.87, 209.711, 0.00990745, NaN, NaN, NaN, 0.0372337, "- N/A -   "
5.88, 210.182, 0.009924111, NaN, NaN, NaN, 0.0372337, "- N/A -   "
5.89, 210.418, 0.00994077, NaN, NaN, NaN, 0.0372337, "- N/A -   "
5.9, 210.772, 0.009957432, NaN, NaN, NaN, 0.0372337, "- N/A -   "
5.91, 211.126, 0.009974092, NaN, NaN, NaN, 0.0372337, "- N/A -   "
5.92, 211.362, 0.009990753, NaN, NaN, NaN, 0.0372337, "- N/A -   "
5.93, 211.834, 0.0100074, NaN, NaN, NaN, 0.0372337, "- N/A -   "
5.94, 211.9516, 0.0100269, NaN, NaN, NaN, 0.03601294, "- N/A -   "
5.95, 212.541, 0.0100435, NaN, NaN, NaN, 0.03601294, "- N/A -   "
[...]
30.66, 1242.56, 0.0512366, NaN, NaN, NaN, 0.0323506, "- N/A -   "
30.71, 1244.95, 0.0513227, NaN, NaN, NaN, 0.03112983, "- N/A -   "
30.76, 1246.97, 0.0513977, NaN, NaN, NaN, 0.0335714, "- N/A -   "
30.81, 1249, 0.0514754, NaN, NaN, NaN, 0.0372337, "- N/A -   "
30.86, 1250.91, 0.05154762, NaN, NaN, NaN, 0.0433376, "- N/A -   "
30.91, 1253.05, 0.05162537, NaN, NaN, NaN, 0.04577916, "- N/A -   "
30.96, 1255.32, 0.05170312, NaN, NaN, NaN, 0.04699994, "- N/A -   "
31.01, 1257.94, 0.0517975, NaN, NaN, NaN, 0.0433376, "- N/A -   "
31.06, 1260.567, 0.0518864, NaN, NaN, NaN, 0.0396753, "- N/A -   "
31.11, 1263.19, 0.0519836, NaN, NaN, NaN, 0.0347922, "- N/A -   "
31.16, 1265.695, 0.05206965, NaN, NaN, NaN, 0.0335714, "- N/A -   "
31.21, 1268.2, 0.0521585, NaN, NaN, NaN, 0.03112983, "- N/A -   "
31.26, 1270.7, 0.05224736, NaN, NaN, NaN, 0.0274675, "- N/A -   "
31.31, 1273.09, 0.05233622, NaN, NaN, NaN, 0.0262467, "- N/A -   "
31.36, 1275.24, 0.05241397, NaN, NaN, NaN, 0.0286883, "- N/A -   "
31.41, 1277.26, 0.0524889, NaN, NaN, NaN, 0.03112983, "- N/A -   "
31.46, 1279.17, 0.0525556, NaN, NaN, NaN, 0.0384545, "- N/A -   "
31.51, 1280.96, 0.0526222, NaN, NaN, NaN, 0.04577916, "- N/A -   "
31.56, 1282.99, 0.0526972, NaN, NaN, NaN, 0.0494415, "- N/A -   "
31.61, 1285.37, 0.0527833, NaN, NaN, NaN, 0.0494415, "- N/A -   "
31.66, 1287.88, 0.0528694, NaN, NaN, NaN, 0.04699994, "- N/A -   "
31.71, 1290.26, 0.05295821, NaN, NaN, NaN, 0.0445584, "- N/A -   "
31.76, 1293, 0.0530498, NaN, NaN, NaN, 0.04089605, "- N/A -   "
31.81, 1296.1, 0.0531609, NaN, NaN, NaN, 0.0299091, "- N/A -   "
31.86, 1298.37, 0.053247, NaN, NaN, NaN, 0.0274675, "- N/A -   "
31.91, 1300.52, 0.05332474, NaN, NaN, NaN, 0.0299091, "- N/A -   "
31.96, 1302.78, 0.05340249, NaN, NaN, NaN, 0.0323506, "- N/A -   "
32.01, 1304.93, 0.05348024, NaN, NaN, NaN, 0.0347922, "- N/A -   "
32.06, 1306.96, 0.0535524, NaN, NaN, NaN, 0.0396753, "- N/A -   "
32.11, 1309.46, 0.0536385, NaN, NaN, NaN, 0.0396753, "- N/A -   "
32.16, 1311.73, 0.0537218, NaN, NaN, NaN, 0.0384545, "- N/A -   "
32.21, 1313.87, 0.05379957, NaN, NaN, NaN, 0.04211683, "- N/A -   "
32.26, 1315.9, 0.0538745, NaN, NaN, NaN, 0.0445584, "- N/A -   "
32.31, 1318.17, 0.0539578, NaN, NaN, NaN, 0.0445584, "- N/A -   "
32.36, 1320.79, 0.0540495, NaN, NaN, NaN, 0.04211683, "- N/A -   "
32.41, 1323.65, 0.05414666, NaN, NaN, NaN, 0.0347922, "- N/A -   "
32.46, 1326.275, 0.0542411, NaN, NaN, NaN, 0.03112983, "- N/A -   "
32.51, 1328.54, 0.0543244, NaN, NaN, NaN, 0.0299091, "- N/A -   "
32.56, 1330.69, 0.0544021, NaN, NaN, NaN, 0.0335714, "- N/A -   "
32.61, 1332.953, 0.0544799, NaN, NaN, NaN, 0.0347922, "- N/A -   "
32.66, 1335.34, 0.0545632, NaN, NaN, NaN, 0.0347922, "- N/A -   "
32.71, 1337.96, 0.0546576, NaN, NaN, NaN, 0.03112983, "- N/A -   "
32.76, 1340.11, 0.0547353, NaN, NaN, NaN, 0.0323506, "- N/A -   "
32.81, 1342.14, 0.0548131, NaN, NaN, NaN, 0.03601294, "- N/A -   "
32.86, 1344.16, 0.05488528, NaN, NaN, NaN, 0.0396753, "- N/A -   "
32.91, 1346.31, 0.054963, NaN, NaN, NaN, 0.04211683, "- N/A -   "
32.96, 1348.69, 0.0550463, NaN, NaN, NaN, 0.04211683, "- N/A -   "
33.01, 1351.08, 0.0551324, NaN, NaN, NaN, 0.04211683, "- N/A -   "
33.06, 1353.58, 0.0552213, NaN, NaN, NaN, 0.0384545, "- N/A -   "
33.11, 1356.21, 0.0553101, NaN, NaN, NaN, 0.03601294, "- N/A -   "
33.16, 1358.47, 0.0553906, NaN, NaN, NaN, 0.0372337, "- N/A -   "
33.21, 1360.74, 0.0554739, NaN, NaN, NaN, 0.0372337, "- N/A -   "
33.26, 1363, 0.0555545, NaN, NaN, NaN, 0.0384545, "- N/A -   "
33.31, 1365.39, 0.0556406, NaN, NaN, NaN, 0.0372337, "- N/A -   "
33.36, 1367.89, 0.0557294, NaN, NaN, NaN, 0.03601294, "- N/A -   "
33.41, 1370.4, 0.0558155, NaN, NaN, NaN, 0.0335714, "- N/A -   "
33.46, 1372.43, 0.05589879, NaN, NaN, NaN, 0.0347922, "- N/A -   "
33.51, 1374.81, 0.0559821, NaN, NaN, NaN, 0.0335714, "- N/A -   "
33.56, 1376.84, 0.0560571, NaN, NaN, NaN, 0.0372337, "- N/A -   "
33.61, 1378.98, 0.0561348, NaN, NaN, NaN, 0.0396753, "- N/A -   "
33.66, 1381.25, 0.0562153, NaN, NaN, NaN, 0.04089605, "- N/A -   "
33.71, 1383.52, 0.0562959, NaN, NaN, NaN, 0.0433376, "- N/A -   "
33.76, 1385.9, 0.0563792, NaN, NaN, NaN, 0.04211683, "- N/A -   "
33.81, 1388.52, 0.05647358, NaN, NaN, NaN, 0.0384545, "- N/A -   "
33.86, 1391.27, 0.05656799, NaN, NaN, NaN, 0.0335714, "- N/A -   "
33.91, 1393.53, 0.05665129, NaN, NaN, NaN, 0.0335714, "- N/A -   "
33.96, 1395.8, 0.05673459, NaN, NaN, NaN, 0.0323506, "- N/A -   "
34.01, 1398.3, 0.0568234, NaN, NaN, NaN, 0.0299091, "- N/A -   "
34.06, 1400.93, 0.0569123, NaN, NaN, NaN, 0.0274675, "- N/A -   "
34.11, 1403.07, 0.0569928, NaN, NaN, NaN, 0.0286883, "- N/A -   "
34.16, 1405.22, 0.0570706, NaN, NaN, NaN, 0.0323506, "- N/A -   "
34.21, 1407.37, 0.0571483, NaN, NaN, NaN, 0.0347922, "- N/A -   "
34.26, 1409.155, 0.0572177, NaN, NaN, NaN, 0.0396753, "- N/A -   "
34.31, 1411.06, 0.0572844, NaN, NaN, NaN, 0.04699994, "- N/A -   "
34.36, 1413.33, 0.05736214, NaN, NaN, NaN, 0.05066227, "- N/A -   "
34.41, 1415.95, 0.05745655, NaN, NaN, NaN, 0.04577916, "- N/A -   "
34.46, 1418.7, 0.05755096, NaN, NaN, NaN, 0.0396753, "- N/A -   "
34.51, 1421.2, 0.0576454, NaN, NaN, NaN, 0.03601294, "- N/A -   "
34.56, 1423.58, 0.0577314, NaN, NaN, NaN, 0.0335714, "- N/A -   "
34.61, 1425.97, 0.05781753, NaN, NaN, NaN, 0.0335714, "- N/A -   "
34.66, 1428.35, 0.0579036, NaN, NaN, NaN, 0.03112983, "- N/A -   "
34.71, 1430.86, 0.0579897, NaN, NaN, NaN, 0.0299091, "- N/A -   "
34.76, 1433.244, 0.0580758, NaN, NaN, NaN, 0.0286883, "- N/A -   "
34.81, 1435.39, 0.0581535, NaN, NaN, NaN, 0.03112983, "- N/A -   "
34.86, 1437.18, 0.0582202, NaN, NaN, NaN, 0.0384545, "- N/A -   "
34.91, 1439.09, 0.05829235, NaN, NaN, NaN, 0.0433376, "- N/A -   "
34.96, 1441.11, 0.0583701, NaN, NaN, NaN, 0.04577916, "- N/A -   "
35.01, 1443.74, 0.058459, NaN, NaN, NaN, 0.0433376, "- N/A -   "
35.06, 1446, 0.058545, NaN, NaN, NaN, 0.04211683, "- N/A -   "
35.11, 1448.63, 0.0586339, NaN, NaN, NaN, 0.0396753, "- N/A -   "
35.16, 1451.13, 0.05872275, NaN, NaN, NaN, 0.0372337, "- N/A -   "
35.21, 1453.76, 0.0588144, NaN, NaN, NaN, 0.0335714, "- N/A -   "
35.26, 1456.38, 0.0589116, NaN, NaN, NaN, 0.0286883, "- N/A -   "
35.31, 1458.64, 0.05899209, NaN, NaN, NaN, 0.0299091, "- N/A -   "
35.36, 1460.79, 0.0590726, NaN, NaN, NaN, 0.0323506, "- N/A -   "
35.41, 1463.3, 0.0591531, NaN, NaN, NaN, 0.0323506, "- N/A -   "
35.46, 1465.32, 0.0592309, NaN, NaN, NaN, 0.0347922, "- N/A -   "
35.51, 1467.47, 0.0593114, NaN, NaN, NaN, 0.03601294, "- N/A -   "
35.56, 1469.735, 0.0593919, NaN, NaN, NaN, 0.0372337, "- N/A -   "
35.61, 1471.76, 0.0594669, NaN, NaN, NaN, 0.04089605, "- N/A -   "
35.66, 1473.91, 0.0595447, NaN, NaN, NaN, 0.0433376, "- N/A -   "
35.71, 1475.936, 0.05961686, NaN, NaN, NaN, 0.0482207, "- N/A -   "
35.76, 1478.44, 0.05970294, NaN, NaN, NaN, 0.04699994, "- N/A -   "
35.81, 1481.3, 0.05980568, NaN, NaN, NaN, 0.0396753, "- N/A -   "
35.86, 1484.28, 0.0599056, NaN, NaN, NaN, 0.0323506, "- N/A -   "
35.91, 1486.67, 0.0599945, NaN, NaN, NaN, 0.0286883, "- N/A -   "
35.96, 1488.82, 0.06006947, NaN, NaN, NaN, 0.0323506, "- N/A -   "
36.01, 1490.72, 0.0601417, NaN, NaN, NaN, 0.0372337, "- N/A -   "
36.06, 1492.87, 0.0602194, NaN, NaN, NaN, 0.0396753, "- N/A -   "
36.11, 1495.49, 0.0603138, NaN, NaN, NaN, 0.0347922, "- N/A -   "
36.16, 1498, 0.06040268, NaN, NaN, NaN, 0.0323506, "- N/A -   "
36.21, 1500.26, 0.06048321, NaN, NaN, NaN, 0.0335714, "- N/A -   "
36.26, 1502.05, 0.0605526, NaN, NaN, NaN, 0.0396753, "- N/A -   "
36.31, 1504.08, 0.0606276, NaN, NaN, NaN, 0.0433376, "- N/A -   "
36.36, 1506.58, 0.0607165, NaN, NaN, NaN, 0.04089605, "- N/A -   "
36.41, 1509.09, 0.06080531, NaN, NaN, NaN, 0.0396753, "- N/A -   "
36.46, 1511.47, 0.0608886, NaN, NaN, NaN, 0.0384545, "- N/A -   "
36.51, 1513.86, 0.0609747, NaN, NaN, NaN, 0.0372337, "- N/A -   "
36.56, 1516.24, 0.061058, NaN, NaN, NaN, 0.0372337, "- N/A -   "
36.61, 1518.509, 0.0611413, NaN, NaN, NaN, 0.0372337, "- N/A -   "
36.66, 1521.01, 0.06123293, NaN, NaN, NaN, 0.0347922, "- N/A -   "
36.71, 1523.64, 0.0613218, NaN, NaN, NaN, 0.03112983, "- N/A -   "
36.76, 1525.78, 0.0614051, NaN, NaN, NaN, 0.0323506, "- N/A -   "
36.81, 1528.17, 0.0614884, NaN, NaN, NaN, 0.03112983, "- N/A -   "
36.86, 1530.32, 0.0615661, NaN, NaN, NaN, 0.0335714, "- N/A -   "
36.91, 1532.7, 0.06165222, NaN, NaN, NaN, 0.0323506, "- N/A -   "
36.96, 1534.73, 0.0617272, NaN, NaN, NaN, 0.03601294, "- N/A -   "
37.01, 1536.87, 0.0618022, NaN, NaN, NaN, 0.0396753, "- N/A -   "
37.06, 1538.782, 0.0618771, NaN, NaN, NaN, 0.0433376, "- N/A -   "
37.11, 1540.93, 0.0619549, NaN, NaN, NaN, 0.04577916, "- N/A -   "
37.16, 1543.31, 0.0620382, NaN, NaN, NaN, 0.04577916, "- N/A -   "
37.21, 1545.7, 0.0621243, NaN, NaN, NaN, 0.0445584, "- N/A -   "
37.26, 1548.68, 0.06222423, NaN, NaN, NaN, 0.0384545, "- N/A -   "
37.31, 1551.18, 0.0623159, NaN, NaN, NaN, 0.0335714, "- N/A -   "
37.36, 1553.69, 0.06240472, NaN, NaN, NaN, 0.0323506, "- N/A -   "
37.41, 1555.72, 0.06248247, NaN, NaN, NaN, 0.0347922, "- N/A -   "
37.46, 1558.1, 0.0625658, NaN, NaN, NaN, 0.0335714, "- N/A -   "
37.51, 1560.84, 0.06266018, NaN, NaN, NaN, 0.0286883, "- N/A -   "
37.56, 1562.99, 0.0627407, NaN, NaN, NaN, 0.0299091, "- N/A -   "
37.61, 1564.9, 0.0628129, NaN, NaN, NaN, 0.0347922, "- N/A -   "
37.66, 1566.69, 0.06288233, NaN, NaN, NaN, 0.04089605, "- N/A -   "
37.71, 1568.71, 0.0629573, NaN, NaN, NaN, 0.0445584, "- N/A -   "
37.76, 1571.1, 0.06303782, NaN, NaN, NaN, 0.04577916, "- N/A -   "
37.81, 1573.6, 0.0631267, NaN, NaN, NaN, 0.0433376, "- N/A -   "
37.86, 1576.227, 0.06322386, NaN, NaN, NaN, 0.0372337, "- N/A -   "
37.91, 1578.85, 0.0633155, NaN, NaN, NaN, 0.0335714, "- N/A -   "
37.96, 1581, 0.06339602, NaN, NaN, NaN, 0.0347922, "- N/A -   "
38.01, 1583.38, 0.06347655, NaN, NaN, NaN, 0.03601294, "- N/A -   "
38.06, 1585.89, 0.063571, NaN, NaN, NaN, 0.0323506, "- N/A -   "
38.11, 1588.39, 0.06365981, NaN, NaN, NaN, 0.0299091, "- N/A -   "
38.16, 1590.9, 0.06374589, NaN, NaN, NaN, 0.0274675, "- N/A -   "
38.21, 1593.04, 0.06382641, NaN, NaN, NaN, 0.0286883, "- N/A -   "
38.26, 1594.83, 0.06389306, NaN, NaN, NaN, 0.0372337, "- N/A -   "
38.31, 1596.74, 0.06396525, NaN, NaN, NaN, 0.04089605, "- N/A -   "
38.36, 1598.885, 0.06404023, NaN, NaN, NaN, 0.0445584, "- N/A -   "
38.41, 1601.27, 0.0641263, NaN, NaN, NaN, 0.0433376, "- N/A -   "
38.46, 1603.54, 0.06420961, NaN, NaN, NaN, 0.0433376, "- N/A -   "
38.51, 1605.92, 0.06429291, NaN, NaN, NaN, 0.0445584, "- N/A -   "
38.56, 1608.31, 0.06437899, NaN, NaN, NaN, 0.04211683, "- N/A -   "
38.61, 1611.17, 0.064479, NaN, NaN, NaN, 0.0347922, "- N/A -   "
38.66, 1613.79, 0.06457336, NaN, NaN, NaN, 0.0299091, "- N/A -   "
38.71, 1616.3, 0.064665, NaN, NaN, NaN, 0.0274675, "- N/A -   "
38.76, 1618.323, 0.06473719, NaN, NaN, NaN, 0.03112983, "- N/A -   "
38.81, 1620.35, 0.06481216, NaN, NaN, NaN, 0.03601294, "- N/A -   "
38.86, 1622.5, 0.0648871, NaN, NaN, NaN, 0.0384545, "- N/A -   "
38.91, 1624.76, 0.06497321, NaN, NaN, NaN, 0.0372337, "- N/A -   "
38.96, 1627.267, 0.06506485, NaN, NaN, NaN, 0.0335714, "- N/A -   "
39.01, 1629.41, 0.06513704, NaN, NaN, NaN, 0.0384545, "- N/A -   "
39.06, 1631.44, 0.06521201, NaN, NaN, NaN, 0.04211683, "- N/A -   "
39.11, 1633.59, 0.0652925, NaN, NaN, NaN, 0.0445584, "- N/A -   "
39.16, 1635.97, 0.06537584, NaN, NaN, NaN, 0.0433376, "- N/A -   "
39.21, 1638.83, 0.0654786, NaN, NaN, NaN, 0.0347922, "- N/A -   "
39.26, 1641.58, 0.06557577, NaN, NaN, NaN, 0.0299091, "- N/A -   "
39.31, 1643.96, 0.06565907, NaN, NaN, NaN, 0.0286883, "- N/A -   "
39.36, 1645.99, 0.06573682, NaN, NaN, NaN, 0.03112983, "- N/A -   "
39.41, 1648.136, 0.06581458, NaN, NaN, NaN, 0.0335714, "- N/A -   "
39.46, 1650.28, 0.0658951, NaN, NaN, NaN, 0.0347922, "- N/A -   "
39.51, 1652.67, 0.06598117, NaN, NaN, NaN, 0.0335714, "- N/A -   "
39.56, 1655.17, 0.0660673, NaN, NaN, NaN, 0.0335714, "- N/A -   "
39.61, 1657.2, 0.06614223, NaN, NaN, NaN, 0.0372337, "- N/A -   "
39.66, 1659.35, 0.06622276, NaN, NaN, NaN, 0.0372337, "- N/A -   "
39.71, 1661.25, 0.06629495, NaN, NaN, NaN, 0.04211683, "- N/A -   "
39.76, 1663.52, 0.06637547, NaN, NaN, NaN, 0.0433376, "- N/A -   "
39.81, 1665.9, 0.0664616, NaN, NaN, NaN, 0.04211683, "- N/A -   "
39.86, 1668.29, 0.06654763, NaN, NaN, NaN, 0.04211683, "- N/A -   "
39.91, 1670.79, 0.06663649, NaN, NaN, NaN, 0.0396753, "- N/A -   "
39.96, 1673.3, 0.06672534, NaN, NaN, NaN, 0.0372337, "- N/A -   "
40.01, 1675.68, 0.0668142, NaN, NaN, NaN, 0.0347922, "- N/A -   "
40.06, 1677.949, 0.0668975, NaN, NaN, NaN, 0.0347922, "- N/A -   "
40.11, 1680.21, 0.06698081, NaN, NaN, NaN, 0.0347922, "- N/A -   "
40.16, 1682.48, 0.06706133, NaN, NaN, NaN, 0.03601294, "- N/A -   "
40.21, 1684.63, 0.06714186, NaN, NaN, NaN, 0.0372337, "- N/A -   "
40.26, 1686.893, 0.06722516, NaN, NaN, NaN, 0.0372337, "- N/A -   "
40.31, 1689.28, 0.067314, NaN, NaN, NaN, 0.0347922, "- N/A -   "
40.36, 1691.78, 0.06740287, NaN, NaN, NaN, 0.0323506, "- N/A -   "
40.41, 1693.57, 0.0674695, NaN, NaN, NaN, 0.0396753, "- N/A -   "
40.46, 1695.6, 0.06754726, NaN, NaN, NaN, 0.04211683, "- N/A -   "
40.51, 1697.74, 0.067625, NaN, NaN, NaN, 0.0445584, "- N/A -   "
40.56, 1700.249, 0.06771109, NaN, NaN, NaN, 0.0433376, "- N/A -   "
40.61, 1702.87, 0.06780551, NaN, NaN, NaN, 0.0384545, "- N/A -   "
40.66, 1705.854, 0.06790824, NaN, NaN, NaN, 0.0299091, "- N/A -   "
40.71, 1708, 0.06799155, NaN, NaN, NaN, 0.0299091, "- N/A -   "
40.76, 1710.03, 0.0680693, NaN, NaN, NaN, 0.0323506, "- N/A -   "
40.81, 1712.29, 0.06814982, NaN, NaN, NaN, 0.0335714, "- N/A -   "
40.86, 1714.68, 0.0682387, NaN, NaN, NaN, 0.0323506, "- N/A -   "
40.91, 1717.06, 0.06832197, NaN, NaN, NaN, 0.03112983, "- N/A -   "
40.96, 1719.09, 0.06839973, NaN, NaN, NaN, 0.0335714, "- N/A -   "
41.01, 1721.24, 0.06848025, NaN, NaN, NaN, 0.0347922, "- N/A -   "
41.06, 1723.15, 0.06855245, NaN, NaN, NaN, 0.0396753, "- N/A -   "
41.11, 1725.05, 0.06862742, NaN, NaN, NaN, 0.0445584, "- N/A -   "
41.16, 1727.32, 0.06870517, NaN, NaN, NaN, 0.04577916, "- N/A -   "
41.21, 1729.47, 0.06878847, NaN, NaN, NaN, 0.04699994, "- N/A -   "
41.26, 1732.21, 0.06888288, NaN, NaN, NaN, 0.04211683, "- N/A -   "
41.31, 1734.71, 0.06897452, NaN, NaN, NaN, 0.0372337, "- N/A -   "
41.36, 1737.098, 0.06906615, NaN, NaN, NaN, 0.0335714, "- N/A -   "
41.41, 1739.36, 0.06914945, NaN, NaN, NaN, 0.0335714, "- N/A -   "
41.46, 1741.868, 0.0692411, NaN, NaN, NaN, 0.0299091, "- N/A -   "
41.51, 1744.253, 0.06932994, NaN, NaN, NaN, 0.0286883, "- N/A -   "
41.56, 1746.28, 0.06940769, NaN, NaN, NaN, 0.0299091, "- N/A -   "
41.61, 1748.55, 0.06948821, NaN, NaN, NaN, 0.0323506, "- N/A -   "
41.66, 1750.33, 0.06956041, NaN, NaN, NaN, 0.03601294, "- N/A -   "
41.71, 1752.36, 0.0696382, NaN, NaN, NaN, 0.0384545, "- N/A -   "
41.76, 1754.27, 0.06971035, NaN, NaN, NaN, 0.0433376, "- N/A -   "
41.81, 1756.66, 0.06979088, NaN, NaN, NaN, 0.0445584, "- N/A -   "
41.86, 1758.8, 0.06987696, NaN, NaN, NaN, 0.0433376, "- N/A -   "
41.91, 1761.306, 0.06996582, NaN, NaN, NaN, 0.04089605, "- N/A -   "
41.96, 1763.57, 0.07005189, NaN, NaN, NaN, 0.0396753, "- N/A -   "
42.01, 1766.55, 0.07015186, NaN, NaN, NaN, 0.0323506, "- N/A -   "
42.06, 1769.06, 0.0702463, NaN, NaN, NaN, 0.0274675, "- N/A -   "
42.11, 1771.08, 0.0703268, NaN, NaN, NaN, 0.0286883, "- N/A -   "
42.16, 1773.23, 0.0704073, NaN, NaN, NaN, 0.0299091, "- N/A -   "
42.21, 1775.14, 0.07048229, NaN, NaN, NaN, 0.0335714, "- N/A -   "
42.26, 1777.41, 0.07056282, NaN, NaN, NaN, 0.0347922, "- N/A -   "
42.31, 1779.31, 0.0706406, NaN, NaN, NaN, 0.0384545, "- N/A -   "
42.36, 1781.579, 0.07072387, NaN, NaN, NaN, 0.0372337, "- N/A -   "
42.41, 1783.84, 0.0708044, NaN, NaN, NaN, 0.0384545, "- N/A -   "
42.46, 1785.75, 0.07087381, NaN, NaN, NaN, 0.0445584, "- N/A -   "
42.51, 1787.78, 0.07095434, NaN, NaN, NaN, 0.04577916, "- N/A -   "
42.56, 1790.05, 0.07104042, NaN, NaN, NaN, 0.04577916, "- N/A -   "
42.61, 1792.67, 0.07113205, NaN, NaN, NaN, 0.04089605, "- N/A -   "
42.66, 1795.17, 0.07122368, NaN, NaN, NaN, 0.0372337, "- N/A -   "
42.71, 1797.68, 0.07131532, NaN, NaN, NaN, 0.0335714, "- N/A -   "
42.76, 1799.94, 0.0714014, NaN, NaN, NaN, 0.0323506, "- N/A -   "
42.81, 1801.97, 0.07147915, NaN, NaN, NaN, 0.0347922, "- N/A -   "
42.86, 1804.24, 0.07156245, NaN, NaN, NaN, 0.0347922, "- N/A -   "
42.91, 1806.5, 0.07164852, NaN, NaN, NaN, 0.0335714, "- N/A -   "
42.96, 1809.01, 0.07173738, NaN, NaN, NaN, 0.03112983, "- N/A -   "
43.01, 1811.03, 0.07181513, NaN, NaN, NaN, 0.0335714, "- N/A -   "
43.06, 1812.94, 0.07189011, NaN, NaN, NaN, 0.0384545, "- N/A -   "
43.11, 1815.09, 0.0719651, NaN, NaN, NaN, 0.04089605, "- N/A -   "
43.16, 1817.35, 0.07204838, NaN, NaN, NaN, 0.04089605, "- N/A -   "
43.21, 1819.501, 0.07212891, NaN, NaN, NaN, 0.04211683, "- N/A -   "
43.26, 1821.65, 0.07221221, NaN, NaN, NaN, 0.0433376, "- N/A -   "
43.31, 1824.27, 0.07230384, NaN, NaN, NaN, 0.0384545, "- N/A -   "
43.36, 1826.66, 0.07239547, NaN, NaN, NaN, 0.0347922, "- N/A -   "
43.41, 1829.04, 0.07248433, NaN, NaN, NaN, 0.0335714, "- N/A -   "
43.46, 1831.19, 0.0725649, NaN, NaN, NaN, 0.0347922, "- N/A -   "
43.51, 1833.33, 0.07265093, NaN, NaN, NaN, 0.0335714, "- N/A -   "
43.56, 1835.72, 0.07273424, NaN, NaN, NaN, 0.0335714, "- N/A -   "
43.61, 1838.1, 0.07282031, NaN, NaN, NaN, 0.0323506, "- N/A -   "
43.66, 1840.37, 0.07290362, NaN, NaN, NaN, 0.03112983, "- N/A -   "
43.71, 1842.52, 0.07298692, NaN, NaN, NaN, 0.0323506, "- N/A -   "
43.76, 1844.78, 0.07306744, NaN, NaN, NaN, 0.0323506, "- N/A -   "
43.81, 1846.57, 0.0731369, NaN, NaN, NaN, 0.0384545, "- N/A -   "
43.86, 1848.6, 0.07321461, NaN, NaN, NaN, 0.04211683, "- N/A -   "
43.91, 1850.51, 0.07329237, NaN, NaN, NaN, 0.0433376, "- N/A -   "
43.96, 1852.89, 0.0733729, NaN, NaN, NaN, 0.0445584, "- N/A -   "
44.01, 1855.04, 0.0734562, NaN, NaN, NaN, 0.04577916, "- N/A -   "
44.06, 1857.66, 0.0735506, NaN, NaN, NaN, 0.0396753, "- N/A -   "
44.11, 1860.29, 0.07364501, NaN, NaN, NaN, 0.0347922, "- N/A -   "
44.16, 1862.551, 0.07373109, NaN, NaN, NaN, 0.0335714, "- N/A -   "
44.21, 1864.82, 0.07381994, NaN, NaN, NaN, 0.0323506, "- N/A -   "
44.26, 1867.08, 0.07390325, NaN, NaN, NaN, 0.03112983, "- N/A -   "
44.31, 1869.59, 0.07399766, NaN, NaN, NaN, 0.0274675, "- N/A -   "
44.36, 1871.73, 0.07407819, NaN, NaN, NaN, 0.0299091, "- N/A -   "
44.41, 1873.52, 0.0741476, NaN, NaN, NaN, 0.0347922, "- N/A -   "
44.46, 1875.43, 0.07422257, NaN, NaN, NaN, 0.0384545, "- N/A -   "
44.51, 1877.219, 0.07429477, NaN, NaN, NaN, 0.0433376, "- N/A -   "
44.56, 1879.37, 0.07437252, NaN, NaN, NaN, 0.04699994, "- N/A -   "
44.61, 1881.39, 0.07445027, NaN, NaN, NaN, 0.0482207, "- N/A -   "
44.66, 1884.02, 0.0745419, NaN, NaN, NaN, 0.0445584, "- N/A -   "
44.71, 1886.76, 0.07463909, NaN, NaN, NaN, 0.0384545, "- N/A -   "
44.76, 1889.26, 0.0747363, NaN, NaN, NaN, 0.0335714, "- N/A -   "
44.81, 1891.53, 0.07482236, NaN, NaN, NaN, 0.03112983, "- N/A -   "
44.86, 1893.91, 0.0749084, NaN, NaN, NaN, 0.0299091, "- N/A -   "
44.91, 1896.42, 0.07500284, NaN, NaN, NaN, 0.0250259, "- N/A -   "
44.96, 1898.57, 0.07508615, NaN, NaN, NaN, 0.0250259, "- N/A -   "
45.01, 1900.47, 0.07516112, NaN, NaN, NaN, 0.0286883, "- N/A -   "
45.06, 1902.262, 0.07522776, NaN, NaN, NaN, 0.03601294, "- N/A -   "
45.11, 1903.93, 0.0752944, NaN, NaN, NaN, 0.0433376, "- N/A -   "
45.16, 1905.84, 0.07536937, NaN, NaN, NaN, 0.04699994, "- N/A -   "
45.21, 1907.87, 0.07544713, NaN, NaN, NaN, 0.0494415, "- N/A -   "
45.26, 1910.25, 0.0755332, NaN, NaN, NaN, 0.0482207, "- N/A -   "
45.31, 1912.4, 0.07561928, NaN, NaN, NaN, 0.04699994, "- N/A -   "
45.36, 1915.02, 0.0757137, NaN, NaN, NaN, 0.04211683, "- N/A -   "
45.41, 1917.65, 0.07581088, NaN, NaN, NaN, 0.0372337, "- N/A -   "
45.46, 1920.15, 0.0759053, NaN, NaN, NaN, 0.03112983, "- N/A -   "
45.51, 1922.53, 0.07599692, NaN, NaN, NaN, 0.0274675, "- N/A -   "
45.56, 1924.8, 0.0760802, NaN, NaN, NaN, 0.0274675, "- N/A -   "
45.561, 1924.92, 0.076083, NaN, NaN, NaN, 0.0274675, "- N/A -   "