File: 2_Tensile_Data/Hamel_ForceTest_Bolt8_Test4.csv
Time, Load (lb), Position (in), AxialStrain (in), TransverseStrain (in), Auxiliary (), Control Out (V), Stress (psi)
0.0, 1.29742, 0.0, NaN, NaN, NaN, 0.09949338, "- N/A -   "
0.01, 1.76921, 3.3321e-05, NaN, NaN, NaN, 0.104376, "- N/A -   "
0.02, 2.35895, 6.94188E-5, NaN, NaN, NaN, 0.095831, "- N/A -   "
0.03, 2.712792, 0.00010274, NaN, NaN, NaN, 0.08850638, "- N/A -   "
0.04, 3.30253, 0.000133284, NaN, NaN, NaN, 0.08240249, "- N/A -   "
0.05, 3.53842, 0.000163828, NaN, NaN, NaN, 0.0762986, "- N/A -   "
0.06, 4.010214, 0.000188819, NaN, NaN, NaN, 0.07263627, "- N/A -   "
0.07, 4.482, 0.000216587, NaN, NaN, NaN, 0.06775316, "- N/A -   "
0.08, 4.59995, 0.000238801, NaN, NaN, NaN, 0.0653116, "- N/A -   "
0.09, 5.071741, 0.000261015, NaN, NaN, NaN, 0.06287005, "- N/A -   "
0.1, 5.425584, 0.000280452, NaN, NaN, NaN, 0.06164927, "- N/A -   "
0.11, 5.66148, 2.998892E-4, NaN, NaN, NaN, 0.0604285, "- N/A -   "
0.12, 5.897373, 0.000319326, NaN, NaN, NaN, 0.0592077, "- N/A -   "
0.13, 6.251216, 0.000338764, NaN, NaN, NaN, 0.0579869, "- N/A -   "
0.14, 6.487111, 0.000358201, NaN, NaN, NaN, 0.05676616, "- N/A -   "
0.15, 6.60506, 0.000372085, NaN, NaN, NaN, 0.0579869, "- N/A -   "
0.16, 6.84095, 0.000388745, NaN, NaN, NaN, 0.0579869, "- N/A -   "
0.17, 7.07685, 0.000405406, NaN, NaN, NaN, 0.0579869, "- N/A -   "
0.18, 7.312743, 0.000422066, NaN, NaN, NaN, 0.0579869, "- N/A -   "
0.19, 7.548638, 4.387268E-4, NaN, NaN, NaN, 0.0579869, "- N/A -   "
0.2, 7.90248, 4.553873E-4, NaN, NaN, NaN, 0.0579869, "- N/A -   "
0.21, 8.020428, 4.720478E-4, NaN, NaN, NaN, 0.0579869, "- N/A -   "
0.22, 8.256323, 0.000491485, NaN, NaN, NaN, 0.05676616, "- N/A -   "
0.23, 8.610166, 0.000510922, NaN, NaN, NaN, 0.0555454, "- N/A -   "
0.24, 8.846061, 0.000527583, NaN, NaN, NaN, 0.0555454, "- N/A -   "
0.25, 9.081955, 5.470201E-4, NaN, NaN, NaN, 0.0543246, "- N/A -   "
0.26, 9.31785, 0.000569234, NaN, NaN, NaN, 0.0531038, "- N/A -   "
0.27, 9.671693, 0.000588671, NaN, NaN, NaN, 0.05066227, "- N/A -   "
0.28, 9.907588, 0.000608109, NaN, NaN, NaN, 0.0494415, "- N/A -   "
0.29, 10.26143, 0.000627546, NaN, NaN, NaN, 0.0482207, "- N/A -   "
0.3, 10.4973, 6.497599E-4, NaN, NaN, NaN, 0.04577916, "- N/A -   "
0.31, 10.8512, 6.719739E-4, NaN, NaN, NaN, 0.0433376, "- N/A -   "
0.32, 11.0871, 6.914112E-4, NaN, NaN, NaN, 0.04211683, "- N/A -   "
0.33, 11.323, 7.108485E-4, NaN, NaN, NaN, 0.04089605, "- N/A -   "
0.34, 11.5589, 7.27509E-4, NaN, NaN, NaN, 0.04089605, "- N/A -   "
0.35, 11.7947, 0.000746946, NaN, NaN, NaN, 0.0396753, "- N/A -   "
0.36, 12.14859, 0.000763607, NaN, NaN, NaN, 0.0396753, "- N/A -   "
0.37, 12.3845, 0.000783044, NaN, NaN, NaN, 0.0384545, "- N/A -   "
0.38, 12.6204, 7.997045E-4, NaN, NaN, NaN, 0.0384545, "- N/A -   "
0.39, 12.9742, 8.191418E-4, NaN, NaN, NaN, 0.0372337, "- N/A -   "
0.4, 13.2101, 8.38579E-4, NaN, NaN, NaN, 0.03601294, "- N/A -   "
0.409, 13.446, 8.552396E-4, NaN, NaN, NaN, 0.03601294, "- N/A -   "
0.42, 13.6819, 0.0008719, NaN, NaN, NaN, 0.03601294, "- N/A -   "
0.43, 13.9178, 8.885606E-4, NaN, NaN, NaN, 0.03601294, "- N/A -   "
0.44, 14.1537, 0.000907998, NaN, NaN, NaN, 0.0347922, "- N/A -   "
0.45, 14.5075, 9.246584E-4, NaN, NaN, NaN, 0.0347922, "- N/A -   "
0.46, 14.7434, 0.000941319, NaN, NaN, NaN, 0.0347922, "- N/A -   "
0.47, 14.9793, 0.000957979, NaN, NaN, NaN, 0.0347922, "- N/A -   "
0.48, 15.0973, 9.746399E-4, NaN, NaN, NaN, 0.0347922, "- N/A -   "
0.49, 15.3332, 9.913004E-4, NaN, NaN, NaN, 0.0347922, "- N/A -   "
0.5, 15.5691, 0.00100796, NaN, NaN, NaN, 0.0347922, "- N/A -   "
0.51, 15.805, 0.0010274, NaN, NaN, NaN, 0.0335714, "- N/A -   "
0.52, 16.1588, 0.00104684, NaN, NaN, NaN, 0.0323506, "- N/A -   "
0.53, 16.3947, 0.001063496, NaN, NaN, NaN, 0.0323506, "- N/A -   "
0.54, 16.6306, 0.00108293, NaN, NaN, NaN, 0.03112983, "- N/A -   "
0.55, 16.86649, 0.00110237, NaN, NaN, NaN, 0.0299091, "- N/A -   "
0.56, 17.2203, 0.001119031, NaN, NaN, NaN, 0.0299091, "- N/A -   "
0.57, 17.4562, 0.00113569, NaN, NaN, NaN, 0.0299091, "- N/A -   "
0.58, 17.6921, 0.001152352, NaN, NaN, NaN, 0.0299091, "- N/A -   "
0.59, 17.8101, 0.00116901, NaN, NaN, NaN, 0.0299091, "- N/A -   "
0.6, 18.046, 0.00118845, NaN, NaN, NaN, 0.0286883, "- N/A -   "
0.61, 18.3998, 0.00120233, NaN, NaN, NaN, 0.0299091, "- N/A -   "
0.62, 18.6357, 0.00122177, NaN, NaN, NaN, 0.0286883, "- N/A -   "
0.63, 18.7536, 0.00123843, NaN, NaN, NaN, 0.0286883, "- N/A -   "
0.64, 19.1075, 0.00125509, NaN, NaN, NaN, 0.0286883, "- N/A -   "
0.65, 19.3434, 0.00127175, NaN, NaN, NaN, 0.0286883, "- N/A -   "
0.66, 19.57928, 0.00128564, NaN, NaN, NaN, 0.0299091, "- N/A -   "
0.67, 19.6972, 0.0013023, NaN, NaN, NaN, 0.0299091, "- N/A -   "
0.68, 19.9331, 0.00131618, NaN, NaN, NaN, 0.03112983, "- N/A -   "
0.69, 20.169, 0.00133006, NaN, NaN, NaN, 0.0323506, "- N/A -   "
0.7, 20.4049, 0.00134672, NaN, NaN, NaN, 0.0323506, "- N/A -   "
0.71, 20.6408, 0.00136339, NaN, NaN, NaN, 0.0323506, "- N/A -   "
0.72, 20.8767, 0.00137727, NaN, NaN, NaN, 0.0335714, "- N/A -   "
0.73, 21.1126, 0.00139115, NaN, NaN, NaN, 0.0347922, "- N/A -   "
0.74, 21.3485, 0.00140504, NaN, NaN, NaN, 0.03601294, "- N/A -   "
0.75, 21.46644, 0.00141892, NaN, NaN, NaN, 0.0372337, "- N/A -   "
0.76, 21.5844, 0.0014328, NaN, NaN, NaN, 0.0384545, "- N/A -   "
0.77, 21.7023, 0.00144669, NaN, NaN, NaN, 0.0396753, "- N/A -   "
0.78, 21.93823, 0.00146057, NaN, NaN, NaN, 0.04089605, "- N/A -   "
0.79, 22.41, 0.001477232, NaN, NaN, NaN, 0.04089605, "- N/A -   "
0.8, 22.41, 0.00149112, NaN, NaN, NaN, 0.04211683, "- N/A -   "
0.81, 22.7639, 0.001505, NaN, NaN, NaN, 0.0433376, "- N/A -   "
0.82, 22.88181, 0.00152166, NaN, NaN, NaN, 0.0433376, "- N/A -   "
0.83, 23.1177, 0.00153554, NaN, NaN, NaN, 0.0445584, "- N/A -   "
0.84, 23.3536, 0.0015522, NaN, NaN, NaN, 0.0445584, "- N/A -   "
0.85, 23.5895, 0.00156886, NaN, NaN, NaN, 0.0445584, "- N/A -   "
0.86, 23.82539, 0.00158553, NaN, NaN, NaN, 0.0445584, "- N/A -   "
0.87, 24.0613, 0.001599409, NaN, NaN, NaN, 0.04577916, "- N/A -   "
0.88, 24.29718, 0.00161885, NaN, NaN, NaN, 0.0445584, "- N/A -   "
0.89, 24.5331, 0.00163273, NaN, NaN, NaN, 0.04577916, "- N/A -   "
0.9, 24.769, 0.00164939, NaN, NaN, NaN, 0.04577916, "- N/A -   "
0.91, 25.1228, 0.00166883, NaN, NaN, NaN, 0.0445584, "- N/A -   "
0.919, 25.3587, 0.00168549, NaN, NaN, NaN, 0.0445584, "- N/A -   "
0.929, 25.5946, 0.00170215, NaN, NaN, NaN, 0.0445584, "- N/A -   "
0.94, 25.8305, 0.00171603, NaN, NaN, NaN, 0.04577916, "- N/A -   "
0.95, 26.0664, 0.00173269, NaN, NaN, NaN, 0.04577916, "- N/A -   "
0.96, 26.3023, 0.00174935, NaN, NaN, NaN, 0.04577916, "- N/A -   "
0.97, 26.5382, 0.00176601, NaN, NaN, NaN, 0.04577916, "- N/A -   "
0.98, 26.6561, 0.00178545, NaN, NaN, NaN, 0.0445584, "- N/A -   "
0.99, 27.2459, 0.001802112, NaN, NaN, NaN, 0.0445584, "- N/A -   "
1, 27.4818, 0.00182433, NaN, NaN, NaN, 0.04211683, "- N/A -   "
1.01, 27.8356, 0.00184376, NaN, NaN, NaN, 0.04089605, "- N/A -   "
1.02, 27.95355, 0.00186042, NaN, NaN, NaN, 0.04089605, "- N/A -   "
1.03, 28.1894, 0.001879861, NaN, NaN, NaN, 0.0396753, "- N/A -   "
1.04, 28.54329, 0.0018993, NaN, NaN, NaN, 0.0396753, "- N/A -   "
1.05, 28.7792, 0.00191874, NaN, NaN, NaN, 0.0384545, "- N/A -   "
1.06, 29.0151, 0.001935396, NaN, NaN, NaN, 0.0372337, "- N/A -   "
1.07, 29.4869, 0.00195483, NaN, NaN, NaN, 0.03601294, "- N/A -   "
1.08, 29.7228, 0.00197427, NaN, NaN, NaN, 0.0347922, "- N/A -   "
1.09, 30.0766, 0.00199371, NaN, NaN, NaN, 0.0335714, "- N/A -   "
1.1, 30.3125, 0.002013145, NaN, NaN, NaN, 0.0323506, "- N/A -   "
1.11, 30.5484, 0.00203258, NaN, NaN, NaN, 0.03112983, "- N/A -   "
1.12, 30.9022, 0.00204924, NaN, NaN, NaN, 0.03112983, "- N/A -   "
1.13, 31.2561, 0.00207146, NaN, NaN, NaN, 0.0299091, "- N/A -   "
1.14, 31.492, 0.00208534, NaN, NaN, NaN, 0.0299091, "- N/A -   "
1.15, 31.8458, 0.002102001, NaN, NaN, NaN, 0.0299091, "- N/A -   "
1.16, 31.9638, 0.00211866, NaN, NaN, NaN, 0.0299091, "- N/A -   "
1.17, 32.1997, 0.00213532, NaN, NaN, NaN, 0.0299091, "- N/A -   "
1.18, 32.4356, 0.00215198, NaN, NaN, NaN, 0.0299091, "- N/A -   "
1.19, 32.67145, 0.00217142, NaN, NaN, NaN, 0.0286883, "- N/A -   "
1.2, 33.02529, 0.00218808, NaN, NaN, NaN, 0.0286883, "- N/A -   "
1.21, 33.2612, 0.002204741, NaN, NaN, NaN, 0.0286883, "- N/A -   "
1.22, 33.49708, 0.00221862, NaN, NaN, NaN, 0.0299091, "- N/A -   "
1.23, 33.73298, 0.00223529, NaN, NaN, NaN, 0.0299091, "- N/A -   "
1.24, 33.9689, 0.00225195, NaN, NaN, NaN, 0.0299091, "- N/A -   "
1.25, 34.2048, 0.00226861, NaN, NaN, NaN, 0.0299091, "- N/A -   "
1.26, 34.55861, 0.00228249, NaN, NaN, NaN, 0.03112983, "- N/A -   "
1.27, 34.7945, 0.00229915, NaN, NaN, NaN, 0.03112983, "- N/A -   "
1.28, 35.0304, 0.00231303, NaN, NaN, NaN, 0.0323506, "- N/A -   "
1.29, 35.3842, 0.00232969, NaN, NaN, NaN, 0.0323506, "- N/A -   "
1.3, 35.6201, 0.00234358, NaN, NaN, NaN, 0.0335714, "- N/A -   "
1.31, 35.85603, 0.00235746, NaN, NaN, NaN, 0.0347922, "- N/A -   "
1.32, 36.0919, 0.00237412, NaN, NaN, NaN, 0.03601294, "- N/A -   "
1.33, 36.2099, 0.00238801, NaN, NaN, NaN, 0.03601294, "- N/A -   "
1.34, 36.44577, 0.00240189, NaN, NaN, NaN, 0.0372337, "- N/A -   "
1.35, 36.5637, 0.00241577, NaN, NaN, NaN, 0.0384545, "- N/A -   "
1.36, 36.9176, 0.00243243, NaN, NaN, NaN, 0.0384545, "- N/A -   "
1.37, 37.2714, 0.0024491, NaN, NaN, NaN, 0.0384545, "- N/A -   "
1.38, 37.5073, 0.00246576, NaN, NaN, NaN, 0.0384545, "- N/A -   "
1.39, 37.74319, 0.00248242, NaN, NaN, NaN, 0.0384545, "- N/A -   "
1.4, 37.9791, 0.00249908, NaN, NaN, NaN, 0.0384545, "- N/A -   "
1.41, 38.4509, 0.00251574, NaN, NaN, NaN, 0.0384545, "- N/A -   "
1.42, 38.5688, 0.0025324, NaN, NaN, NaN, 0.0384545, "- N/A -   "
1.43, 38.8047, 0.00254628, NaN, NaN, NaN, 0.0396753, "- N/A -   "
1.44, 39.15856, 0.00256294, NaN, NaN, NaN, 0.0396753, "- N/A -   "
1.45, 39.2765, 0.0025796, NaN, NaN, NaN, 0.0396753, "- N/A -   "
1.46, 39.7483, 0.00259349, NaN, NaN, NaN, 0.04089605, "- N/A -   "
1.47, 39.8662, 0.00261015, NaN, NaN, NaN, 0.04089605, "- N/A -   "
1.48, 40.22009, 0.00262681, NaN, NaN, NaN, 0.04089605, "- N/A -   "
1.49, 40.456, 0.002640691, NaN, NaN, NaN, 0.04211683, "- N/A -   "
1.5, 40.69188, 0.00265735, NaN, NaN, NaN, 0.04211683, "- N/A -   "
1.51, 41.04572, 0.00267401, NaN, NaN, NaN, 0.04211683, "- N/A -   "
1.52, 41.2816, 0.0026879, NaN, NaN, NaN, 0.0433376, "- N/A -   "
1.53, 41.51751, 0.00270456, NaN, NaN, NaN, 0.0433376, "- N/A -   "
1.54, 41.7534, 0.00272122, NaN, NaN, NaN, 0.0433376, "- N/A -   "
1.55, 41.9893, 0.00273788, NaN, NaN, NaN, 0.0433376, "- N/A -   "
1.56, 42.3431, 0.00275454, NaN, NaN, NaN, 0.0433376, "- N/A -   "
1.57, 42.697, 0.0027712, NaN, NaN, NaN, 0.0433376, "- N/A -   "
1.58, 42.8149, 0.00278786, NaN, NaN, NaN, 0.0433376, "- N/A -   "
1.59, 43.1688, 0.00280174, NaN, NaN, NaN, 0.0445584, "- N/A -   "
1.6, 43.40467, 0.00281563, NaN, NaN, NaN, 0.04577916, "- N/A -   "
1.61, 43.75851, 0.00283229, NaN, NaN, NaN, 0.04577916, "- N/A -   "
1.62, 43.9944, 0.00284895, NaN, NaN, NaN, 0.04577916, "- N/A -   "
1.63, 44.2303, 0.00286561, NaN, NaN, NaN, 0.04577916, "- N/A -   "
1.64, 44.70209, 0.002885045, NaN, NaN, NaN, 0.0445584, "- N/A -   "
1.65, 44.93799, 0.00290448, NaN, NaN, NaN, 0.0433376, "- N/A -   "
1.66, 45.29183, 0.0029267, NaN, NaN, NaN, 0.04089605, "- N/A -   "
1.67, 45.6457, 0.00294891, NaN, NaN, NaN, 0.0384545, "- N/A -   "
1.68, 46.11746, 0.00297112, NaN, NaN, NaN, 0.03601294, "- N/A -   "
1.69, 46.4713, 0.00299056, NaN, NaN, NaN, 0.0347922, "- N/A -   "
1.7, 46.8251, 0.003009999, NaN, NaN, NaN, 0.0335714, "- N/A -   "
1.71, 47.061, 0.003029436, NaN, NaN, NaN, 0.0323506, "- N/A -   "
1.72, 47.4149, 0.0030461, NaN, NaN, NaN, 0.0323506, "- N/A -   "
1.73, 47.65078, 0.003065534, NaN, NaN, NaN, 0.03112983, "- N/A -   "
1.74, 48.12257, 0.00308219, NaN, NaN, NaN, 0.03112983, "- N/A -   "
1.75, 48.47641, 0.003101632, NaN, NaN, NaN, 0.0299091, "- N/A -   "
1.76, 48.7123, 0.00311829, NaN, NaN, NaN, 0.0299091, "- N/A -   "
1.77, 49.0661, 0.00313495, NaN, NaN, NaN, 0.0299091, "- N/A -   "
1.78, 49.30204, 0.003151613, NaN, NaN, NaN, 0.0299091, "- N/A -   "
1.79, 49.5379, 0.003168274, NaN, NaN, NaN, 0.0299091, "- N/A -   "
1.8, 49.8918, 0.00318493, NaN, NaN, NaN, 0.0299091, "- N/A -   "
1.81, 50.1277, 0.003198818, NaN, NaN, NaN, 0.03112983, "- N/A -   "
1.82, 50.4815, 0.003212702, NaN, NaN, NaN, 0.0323506, "- N/A -   "
1.83, 50.7174, 0.00322936, NaN, NaN, NaN, 0.0323506, "- N/A -   "
1.84, 50.9533, 0.003243246, NaN, NaN, NaN, 0.0335714, "- N/A -   "
1.85, 51.1892, 0.00325713, NaN, NaN, NaN, 0.0347922, "- N/A -   "
1.86, 51.4251, 0.003271014, NaN, NaN, NaN, 0.03601294, "- N/A -   "
1.87, 51.7789, 0.00328767, NaN, NaN, NaN, 0.03601294, "- N/A -   "
1.88, 52.01483, 0.003304335, NaN, NaN, NaN, 0.03601294, "- N/A -   "
1.89, 52.36868, 0.00331822, NaN, NaN, NaN, 0.0372337, "- N/A -   "
1.9, 52.6046, 0.00333488, NaN, NaN, NaN, 0.0372337, "- N/A -   "
1.91, 52.84047, 0.00334876, NaN, NaN, NaN, 0.0384545, "- N/A -   "
1.92, 53.19431, 0.00336542, NaN, NaN, NaN, 0.0384545, "- N/A -   "
1.93, 53.4302, 0.003382084, NaN, NaN, NaN, 0.0384545, "- N/A -   "
1.94, 53.784, 0.00339874, NaN, NaN, NaN, 0.0384545, "- N/A -   "
1.95, 54.2558, 0.00341818, NaN, NaN, NaN, 0.0372337, "- N/A -   "
1.96, 54.6097, 0.003437619, NaN, NaN, NaN, 0.03601294, "- N/A -   "
1.97, 54.9635, 0.003459833, NaN, NaN, NaN, 0.0335714, "- N/A -   "
1.98, 55.1994, 0.00347649, NaN, NaN, NaN, 0.0335714, "- N/A -   "
1.99, 55.6712, 0.00349593, NaN, NaN, NaN, 0.0323506, "- N/A -   "
2, 56.02505, 0.00351259, NaN, NaN, NaN, 0.0323506, "- N/A -   "
2.01, 56.2609, 0.00352925, NaN, NaN, NaN, 0.0323506, "- N/A -   "
2.02, 56.6148, 0.00354591, NaN, NaN, NaN, 0.0323506, "- N/A -   "
2.03, 56.9686, 0.00356535, NaN, NaN, NaN, 0.03112983, "- N/A -   "
2.04, 57.32247, 0.00357923, NaN, NaN, NaN, 0.0323506, "- N/A -   "
2.05, 57.5584, 0.00359589, NaN, NaN, NaN, 0.0323506, "- N/A -   "
2.06, 57.91221, 0.00361255, NaN, NaN, NaN, 0.0323506, "- N/A -   "
2.07, 58.26605, 0.00362921, NaN, NaN, NaN, 0.0323506, "- N/A -   "
2.08, 58.384, 0.0036431, NaN, NaN, NaN, 0.0335714, "- N/A -   "
2.09, 58.7378, 0.00365698, NaN, NaN, NaN, 0.0347922, "- N/A -   "
2.1, 58.9737, 0.00367364, NaN, NaN, NaN, 0.0347922, "- N/A -   "
2.11, 59.3276, 0.00368753, NaN, NaN, NaN, 0.03601294, "- N/A -   "
2.12, 59.5635, 0.00370419, NaN, NaN, NaN, 0.03601294, "- N/A -   "
2.13, 59.79937, 0.00371807, NaN, NaN, NaN, 0.0372337, "- N/A -   "
2.14, 60.15321, 0.00373195, NaN, NaN, NaN, 0.0384545, "- N/A -   "
2.15, 60.27116, 0.00374584, NaN, NaN, NaN, 0.0396753, "- N/A -   "
2.16, 60.7429, 0.0037625, NaN, NaN, NaN, 0.0396753, "- N/A -   "
2.17, 60.97884, 0.00377916, NaN, NaN, NaN, 0.0396753, "- N/A -   "
2.18, 61.3327, 0.00379582, NaN, NaN, NaN, 0.0396753, "- N/A -   "
2.19, 61.6865, 0.00381248, NaN, NaN, NaN, 0.0396753, "- N/A -   "
2.2, 61.9224, 0.00382914, NaN, NaN, NaN, 0.0396753, "- N/A -   "
2.21, 62.2763, 0.0038458, NaN, NaN, NaN, 0.0396753, "- N/A -   "
2.22, 62.7481, 0.00386246, NaN, NaN, NaN, 0.0396753, "- N/A -   "
2.23, 62.98395, 0.0038819, NaN, NaN, NaN, 0.0384545, "- N/A -   "
2.24, 63.33779, 0.00389578, NaN, NaN, NaN, 0.0396753, "- N/A -   "
2.25, 63.5737, 0.00391244, NaN, NaN, NaN, 0.0396753, "- N/A -   "
2.26, 63.80958, 0.00392633, NaN, NaN, NaN, 0.04089605, "- N/A -   "
2.27, 64.16342, 0.00394299, NaN, NaN, NaN, 0.04089605, "- N/A -   "
2.28, 64.5173, 0.00395965, NaN, NaN, NaN, 0.04089605, "- N/A -   "
2.29, 64.87111, 0.00397631, NaN, NaN, NaN, 0.04089605, "- N/A -   "
2.3, 65.22495, 0.003992969, NaN, NaN, NaN, 0.04089605, "- N/A -   "
2.31, 65.5788, 0.00400963, NaN, NaN, NaN, 0.04089605, "- N/A -   "
2.32, 65.93263, 0.00402351, NaN, NaN, NaN, 0.04211683, "- N/A -   "
2.33, 66.16853, 0.00404295, NaN, NaN, NaN, 0.04089605, "- N/A -   "
2.34, 66.64032, 0.00406239, NaN, NaN, NaN, 0.0396753, "- N/A -   "
2.35, 66.99416, 0.00408183, NaN, NaN, NaN, 0.0384545, "- N/A -   "
2.36, 67.34801, 0.00410126, NaN, NaN, NaN, 0.0372337, "- N/A -   "
2.37, 67.81979, 0.0041207, NaN, NaN, NaN, 0.03601294, "- N/A -   "
2.38, 68.17364, 0.00414014, NaN, NaN, NaN, 0.03601294, "- N/A -   "
2.39, 68.52748, 0.0041568, NaN, NaN, NaN, 0.0347922, "- N/A -   "
2.4, 68.8813, 0.004176235, NaN, NaN, NaN, 0.0347922, "- N/A -   "
2.41, 69.23517, 0.00419012, NaN, NaN, NaN, 0.0347922, "- N/A -   "
2.42, 69.589, 0.004206779, NaN, NaN, NaN, 0.0347922, "- N/A -   "
2.43, 69.94285, 0.00422344, NaN, NaN, NaN, 0.0347922, "- N/A -   "
2.44, 70.17874, 0.0042401, NaN, NaN, NaN, 0.0347922, "- N/A -   "
2.45, 70.5326, 0.004253984, NaN, NaN, NaN, 0.03601294, "- N/A -   "
2.46, 70.7685, 0.00427064, NaN, NaN, NaN, 0.03601294, "- N/A -   "
2.47, 71.12233, 0.004287305, NaN, NaN, NaN, 0.03601294, "- N/A -   "
2.48, 71.3582, 0.00430119, NaN, NaN, NaN, 0.0372337, "- N/A -   "
2.49, 71.59412, 0.004317849, NaN, NaN, NaN, 0.0372337, "- N/A -   "
2.5, 71.94796, 0.00433451, NaN, NaN, NaN, 0.0372337, "- N/A -   "
2.51, 72.3018, 0.004353947, NaN, NaN, NaN, 0.03601294, "- N/A -   "
2.52, 72.65564, 0.00437061, NaN, NaN, NaN, 0.03601294, "- N/A -   "
2.53, 73.12743, 0.00439004, NaN, NaN, NaN, 0.0347922, "- N/A -   "
2.54, 73.59922, 0.004409482, NaN, NaN, NaN, 0.0335714, "- N/A -   "
2.55, 73.83511, 0.00442614, NaN, NaN, NaN, 0.0335714, "- N/A -   "
2.56, 74.189, 0.004442803, NaN, NaN, NaN, 0.0335714, "- N/A -   "
2.57, 74.5428, 0.00446224, NaN, NaN, NaN, 0.0335714, "- N/A -   "
2.58, 74.8966, 0.0044789, NaN, NaN, NaN, 0.0335714, "- N/A -   "
2.59, 75.13254, 0.004492785, NaN, NaN, NaN, 0.0335714, "- N/A -   "
2.6, 75.48638, 0.004509445, NaN, NaN, NaN, 0.0335714, "- N/A -   "
2.61, 75.8402, 0.00452611, NaN, NaN, NaN, 0.0335714, "- N/A -   "
2.62, 76.31202, 0.004542766, NaN, NaN, NaN, 0.0335714, "- N/A -   "
2.63, 76.5479, 0.00455943, NaN, NaN, NaN, 0.0335714, "- N/A -   "
2.64, 76.7838, 0.004576087, NaN, NaN, NaN, 0.0335714, "- N/A -   "
2.65, 77.25559, 0.004592748, NaN, NaN, NaN, 0.0335714, "- N/A -   "
2.66, 77.49149, 0.004609408, NaN, NaN, NaN, 0.0335714, "- N/A -   "
2.67, 77.96328, 0.00462607, NaN, NaN, NaN, 0.0335714, "- N/A -   "
2.68, 78.19917, 0.004642729, NaN, NaN, NaN, 0.0335714, "- N/A -   "
2.69, 78.55301, 0.004656613, NaN, NaN, NaN, 0.0347922, "- N/A -   "
2.7, 78.78891, 0.00467327, NaN, NaN, NaN, 0.0347922, "- N/A -   "
2.71, 79.14275, 0.00468993, NaN, NaN, NaN, 0.0347922, "- N/A -   "
2.72, 79.4966, 0.004703818, NaN, NaN, NaN, 0.03601294, "- N/A -   "
2.73, 79.85043, 0.004720478, NaN, NaN, NaN, 0.03601294, "- N/A -   "
2.74, 80.20428, 0.004739916, NaN, NaN, NaN, 0.0347922, "- N/A -   "
2.75, 80.55813, 0.004756576, NaN, NaN, NaN, 0.0347922, "- N/A -   "
2.76, 80.912, 0.004776013, NaN, NaN, NaN, 0.0347922, "- N/A -   "
2.77, 81.26581, 0.004792674, NaN, NaN, NaN, 0.0335714, "- N/A -   "
2.78, 81.61965, 0.004809334, NaN, NaN, NaN, 0.0335714, "- N/A -   "
2.79, 81.97349, 0.004825995, NaN, NaN, NaN, 0.0335714, "- N/A -   "
2.8, 82.32734, 0.00484266, NaN, NaN, NaN, 0.0335714, "- N/A -   "
2.81, 82.68118, 0.004856539, NaN, NaN, NaN, 0.0347922, "- N/A -   "
2.82, 82.91707, 0.0048732, NaN, NaN, NaN, 0.0347922, "- N/A -   "
2.83, 83.27091, 0.004887083, NaN, NaN, NaN, 0.03601294, "- N/A -   "
2.84, 83.50681, 0.004903744, NaN, NaN, NaN, 0.03601294, "- N/A -   "
2.85, 83.86065, 0.00491763, NaN, NaN, NaN, 0.0372337, "- N/A -   "
2.86, 84.09654, 0.004934288, NaN, NaN, NaN, 0.0372337, "- N/A -   "
2.87, 84.56834, 0.004948172, NaN, NaN, NaN, 0.0384545, "- N/A -   "
2.88, 84.68629, 0.004964832, NaN, NaN, NaN, 0.0384545, "- N/A -   "
2.89, 85.15807, 0.004978716, NaN, NaN, NaN, 0.0396753, "- N/A -   "
2.9, 85.39397, 0.004995377, NaN, NaN, NaN, 0.0396753, "- N/A -   "
2.91, 85.86576, 0.005012037, NaN, NaN, NaN, 0.0396753, "- N/A -   "
2.92, 86.2196, 0.005028698, NaN, NaN, NaN, 0.0396753, "- N/A -   "
2.93, 86.57345, 0.005045358, NaN, NaN, NaN, 0.0396753, "- N/A -   "
2.94, 86.80934, 0.005062019, NaN, NaN, NaN, 0.0396753, "- N/A -   "
2.95, 87.04523, 0.005075902, NaN, NaN, NaN, 0.04089605, "- N/A -   "
2.96, 87.39908, 0.005092563, NaN, NaN, NaN, 0.04089605, "- N/A -   "
2.97, 87.75292, 0.005106447, NaN, NaN, NaN, 0.04211683, "- N/A -   "
2.98, 88.10676, 0.005123107, NaN, NaN, NaN, 0.0433376, "- N/A -   "
2.99, 88.4606, 0.005136991, NaN, NaN, NaN, 0.0433376, "- N/A -   "
3, 88.6965, 0.00515365, NaN, NaN, NaN, 0.0433376, "- N/A -   "
3.01, 89.16828, 0.005173089, NaN, NaN, NaN, 0.04211683, "- N/A -   "
3.02, 89.40418, 0.00518975, NaN, NaN, NaN, 0.04211683, "- N/A -   "
3.03, 89.758, 0.00520641, NaN, NaN, NaN, 0.04211683, "- N/A -   "
3.04, 90.22981, 0.00522307, NaN, NaN, NaN, 0.04211683, "- N/A -   "
3.05, 90.58366, 0.00524251, NaN, NaN, NaN, 0.04089605, "- N/A -   "
3.06, 90.9375, 0.00525917, NaN, NaN, NaN, 0.04089605, "- N/A -   "
3.07, 91.2913, 0.00527583, NaN, NaN, NaN, 0.04089605, "- N/A -   "
3.08, 91.76313, 0.005295266, NaN, NaN, NaN, 0.0396753, "- N/A -   "
3.09, 92.117, 0.005314703, NaN, NaN, NaN, 0.0384545, "- N/A -   "
3.1, 92.58876, 0.00533136, NaN, NaN, NaN, 0.0384545, "- N/A -   "
3.11, 92.94261, 0.005350801, NaN, NaN, NaN, 0.0372337, "- N/A -   "
3.12, 93.41439, 0.00537024, NaN, NaN, NaN, 0.03601294, "- N/A -   "
3.13, 93.65029, 0.00538968, NaN, NaN, NaN, 0.0347922, "- N/A -   "
3.14, 94.24, 0.00540911, NaN, NaN, NaN, 0.0335714, "- N/A -   "
3.15, 94.47592, 0.00542855, NaN, NaN, NaN, 0.0323506, "- N/A -   "
3.16, 94.8298, 0.00544521, NaN, NaN, NaN, 0.0323506, "- N/A -   "
3.17, 95.30156, 0.005461871, NaN, NaN, NaN, 0.0323506, "- N/A -   "
3.18, 95.5374, 0.00547853, NaN, NaN, NaN, 0.0323506, "- N/A -   "
3.19, 95.8913, 0.00549519, NaN, NaN, NaN, 0.0323506, "- N/A -   "
3.2, 96.24514, 0.00551185, NaN, NaN, NaN, 0.0323506, "- N/A -   "
3.21, 96.599, 0.00552851, NaN, NaN, NaN, 0.0323506, "- N/A -   "
3.22, 97.07077, 0.00554517, NaN, NaN, NaN, 0.0323506, "- N/A -   "
3.23, 97.30666, 0.005561834, NaN, NaN, NaN, 0.0323506, "- N/A -   "
3.24, 97.54256, 0.00557849, NaN, NaN, NaN, 0.0323506, "- N/A -   "
3.25, 97.77845, 0.00559238, NaN, NaN, NaN, 0.0335714, "- N/A -   "
3.26, 98.13229, 0.00560626, NaN, NaN, NaN, 0.0347922, "- N/A -   "
3.27, 98.4861, 0.00562292, NaN, NaN, NaN, 0.03601294, "- N/A -   "
3.28, 98.72203, 0.00563681, NaN, NaN, NaN, 0.03601294, "- N/A -   "
3.29, 99.1938, 0.00565347, NaN, NaN, NaN, 0.03601294, "- N/A -   "
3.3, 99.42972, 0.00567013, NaN, NaN, NaN, 0.03601294, "- N/A -   "
3.31, 99.9015, 0.00568956, NaN, NaN, NaN, 0.0347922, "- N/A -   "
3.32, 100.255, 0.00570623, NaN, NaN, NaN, 0.0347922, "- N/A -   "
3.33, 100.6092, 0.00572566, NaN, NaN, NaN, 0.0335714, "- N/A -   "
3.34, 101.081, 0.0057451, NaN, NaN, NaN, 0.0323506, "- N/A -   "
3.35, 101.317, 0.00576454, NaN, NaN, NaN, 0.03112983, "- N/A -   "
3.36, 101.789, 0.00578397, NaN, NaN, NaN, 0.03112983, "- N/A -   "
3.37, 102.143, 0.00580063, NaN, NaN, NaN, 0.0299091, "- N/A -   "
3.38, 102.6143, 0.005820072, NaN, NaN, NaN, 0.0286883, "- N/A -   "
3.39, 102.968, 0.00583673, NaN, NaN, NaN, 0.0286883, "- N/A -   "
3.4, 103.204, 0.00585062, NaN, NaN, NaN, 0.0299091, "- N/A -   "
3.41, 103.558, 0.005867277, NaN, NaN, NaN, 0.0299091, "- N/A -   "
3.42, 103.794, 0.00588394, NaN, NaN, NaN, 0.0299091, "- N/A -   "
3.43, 104.148, 0.0059006, NaN, NaN, NaN, 0.0299091, "- N/A -   "
3.44, 104.501, 0.00591726, NaN, NaN, NaN, 0.0299091, "- N/A -   "
3.45, 104.855, 0.005933919, NaN, NaN, NaN, 0.0299091, "- N/A -   "
3.46, 105.209, 0.0059478, NaN, NaN, NaN, 0.03112983, "- N/A -   "
3.47, 105.445, 0.00596169, NaN, NaN, NaN, 0.0323506, "- N/A -   "
3.48, 105.681, 0.00597557, NaN, NaN, NaN, 0.0335714, "- N/A -   "
3.49, 106.035, 0.00599223, NaN, NaN, NaN, 0.0335714, "- N/A -   "
3.5, 106.389, 0.00600611, NaN, NaN, NaN, 0.0347922, "- N/A -   "
3.51, 106.625, 0.006019998, NaN, NaN, NaN, 0.03601294, "- N/A -   "
3.52, 106.86, 0.006033882, NaN, NaN, NaN, 0.0372337, "- N/A -   "
3.53, 107.0963, 0.00604777, NaN, NaN, NaN, 0.0396753, "- N/A -   "
3.54, 107.45, 0.006064426, NaN, NaN, NaN, 0.04089605, "- N/A -   "
3.55, 107.804, 0.00607831, NaN, NaN, NaN, 0.04089605, "- N/A -   "
3.56, 108.04, 0.00609219, NaN, NaN, NaN, 0.04211683, "- N/A -   "
3.57, 108.394, 0.00610608, NaN, NaN, NaN, 0.0433376, "- N/A -   "
3.58, 108.63, 0.00612274, NaN, NaN, NaN, 0.0433376, "- N/A -   "
3.59, 108.983, 0.006136622, NaN, NaN, NaN, 0.0445584, "- N/A -   "
3.6, 109.219, 0.00615328, NaN, NaN, NaN, 0.0445584, "- N/A -   "
3.61, 109.5732, 0.00616994, NaN, NaN, NaN, 0.0445584, "- N/A -   "
3.62, 109.927, 0.006186603, NaN, NaN, NaN, 0.0445584, "- N/A -   "
3.63, 110.281, 0.006203264, NaN, NaN, NaN, 0.04577916, "- N/A -   "
3.64, 110.635, 0.00621715, NaN, NaN, NaN, 0.04577916, "- N/A -   "
3.65, 110.989, 0.006231031, NaN, NaN, NaN, 0.04699994, "- N/A -   "
3.66, 111.224, 0.006244915, NaN, NaN, NaN, 0.0482207, "- N/A -   "
3.67, 111.696, 0.00626435, NaN, NaN, NaN, 0.04699994, "- N/A -   "
3.68, 111.932, 0.00628101, NaN, NaN, NaN, 0.04699994, "- N/A -   "
3.69, 112.286, 0.00630045, NaN, NaN, NaN, 0.04577916, "- N/A -   "
3.7, 112.758, 0.006319887, NaN, NaN, NaN, 0.0445584, "- N/A -   "
3.71, 113.112, 0.006336548, NaN, NaN, NaN, 0.0445584, "- N/A -   "
3.72, 113.583, 0.006358762, NaN, NaN, NaN, 0.0433376, "- N/A -   "
3.73, 114.055, 0.006378199, NaN, NaN, NaN, 0.04089605, "- N/A -   "
3.74, 114.527, 0.006397636, NaN, NaN, NaN, 0.0396753, "- N/A -   "
3.75, 114.881, 0.006417074, NaN, NaN, NaN, 0.0384545, "- N/A -   "
3.76, 115.235, 0.006436511, NaN, NaN, NaN, 0.0372337, "- N/A -   "
3.77, 115.706, 0.00645317, NaN, NaN, NaN, 0.0372337, "- N/A -   "
3.78, 115.942, 0.006472609, NaN, NaN, NaN, 0.03601294, "- N/A -   "
3.79, 116.414, 0.006492046, NaN, NaN, NaN, 0.0347922, "- N/A -   "
3.8, 116.768, 0.00650871, NaN, NaN, NaN, 0.0347922, "- N/A -   "
3.81, 117.004, 0.006525367, NaN, NaN, NaN, 0.0347922, "- N/A -   "
3.82, 117.476, 0.006542028, NaN, NaN, NaN, 0.0347922, "- N/A -   "
3.83, 117.712, 0.006558688, NaN, NaN, NaN, 0.0347922, "- N/A -   "
3.84, 118.065, 0.006572572, NaN, NaN, NaN, 0.03601294, "- N/A -   "
3.85, 118.301, 0.006589232, NaN, NaN, NaN, 0.03601294, "- N/A -   "
3.86, 118.7731, 0.006605893, NaN, NaN, NaN, 0.03601294, "- N/A -   "
3.87, 119.009, 0.00662255, NaN, NaN, NaN, 0.03601294, "- N/A -   "
3.88, 119.363, 0.006639214, NaN, NaN, NaN, 0.03601294, "- N/A -   "
3.89, 119.717, 0.006658651, NaN, NaN, NaN, 0.0347922, "- N/A -   "
3.9, 120.188, 0.006675312, NaN, NaN, NaN, 0.0347922, "- N/A -   "
3.909, 120.542, 0.006694749, NaN, NaN, NaN, 0.0335714, "- N/A -   "
3.92, 120.896, 0.006714186, NaN, NaN, NaN, 0.0323506, "- N/A -   "
3.929, 121.368, 0.00673362, NaN, NaN, NaN, 0.03112983, "- N/A -   "
3.94, 121.722, 0.006750284, NaN, NaN, NaN, 0.03112983, "- N/A -   "
3.949, 122.076, 0.006766944, NaN, NaN, NaN, 0.03112983, "- N/A -   "
3.96, 122.429, 0.006783605, NaN, NaN, NaN, 0.03112983, "- N/A -   "
3.969, 122.665, 0.00680027, NaN, NaN, NaN, 0.03112983, "- N/A -   "
3.98, 123.019, 0.006816926, NaN, NaN, NaN, 0.03112983, "- N/A -   "
3.989, 123.373, 0.006836363, NaN, NaN, NaN, 0.0299091, "- N/A -   "
4, 123.845, 0.0068558, NaN, NaN, NaN, 0.0286883, "- N/A -   "
4.01, 124.317, 0.006875238, NaN, NaN, NaN, 0.0274675, "- N/A -   "
4.02, 124.67, 0.0068919, NaN, NaN, NaN, 0.0286883, "- N/A -   "
4.03, 124.906, 0.006905782, NaN, NaN, NaN, 0.0286883, "- N/A -   "
4.04, 125.26, 0.00692244, NaN, NaN, NaN, 0.0286883, "- N/A -   "
4.05, 125.496, 0.006936326, NaN, NaN, NaN, 0.0299091, "- N/A -   "
4.06, 125.732, 0.00695021, NaN, NaN, NaN, 0.03112983, "- N/A -   "
4.07, 126.204, 0.00696687, NaN, NaN, NaN, 0.03112983, "- N/A -   "
4.08, 126.322, 0.00698075, NaN, NaN, NaN, 0.0323506, "- N/A -   "
4.09, 126.676, 0.006994638, NaN, NaN, NaN, 0.0335714, "- N/A -   "
4.1, 127.029, 0.00700852, NaN, NaN, NaN, 0.0347922, "- N/A -   "
4.11, 127.265, 0.00702518, NaN, NaN, NaN, 0.0347922, "- N/A -   "
4.12, 127.501, 0.00703907, NaN, NaN, NaN, 0.03601294, "- N/A -   "
4.13, 127.855, 0.00705295, NaN, NaN, NaN, 0.0372337, "- N/A -   "
4.14, 128.091, 0.00706683, NaN, NaN, NaN, 0.0384545, "- N/A -   "
4.15, 128.327, 0.00708072, NaN, NaN, NaN, 0.0396753, "- N/A -   "
4.16, 128.799, 0.00709738, NaN, NaN, NaN, 0.0396753, "- N/A -   "
4.17, 128.917, 0.00711126, NaN, NaN, NaN, 0.04089605, "- N/A -   "
4.18, 129.27, 0.00712792, NaN, NaN, NaN, 0.04089605, "- N/A -   "
4.19, 129.624, 0.00714458, NaN, NaN, NaN, 0.04089605, "- N/A -   "
4.2, 129.978, 0.00716124, NaN, NaN, NaN, 0.04089605, "- N/A -   "
4.21, 130.214, 0.007175127, NaN, NaN, NaN, 0.04211683, "- N/A -   "
4.22, 130.4499, 0.00718901, NaN, NaN, NaN, 0.0433376, "- N/A -   "
4.23, 130.804, 0.00720289, NaN, NaN, NaN, 0.0445584, "- N/A -   "
4.24, 131.1576, 0.00721956, NaN, NaN, NaN, 0.0445584, "- N/A -   "
4.25, 131.511, 0.00723344, NaN, NaN, NaN, 0.04577916, "- N/A -   "
4.26, 131.865, 0.007252876, NaN, NaN, NaN, 0.0445584, "- N/A -   "
4.27, 132.101, 0.00726954, NaN, NaN, NaN, 0.0445584, "- N/A -   "
4.28, 132.573, 0.0072862, NaN, NaN, NaN, 0.0445584, "- N/A -   "
4.29, 132.809, 0.00730563, NaN, NaN, NaN, 0.0433376, "- N/A -   "
4.3, 133.281, 0.00732229, NaN, NaN, NaN, 0.0433376, "- N/A -   "
4.31, 133.517, 0.00733896, NaN, NaN, NaN, 0.0445584, "- N/A -   "
4.32, 133.87, 0.007352839, NaN, NaN, NaN, 0.0445584, "- N/A -   "
4.33, 134.224, 0.007366723, NaN, NaN, NaN, 0.04577916, "- N/A -   "
4.34, 134.342, 0.00738338, NaN, NaN, NaN, 0.04577916, "- N/A -   "
4.35, 134.814, 0.007400044, NaN, NaN, NaN, 0.04577916, "- N/A -   "
4.36, 135.1678, 0.00741948, NaN, NaN, NaN, 0.0445584, "- N/A -   "
4.37, 135.64, 0.007436142, NaN, NaN, NaN, 0.0445584, "- N/A -   "
4.38, 135.875, 0.0074528, NaN, NaN, NaN, 0.0445584, "- N/A -   "
4.39, 136.229, 0.00747224, NaN, NaN, NaN, 0.0445584, "- N/A -   "
4.4, 136.583, 0.00749168, NaN, NaN, NaN, 0.0433376, "- N/A -   "
4.41, 137.055, 0.00750834, NaN, NaN, NaN, 0.04211683, "- N/A -   "
4.42, 137.4088, 0.00752777, NaN, NaN, NaN, 0.04089605, "- N/A -   "
4.43, 137.8806, 0.007547212, NaN, NaN, NaN, 0.0396753, "- N/A -   "
4.44, 138.234, 0.00756387, NaN, NaN, NaN, 0.0396753, "- N/A -   "
4.45, 138.588, 0.00758331, NaN, NaN, NaN, 0.0384545, "- N/A -   "
4.46, 138.942, 0.00760275, NaN, NaN, NaN, 0.0372337, "- N/A -   "
4.47, 139.296, 0.00762218, NaN, NaN, NaN, 0.03601294, "- N/A -   "
4.48, 139.8857, 0.00764162, NaN, NaN, NaN, 0.0347922, "- N/A -   "
4.49, 140.24, 0.007663836, NaN, NaN, NaN, 0.0323506, "- N/A -   "
4.5, 140.593, 0.00768327, NaN, NaN, NaN, 0.03112983, "- N/A -   "
4.51, 141.065, 0.00770271, NaN, NaN, NaN, 0.0299091, "- N/A -   "
4.52, 141.301, 0.00771937, NaN, NaN, NaN, 0.0299091, "- N/A -   "
4.53, 141.773, 0.007736031, NaN, NaN, NaN, 0.0299091, "- N/A -   "
4.54, 141.891, 0.00775269, NaN, NaN, NaN, 0.0299091, "- N/A -   "
4.55, 142.3626, 0.007769352, NaN, NaN, NaN, 0.0299091, "- N/A -   "
4.56, 142.5985, 0.00778601, NaN, NaN, NaN, 0.0299091, "- N/A -   "
4.57, 142.952, 0.00780267, NaN, NaN, NaN, 0.0299091, "- N/A -   "
4.58, 143.188, 0.007819334, NaN, NaN, NaN, 0.0299091, "- N/A -   "
4.59, 143.66, 0.007838771, NaN, NaN, NaN, 0.0286883, "- N/A -   "
4.6, 144.014, 0.007855431, NaN, NaN, NaN, 0.0286883, "- N/A -   "
4.61, 144.368, 0.007872092, NaN, NaN, NaN, 0.0286883, "- N/A -   "
4.62, 144.722, 0.007888752, NaN, NaN, NaN, 0.0286883, "- N/A -   "
4.63, 144.8395, 0.007902636, NaN, NaN, NaN, 0.0299091, "- N/A -   "
4.64, 145.311, 0.007919297, NaN, NaN, NaN, 0.0299091, "- N/A -   "
4.65, 145.429, 0.00793318, NaN, NaN, NaN, 0.03112983, "- N/A -   "
4.66, 145.783, 0.007949841, NaN, NaN, NaN, 0.03112983, "- N/A -   "
4.67, 146.019, 0.007966501, NaN, NaN, NaN, 0.03112983, "- N/A -   "
4.68, 146.3728, 0.007980385, NaN, NaN, NaN, 0.0323506, "- N/A -   "
4.69, 146.491, 0.007994269, NaN, NaN, NaN, 0.0335714, "- N/A -   "
4.7, 146.8446, 0.008008153, NaN, NaN, NaN, 0.0347922, "- N/A -   "
4.71, 147.198, 0.008022036, NaN, NaN, NaN, 0.03601294, "- N/A -   "
4.72, 147.316, 0.008038697, NaN, NaN, NaN, 0.03601294, "- N/A -   "
4.73, 147.67, 0.008052581, NaN, NaN, NaN, 0.0372337, "- N/A -   "
4.74, 147.906, 0.008069241, NaN, NaN, NaN, 0.0372337, "- N/A -   "
4.75, 148.378, 0.008085902, NaN, NaN, NaN, 0.0372337, "- N/A -   "
4.76, 148.732, 0.008105339, NaN, NaN, NaN, 0.03601294, "- N/A -   "
4.77, 148.8497, 0.008121999, NaN, NaN, NaN, 0.03601294, "- N/A -   "
4.78, 149.204, 0.00813866, NaN, NaN, NaN, 0.03601294, "- N/A -   "
4.79, 149.557, 0.00815532, NaN, NaN, NaN, 0.03601294, "- N/A -   "
4.8, 149.911, 0.008171981, NaN, NaN, NaN, 0.03601294, "- N/A -   "
4.81, 150.265, 0.008188642, NaN, NaN, NaN, 0.03601294, "- N/A -   "
4.82, 150.619, 0.008205302, NaN, NaN, NaN, 0.03601294, "- N/A -   "
4.83, 150.855, 0.00822196, NaN, NaN, NaN, 0.03601294, "- N/A -   "
4.84, 151.091, 0.008238623, NaN, NaN, NaN, 0.03601294, "- N/A -   "
4.85, 151.445, 0.008255283, NaN, NaN, NaN, 0.03601294, "- N/A -   "
4.86, 151.68, 0.008271944, NaN, NaN, NaN, 0.03601294, "- N/A -   "
4.87, 152.152, 0.008288604, NaN, NaN, NaN, 0.03601294, "- N/A -   "
4.88, 152.27, 0.008302488, NaN, NaN, NaN, 0.0372337, "- N/A -   "
4.89, 152.506, 0.008313595, NaN, NaN, NaN, 0.0396753, "- N/A -   "
4.9, 152.624, 0.00832748, NaN, NaN, NaN, 0.04089605, "- N/A -   "
4.91, 152.86, 0.008341363, NaN, NaN, NaN, 0.04211683, "- N/A -   "
4.92, 153.096, 0.008355246, NaN, NaN, NaN, 0.0433376, "- N/A -   "
4.93, 153.45, 0.00836913, NaN, NaN, NaN, 0.0445584, "- N/A -   "
4.94, 153.8035, 0.008385791, NaN, NaN, NaN, 0.0445584, "- N/A -   "
4.95, 154.0394, 0.008402451, NaN, NaN, NaN, 0.0445584, "- N/A -   "
4.96, 154.511, 0.008421889, NaN, NaN, NaN, 0.0433376, "- N/A -   "
4.97, 154.747, 0.008441326, NaN, NaN, NaN, 0.04211683, "- N/A -   "
4.98, 155.101, 0.008457987, NaN, NaN, NaN, 0.04211683, "- N/A -   "
4.99, 155.337, 0.008474647, NaN, NaN, NaN, 0.04211683, "- N/A -   "
5, 155.691, 0.00849131, NaN, NaN, NaN, 0.04211683, "- N/A -   "
5.01, 156.0445, 0.008505192, NaN, NaN, NaN, 0.0433376, "- N/A -   "
5.02, 156.2804, 0.008521851, NaN, NaN, NaN, 0.0433376, "- N/A -   "
5.03, 156.634, 0.00853851, NaN, NaN, NaN, 0.0433376, "- N/A -   "
5.04, 156.988, 0.008555172, NaN, NaN, NaN, 0.0433376, "- N/A -   "
5.05, 157.224, 0.008574611, NaN, NaN, NaN, 0.04211683, "- N/A -   "
5.06, 157.578, 0.00859127, NaN, NaN, NaN, 0.04211683, "- N/A -   "
5.07, 157.814, 0.008610708, NaN, NaN, NaN, 0.04089605, "- N/A -   "
5.08, 158.2855, 0.008627368, NaN, NaN, NaN, 0.04089605, "- N/A -   "
5.09, 158.639, 0.008646806, NaN, NaN, NaN, 0.0396753, "- N/A -   "
5.1, 158.9932, 0.00866624, NaN, NaN, NaN, 0.0384545, "- N/A -   "
5.11, 159.229, 0.00868568, NaN, NaN, NaN, 0.0372337, "- N/A -   "
5.12, 159.701, 0.008705118, NaN, NaN, NaN, 0.03601294, "- N/A -   "
5.13, 159.937, 0.008721777, NaN, NaN, NaN, 0.03601294, "- N/A -   "
5.14, 160.2906, 0.008741215, NaN, NaN, NaN, 0.0347922, "- N/A -   "
5.15, 160.644, 0.00876065, NaN, NaN, NaN, 0.0335714, "- N/A -   "
5.16, 160.998, 0.008780089, NaN, NaN, NaN, 0.0335714, "- N/A -   "
5.17, 161.352, 0.008799527, NaN, NaN, NaN, 0.03112983, "- N/A -   "
5.18, 161.706, 0.00881896, NaN, NaN, NaN, 0.0299091, "- N/A -   "
5.19, 162.06, 0.008835625, NaN, NaN, NaN, 0.0299091, "- N/A -   "
5.2, 162.296, 0.008852285, NaN, NaN, NaN, 0.0299091, "- N/A -   "
5.21, 162.65, 0.008868946, NaN, NaN, NaN, 0.0299091, "- N/A -   "
5.22, 162.768, 0.00888283, NaN, NaN, NaN, 0.03112983, "- N/A -   "
5.23, 163.0034, 0.008896713, NaN, NaN, NaN, 0.0323506, "- N/A -   "
5.24, 163.357, 0.008913374, NaN, NaN, NaN, 0.0323506, "- N/A -   "
5.25, 163.475, 0.008927258, NaN, NaN, NaN, 0.0335714, "- N/A -   "
5.26, 163.711, 0.008941141, NaN, NaN, NaN, 0.0347922, "- N/A -   "
5.27, 164.065, 0.008957801, NaN, NaN, NaN, 0.0347922, "- N/A -   "
5.28, 164.301, 0.008971686, NaN, NaN, NaN, 0.03601294, "- N/A -   "
5.29, 164.537, 0.00898557, NaN, NaN, NaN, 0.0372337, "- N/A -   "
5.3, 164.773, 0.009002229, NaN, NaN, NaN, 0.0372337, "- N/A -   "
5.31, 165.126, 0.009018891, NaN, NaN, NaN, 0.0372337, "- N/A -   "
5.32, 165.4803, 0.009035551, NaN, NaN, NaN, 0.0372337, "- N/A -   "
5.33, 165.7162, 0.009052211, NaN, NaN, NaN, 0.0372337, "- N/A -   "
5.34, 166.07, 0.009068872, NaN, NaN, NaN, 0.0372337, "- N/A -   "
5.35, 166.424, 0.009088309, NaN, NaN, NaN, 0.03601294, "- N/A -   "
5.36, 166.778, 0.009107746, NaN, NaN, NaN, 0.0347922, "- N/A -   "
5.37, 167.132, 0.009127184, NaN, NaN, NaN, 0.0335714, "- N/A -   "
5.38, 167.367, 0.009143844, NaN, NaN, NaN, 0.0335714, "- N/A -   "
5.39, 167.7213, 0.009163282, NaN, NaN, NaN, 0.0323506, "- N/A -   "
5.4, 168.075, 0.009179941, NaN, NaN, NaN, 0.0323506, "- N/A -   "
5.41, 168.311, 0.009196603, NaN, NaN, NaN, 0.0323506, "- N/A -   "
5.42, 168.665, 0.009213263, NaN, NaN, NaN, 0.0323506, "- N/A -   "
5.43, 168.901, 0.009229924, NaN, NaN, NaN, 0.0323506, "- N/A -   "
5.44, 169.255, 0.00924936, NaN, NaN, NaN, 0.0323506, "- N/A -   "
5.45, 169.608, 0.009263244, NaN, NaN, NaN, 0.0323506, "- N/A -   "
5.46, 169.962, 0.009279905, NaN, NaN, NaN, 0.0323506, "- N/A -   "
5.47, 170.1982, 0.009296565, NaN, NaN, NaN, 0.0323506, "- N/A -   "
5.48, 170.4341, 0.009310449, NaN, NaN, NaN, 0.0335714, "- N/A -   "
5.49, 170.67, 0.009324333, NaN, NaN, NaN, 0.0347922, "- N/A -   "
5.5, 170.788, 0.009338217, NaN, NaN, NaN, 0.03601294, "- N/A -   "
5.51, 171.142, 0.009354877, NaN, NaN, NaN, 0.03601294, "- N/A -   "
5.52, 171.378, 0.00936876, NaN, NaN, NaN, 0.0372337, "- N/A -   "
5.53, 171.732, 0.009385422, NaN, NaN, NaN, 0.0372337, "- N/A -   "
5.54, 171.9674, 0.009402082, NaN, NaN, NaN, 0.0384545, "- N/A -   "
5.55, 172.203, 0.00941597, NaN, NaN, NaN, 0.0396753, "- N/A -   "
5.56, 172.4392, 0.00942985, NaN, NaN, NaN, 0.04089605, "- N/A -   "
5.57, 172.6751, 0.009443733, NaN, NaN, NaN, 0.04089605, "- N/A -   "
5.58, 173.029, 0.009457617, NaN, NaN, NaN, 0.04211683, "- N/A -   "
5.59, 173.265, 0.00947428, NaN, NaN, NaN, 0.04211683, "- N/A -   "
5.6, 173.501, 0.009490938, NaN, NaN, NaN, 0.04211683, "- N/A -   "
5.61, 173.973, 0.009507598, NaN, NaN, NaN, 0.04211683, "- N/A -   "
5.62, 174.208, 0.009527036, NaN, NaN, NaN, 0.04089605, "- N/A -   "
5.63, 174.562, 0.009543696, NaN, NaN, NaN, 0.04089605, "- N/A -   "
5.64, 174.9161, 0.009560356, NaN, NaN, NaN, 0.04089605, "- N/A -   "
5.65, 175.27, 0.00957979, NaN, NaN, NaN, 0.0396753, "- N/A -   "
5.66, 175.506, 0.009596454, NaN, NaN, NaN, 0.0396753, "- N/A -   "
5.67, 175.86, 0.009613115, NaN, NaN, NaN, 0.0396753, "- N/A -   "
5.68, 176.214, 0.009629776, NaN, NaN, NaN, 0.0396753, "- N/A -   "
5.69, 176.449, 0.009646436, NaN, NaN, NaN, 0.0396753, "- N/A -   "
5.7, 176.803, 0.009663097, NaN, NaN, NaN, 0.0396753, "- N/A -   "
5.71, 177.1571, 0.009682534, NaN, NaN, NaN, 0.0396753, "- N/A -   "
5.72, 177.275, 0.00969642, NaN, NaN, NaN, 0.0396753, "- N/A -   "
5.73, 177.629, 0.009715854, NaN, NaN, NaN, 0.0384545, "- N/A -   "
5.74, 177.983, 0.009732516, NaN, NaN, NaN, 0.0396753, "- N/A -   "
5.75, 178.219, 0.009749176, NaN, NaN, NaN, 0.0384545, "- N/A -   "
5.76, 178.572, 0.009765836, NaN, NaN, NaN, 0.0384545, "- N/A -   "
5.77, 178.808, 0.009785274, NaN, NaN, NaN, 0.0372337, "- N/A -   "
5.78, 179.162, 0.00980193, NaN, NaN, NaN, 0.0372337, "- N/A -   "
5.79, 179.3981, 0.009818594, NaN, NaN, NaN, 0.0372337, "- N/A -   "
5.8, 179.752, 0.009835255, NaN, NaN, NaN, 0.0372337, "- N/A -   "
5.81, 180.106, 0.009851916, NaN, NaN, NaN, 0.0372337, "- N/A -   "
5.82, 180.46, 0.009871352, NaN, NaN, NaN, 0.03601294, "- N/A -   "
5.83, 180.696, 0.009888014, NaN, NaN, NaN, 0.03601294, "- N/A -   "
5.84, 181.167, 0.00990745, NaN, NaN, NaN, 0.03601294, "- N/A -   "
5.85, 181.403, 0.009924112, NaN, NaN, NaN, 0.0347922, "- N/A -   "
5.86, 181.639, 0.009940772, NaN, NaN, NaN, 0.0347922, "- N/A -   "
5.87, 181.875, 0.009954656, NaN, NaN, NaN, 0.03601294, "- N/A -   "
5.88, 182.1109, 0.00996854, NaN, NaN, NaN, 0.0372337, "- N/A -   "
5.89, 182.465, 0.0099852, NaN, NaN, NaN, 0.0372337, "- N/A -   "
5.9, 182.819, 0.0100019, NaN, NaN, NaN, 0.0372337, "- N/A -   "
5.91, 183.054, 0.0100213, NaN, NaN, NaN, 0.03601294, "- N/A -   "
5.92, 183.408, 0.0100407, NaN, NaN, NaN, 0.0347922, "- N/A -   "
5.93, 183.762, 0.0100574, NaN, NaN, NaN, 0.0347922, "- N/A -   "
5.94, 184.234, 0.01007961, NaN, NaN, NaN, 0.0335714, "- N/A -   "
5.95, 184.5878, 0.0100963, NaN, NaN, NaN, 0.0323506, "- N/A -   "
[...]
15.54, 519.651, 0.0260765, NaN, NaN, NaN, 0.0347922, "- N/A -   "
15.57, 520.7151, 0.02612368, NaN, NaN, NaN, 0.0347922, "- N/A -   "
15.6, 522.0162, 0.0261737, NaN, NaN, NaN, 0.0347922, "- N/A -   "
15.63, 523.4356, 0.0262292, NaN, NaN, NaN, 0.0323506, "- N/A -   "
15.66, 524.6184, 0.0262847, NaN, NaN, NaN, 0.03112983, "- N/A -   "
15.69, 525.8012, 0.0263292, NaN, NaN, NaN, 0.0323506, "- N/A -   "
15.72, 526.8657, 0.0263764, NaN, NaN, NaN, 0.0335714, "- N/A -   "
15.75, 528.0485, 0.0264236, NaN, NaN, NaN, 0.0347922, "- N/A -   "
15.78, 529.1131, 0.0264652, NaN, NaN, NaN, 0.0384545, "- N/A -   "
15.81, 530.0593, 0.02650965, NaN, NaN, NaN, 0.04089605, "- N/A -   "
15.84, 531.124, 0.0265569, NaN, NaN, NaN, 0.0433376, "- N/A -   "
15.87, 532.4249, 0.02660406, NaN, NaN, NaN, 0.0433376, "- N/A -   "
15.9, 533.726, 0.0266568, NaN, NaN, NaN, 0.04211683, "- N/A -   "
15.929, 534.9088, 0.0267096, NaN, NaN, NaN, 0.04089605, "- N/A -   "
15.96, 536.2099, 0.0267623, NaN, NaN, NaN, 0.0396753, "- N/A -   "
15.99, 537.511, 0.0268123, NaN, NaN, NaN, 0.0396753, "- N/A -   "
16.02, 538.8121, 0.0268679, NaN, NaN, NaN, 0.0384545, "- N/A -   "
16.05, 539.9949, 0.0269178, NaN, NaN, NaN, 0.0372337, "- N/A -   "
16.08, 541.414, 0.0269706, NaN, NaN, NaN, 0.03601294, "- N/A -   "
16.11, 542.715, 0.0270261, NaN, NaN, NaN, 0.0335714, "- N/A -   "
16.14, 543.8982, 0.0270761, NaN, NaN, NaN, 0.0335714, "- N/A -   "
16.169, 545.1993, 0.02712609, NaN, NaN, NaN, 0.0335714, "- N/A -   "
16.2, 546.3821, 0.0271761, NaN, NaN, NaN, 0.0335714, "- N/A -   "
16.23, 547.5649, 0.0272261, NaN, NaN, NaN, 0.0335714, "- N/A -   "
16.259, 548.866, 0.027276, NaN, NaN, NaN, 0.0335714, "- N/A -   "
16.29, 550.049, 0.0273288, NaN, NaN, NaN, 0.0323506, "- N/A -   "
16.32, 551.232, 0.027376, NaN, NaN, NaN, 0.0335714, "- N/A -   "
16.35, 552.4144, 0.027426, NaN, NaN, NaN, 0.0335714, "- N/A -   "
16.38, 553.5972, 0.0274732, NaN, NaN, NaN, 0.0347922, "- N/A -   "
16.41, 554.8983, 0.0275259, NaN, NaN, NaN, 0.0335714, "- N/A -   "
16.44, 556.0811, 0.0275731, NaN, NaN, NaN, 0.0347922, "- N/A -   "
16.47, 557.1456, 0.0276204, NaN, NaN, NaN, 0.03601294, "- N/A -   "
16.5, 558.3284, 0.0276676, NaN, NaN, NaN, 0.0372337, "- N/A -   "
16.53, 559.5112, 0.0277175, NaN, NaN, NaN, 0.0372337, "- N/A -   "
16.56, 560.8123, 0.0277647, NaN, NaN, NaN, 0.0384545, "- N/A -   "
16.59, 561.9951, 0.0278147, NaN, NaN, NaN, 0.0384545, "- N/A -   "
16.62, 563.0597, 0.0278592, NaN, NaN, NaN, 0.04089605, "- N/A -   "
16.65, 564.2425, 0.02790358, NaN, NaN, NaN, 0.0433376, "- N/A -   "
16.68, 565.4253, 0.02795356, NaN, NaN, NaN, 0.0445584, "- N/A -   "
16.71, 566.7264, 0.0280063, NaN, NaN, NaN, 0.04211683, "- N/A -   "
16.74, 568.146, 0.02806463, NaN, NaN, NaN, 0.0384545, "- N/A -   "
16.77, 569.565, 0.0281202, NaN, NaN, NaN, 0.03601294, "- N/A -   "
16.8, 570.9845, 0.0281757, NaN, NaN, NaN, 0.0335714, "- N/A -   "
16.83, 572.167, 0.0282257, NaN, NaN, NaN, 0.0335714, "- N/A -   "
16.86, 573.3501, 0.0282729, NaN, NaN, NaN, 0.0347922, "- N/A -   "
16.89, 574.6512, 0.0283256, NaN, NaN, NaN, 0.0335714, "- N/A -   "
16.92, 575.834, 0.0283756, NaN, NaN, NaN, 0.0335714, "- N/A -   "
16.95, 577.253, 0.0284284, NaN, NaN, NaN, 0.0323506, "- N/A -   "
16.98, 578.6727, 0.0284867, NaN, NaN, NaN, 0.0299091, "- N/A -   "
17.01, 580.092, 0.0285395, NaN, NaN, NaN, 0.0274675, "- N/A -   "
17.04, 581.1567, 0.0285894, NaN, NaN, NaN, 0.0274675, "- N/A -   "
17.07, 582.4577, 0.0286366, NaN, NaN, NaN, 0.0286883, "- N/A -   "
17.1, 583.5223, 0.0286838, NaN, NaN, NaN, 0.0299091, "- N/A -   "
17.13, 584.7051, 0.0287311, NaN, NaN, NaN, 0.0323506, "- N/A -   "
17.16, 585.651, 0.0287727, NaN, NaN, NaN, 0.03601294, "- N/A -   "
17.19, 586.7158, 0.0288144, NaN, NaN, NaN, 0.0396753, "- N/A -   "
17.22, 587.78, 0.028856, NaN, NaN, NaN, 0.0433376, "- N/A -   "
17.25, 588.8449, 0.0289004, NaN, NaN, NaN, 0.04577916, "- N/A -   "
17.28, 590.0277, 0.0289449, NaN, NaN, NaN, 0.0482207, "- N/A -   "
17.31, 591.2105, 0.0289948, NaN, NaN, NaN, 0.0482207, "- N/A -   "
17.34, 592.6299, 0.0290504, NaN, NaN, NaN, 0.04577916, "- N/A -   "
17.37, 594.049, 0.0291087, NaN, NaN, NaN, 0.0433376, "- N/A -   "
17.4, 595.705, 0.02916978, NaN, NaN, NaN, 0.0372337, "- N/A -   "
17.43, 597.0063, 0.0292225, NaN, NaN, NaN, 0.03601294, "- N/A -   "
17.46, 598.426, 0.0292753, NaN, NaN, NaN, 0.0347922, "- N/A -   "
17.49, 599.727, 0.02933083, NaN, NaN, NaN, 0.0323506, "- N/A -   "
17.52, 601.028, 0.0293808, NaN, NaN, NaN, 0.0323506, "- N/A -   "
17.55, 602.3289, 0.02943357, NaN, NaN, NaN, 0.03112983, "- N/A -   "
17.58, 603.63, 0.0294836, NaN, NaN, NaN, 0.03112983, "- N/A -   "
17.61, 604.8128, 0.0295308, NaN, NaN, NaN, 0.0323506, "- N/A -   "
17.64, 606.1139, 0.0295835, NaN, NaN, NaN, 0.0323506, "- N/A -   "
17.67, 607.2967, 0.0296335, NaN, NaN, NaN, 0.03112983, "- N/A -   "
17.7, 608.716, 0.0296863, NaN, NaN, NaN, 0.0299091, "- N/A -   "
17.73, 609.781, 0.0297335, NaN, NaN, NaN, 0.03112983, "- N/A -   "
17.76, 610.9634, 0.0297779, NaN, NaN, NaN, 0.0335714, "- N/A -   "
17.79, 611.91, 0.0298195, NaN, NaN, NaN, 0.0372337, "- N/A -   "
17.82, 612.9742, 0.0298612, NaN, NaN, NaN, 0.04089605, "- N/A -   "
17.85, 614.039, 0.02990562, NaN, NaN, NaN, 0.0445584, "- N/A -   "
17.88, 615.1033, 0.02995, NaN, NaN, NaN, 0.04577916, "- N/A -   "
17.91, 616.4043, 0.03, NaN, NaN, NaN, 0.04577916, "- N/A -   "
17.94, 617.8237, 0.0300556, NaN, NaN, NaN, 0.0445584, "- N/A -   "
17.97, 619.125, 0.0301055, NaN, NaN, NaN, 0.0433376, "- N/A -   "
18, 620.4259, 0.0301583, NaN, NaN, NaN, 0.04211683, "- N/A -   "
18.03, 621.7269, 0.03021106, NaN, NaN, NaN, 0.04211683, "- N/A -   "
18.06, 623.0281, 0.030261, NaN, NaN, NaN, 0.04089605, "- N/A -   "
18.09, 624.447, 0.0303138, NaN, NaN, NaN, 0.0396753, "- N/A -   "
18.12, 625.749, 0.0303666, NaN, NaN, NaN, 0.0384545, "- N/A -   "
18.15, 627.523, 0.0304276, NaN, NaN, NaN, 0.0335714, "- N/A -   "
18.18, 629.06, 0.0304887, NaN, NaN, NaN, 0.0286883, "- N/A -   "
18.21, 630.3615, 0.0305443, NaN, NaN, NaN, 0.0262467, "- N/A -   "
18.24, 631.663, 0.0305943, NaN, NaN, NaN, 0.0262467, "- N/A -   "
18.27, 632.7271, 0.03063868, NaN, NaN, NaN, 0.0286883, "- N/A -   "
18.3, 633.673, 0.0306803, NaN, NaN, NaN, 0.0323506, "- N/A -   "
18.33, 634.8562, 0.0307275, NaN, NaN, NaN, 0.0335714, "- N/A -   "
18.36, 636.3938, 0.0307803, NaN, NaN, NaN, 0.0323506, "- N/A -   "
18.39, 637.577, 0.0308303, NaN, NaN, NaN, 0.0323506, "- N/A -   "
18.42, 638.7594, 0.0308719, NaN, NaN, NaN, 0.03601294, "- N/A -   "
18.45, 640.061, 0.0309219, NaN, NaN, NaN, 0.03601294, "- N/A -   "
18.48, 641.125, 0.0309663, NaN, NaN, NaN, 0.0384545, "- N/A -   "
18.51, 642.3078, 0.03101354, NaN, NaN, NaN, 0.0396753, "- N/A -   "
18.54, 643.491, 0.0310607, NaN, NaN, NaN, 0.04089605, "- N/A -   "
18.57, 644.5552, 0.0311052, NaN, NaN, NaN, 0.0433376, "- N/A -   "
18.6, 645.738, 0.0311524, NaN, NaN, NaN, 0.0445584, "- N/A -   "
18.63, 646.9208, 0.0311968, NaN, NaN, NaN, 0.04699994, "- N/A -   "
18.66, 648.104, 0.031244, NaN, NaN, NaN, 0.0482207, "- N/A -   "
18.69, 649.523, 0.03129677, NaN, NaN, NaN, 0.04699994, "- N/A -   "
18.72, 651.061, 0.0313551, NaN, NaN, NaN, 0.0433376, "- N/A -   "
18.75, 652.717, 0.03141617, NaN, NaN, NaN, 0.0384545, "- N/A -   "
18.78, 654.2542, 0.0314745, NaN, NaN, NaN, 0.0347922, "- N/A -   "
18.81, 655.7919, 0.0315328, NaN, NaN, NaN, 0.0323506, "- N/A -   "
18.84, 657.329, 0.0315911, NaN, NaN, NaN, 0.0274675, "- N/A -   "
18.87, 658.394, 0.0316355, NaN, NaN, NaN, 0.0299091, "- N/A -   "
18.9, 659.459, 0.03168274, NaN, NaN, NaN, 0.03112983, "- N/A -   "
18.93, 660.5231, 0.03172717, NaN, NaN, NaN, 0.0335714, "- N/A -   "
18.96, 661.706, 0.0317716, NaN, NaN, NaN, 0.03601294, "- N/A -   "
18.99, 662.7704, 0.031816, NaN, NaN, NaN, 0.0384545, "- N/A -   "
19.02, 664.1898, 0.0318688, NaN, NaN, NaN, 0.0372337, "- N/A -   "
19.05, 665.7274, 0.0319271, NaN, NaN, NaN, 0.0335714, "- N/A -   "
19.08, 667.029, 0.03197985, NaN, NaN, NaN, 0.0323506, "- N/A -   "
19.11, 668.4479, 0.03203261, NaN, NaN, NaN, 0.03112983, "- N/A -   "
19.14, 669.631, 0.032077, NaN, NaN, NaN, 0.0335714, "- N/A -   "
19.17, 670.695, 0.03211869, NaN, NaN, NaN, 0.0372337, "- N/A -   "
19.2, 671.76, 0.0321631, NaN, NaN, NaN, 0.0396753, "- N/A -   "
19.23, 672.8243, 0.03220477, NaN, NaN, NaN, 0.0433376, "- N/A -   "
19.26, 674.1254, 0.0322547, NaN, NaN, NaN, 0.0433376, "- N/A -   "
19.29, 675.663, 0.0323103, NaN, NaN, NaN, 0.04089605, "- N/A -   "
19.32, 676.9642, 0.0323603, NaN, NaN, NaN, 0.04089605, "- N/A -   "
19.35, 678.2652, 0.032413, NaN, NaN, NaN, 0.0396753, "- N/A -   "
19.38, 679.566, 0.0324658, NaN, NaN, NaN, 0.0384545, "- N/A -   "
19.41, 680.8674, 0.0325158, NaN, NaN, NaN, 0.0384545, "- N/A -   "
19.44, 682.2868, 0.03256852, NaN, NaN, NaN, 0.0372337, "- N/A -   "
19.47, 683.5878, 0.03262128, NaN, NaN, NaN, 0.03601294, "- N/A -   "
19.5, 684.889, 0.03267126, NaN, NaN, NaN, 0.03601294, "- N/A -   "
19.53, 686.0717, 0.0327212, NaN, NaN, NaN, 0.03601294, "- N/A -   "
19.56, 687.373, 0.0327712, NaN, NaN, NaN, 0.03601294, "- N/A -   "
19.59, 688.91, 0.03282676, NaN, NaN, NaN, 0.0335714, "- N/A -   "
19.62, 690.4482, 0.0328823, NaN, NaN, NaN, 0.03112983, "- N/A -   "
19.65, 691.7492, 0.0329323, NaN, NaN, NaN, 0.03112983, "- N/A -   "
19.68, 693.05, 0.03298226, NaN, NaN, NaN, 0.03112983, "- N/A -   "
19.71, 694.3514, 0.0330322, NaN, NaN, NaN, 0.03112983, "- N/A -   "
19.74, 695.534, 0.03308222, NaN, NaN, NaN, 0.03112983, "- N/A -   "
19.77, 696.954, 0.0331322, NaN, NaN, NaN, 0.03112983, "- N/A -   "
19.8, 698.0181, 0.0331794, NaN, NaN, NaN, 0.0323506, "- N/A -   "
19.83, 699.5557, 0.0332322, NaN, NaN, NaN, 0.03112983, "- N/A -   "
19.86, 700.7386, 0.03328215, NaN, NaN, NaN, 0.03112983, "- N/A -   "
19.89, 701.8031, 0.0333266, NaN, NaN, NaN, 0.0335714, "- N/A -   "
19.92, 702.986, 0.0333682, NaN, NaN, NaN, 0.0372337, "- N/A -   "
19.95, 703.9321, 0.0334127, NaN, NaN, NaN, 0.0396753, "- N/A -   "
19.98, 705.1149, 0.03345708, NaN, NaN, NaN, 0.04211683, "- N/A -   "
20.01, 706.4161, 0.0335071, NaN, NaN, NaN, 0.04211683, "- N/A -   "
20.04, 707.5988, 0.03355427, NaN, NaN, NaN, 0.0433376, "- N/A -   "
20.07, 708.7817, 0.0335987, NaN, NaN, NaN, 0.04577916, "- N/A -   "
20.1, 710.083, 0.0336515, NaN, NaN, NaN, 0.0445584, "- N/A -   "
20.13, 711.502, 0.0337042, NaN, NaN, NaN, 0.0433376, "- N/A -   "
20.16, 713.1581, 0.0337653, NaN, NaN, NaN, 0.0384545, "- N/A -   "
20.19, 714.814, 0.0338236, NaN, NaN, NaN, 0.0347922, "- N/A -   "
20.22, 716.3517, 0.0338819, NaN, NaN, NaN, 0.03112983, "- N/A -   "
20.25, 717.6527, 0.0339319, NaN, NaN, NaN, 0.03112983, "- N/A -   "
20.28, 718.954, 0.03398189, NaN, NaN, NaN, 0.03112983, "- N/A -   "
20.31, 720.1366, 0.0340291, NaN, NaN, NaN, 0.0323506, "- N/A -   "
20.34, 721.319, 0.0340735, NaN, NaN, NaN, 0.0347922, "- N/A -   "
20.37, 722.502, 0.0341235, NaN, NaN, NaN, 0.0347922, "- N/A -   "
20.4, 723.922, 0.03417626, NaN, NaN, NaN, 0.0335714, "- N/A -   "
20.43, 725.5775, 0.03423735, NaN, NaN, NaN, 0.0286883, "- N/A -   "
20.46, 726.879, 0.0342873, NaN, NaN, NaN, 0.0286883, "- N/A -   "
20.49, 728.0614, 0.0343373, NaN, NaN, NaN, 0.0286883, "- N/A -   "
20.52, 729.244, 0.0343817, NaN, NaN, NaN, 0.0323506, "- N/A -   "
20.55, 730.3088, 0.0344206, NaN, NaN, NaN, 0.03601294, "- N/A -   "
20.58, 731.1367, 0.03445949, NaN, NaN, NaN, 0.04089605, "- N/A -   "
20.61, 732.2013, 0.0345011, NaN, NaN, NaN, 0.0445584, "- N/A -   "
20.64, 733.3841, 0.0345483, NaN, NaN, NaN, 0.04577916, "- N/A -   "
20.67, 734.5669, 0.03459833, NaN, NaN, NaN, 0.04577916, "- N/A -   "
20.7, 735.986, 0.03464831, NaN, NaN, NaN, 0.04577916, "- N/A -   "
20.73, 737.406, 0.03469829, NaN, NaN, NaN, 0.04577916, "- N/A -   "
20.76, 738.943, 0.0347538, NaN, NaN, NaN, 0.0433376, "- N/A -   "
20.79, 740.3627, 0.0348121, NaN, NaN, NaN, 0.0396753, "- N/A -   "
20.82, 741.9003, 0.0348677, NaN, NaN, NaN, 0.0372337, "- N/A -   "
20.85, 743.32, 0.03492043, NaN, NaN, NaN, 0.03601294, "- N/A -   "
20.88, 744.6208, 0.03497319, NaN, NaN, NaN, 0.0347922, "- N/A -   "
20.91, 746.0401, 0.03502317, NaN, NaN, NaN, 0.0347922, "- N/A -   "
20.94, 747.341, 0.03507593, NaN, NaN, NaN, 0.0335714, "- N/A -   "
20.97, 748.761, 0.0351315, NaN, NaN, NaN, 0.03112983, "- N/A -   "
21, 750.2983, 0.0351898, NaN, NaN, NaN, 0.0274675, "- N/A -   "
21.03, 751.7176, 0.0352425, NaN, NaN, NaN, 0.0262467, "- N/A -   "
21.06, 753.019, 0.03528974, NaN, NaN, NaN, 0.0274675, "- N/A -   "
21.09, 754.2015, 0.03533972, NaN, NaN, NaN, 0.0274675, "- N/A -   "
21.12, 755.6209, 0.0353897, NaN, NaN, NaN, 0.0274675, "- N/A -   "
21.15, 756.804, 0.0354369, NaN, NaN, NaN, 0.0286883, "- N/A -   "
21.18, 757.8682, 0.03547856, NaN, NaN, NaN, 0.0323506, "- N/A -   "
21.21, 758.814, 0.03552021, NaN, NaN, NaN, 0.03601294, "- N/A -   "
21.24, 759.9973, 0.03556464, NaN, NaN, NaN, 0.0384545, "- N/A -   "
21.27, 761.0618, 0.0356091, NaN, NaN, NaN, 0.04089605, "- N/A -   "
21.3, 762.363, 0.0356563, NaN, NaN, NaN, 0.04211683, "- N/A -   "
21.33, 763.7823, 0.0357035, NaN, NaN, NaN, 0.0433376, "- N/A -   "
21.36, 765.0833, 0.03575346, NaN, NaN, NaN, 0.0433376, "- N/A -   "
21.39, 766.384, 0.0358062, NaN, NaN, NaN, 0.04211683, "- N/A -   "
21.42, 767.449, 0.03585342, NaN, NaN, NaN, 0.0433376, "- N/A -   "
21.45, 768.868, 0.0359006, NaN, NaN, NaN, 0.0445584, "- N/A -   "
21.48, 770.406, 0.03595616, NaN, NaN, NaN, 0.04211683, "- N/A -   "
21.51, 771.8254, 0.0360117, NaN, NaN, NaN, 0.0396753, "- N/A -   "
21.54, 773.4813, 0.0360728, NaN, NaN, NaN, 0.0347922, "- N/A -   "
21.57, 775.0189, 0.0361311, NaN, NaN, NaN, 0.03112983, "- N/A -   "
21.6, 776.32, 0.0361811, NaN, NaN, NaN, 0.03112983, "- N/A -   "
21.63, 777.6211, 0.03623106, NaN, NaN, NaN, 0.0323506, "- N/A -   "
21.66, 779.0405, 0.036281, NaN, NaN, NaN, 0.0323506, "- N/A -   "
21.69, 780.105, 0.0363282, NaN, NaN, NaN, 0.0335714, "- N/A -   "
21.72, 781.4061, 0.03637545, NaN, NaN, NaN, 0.0347922, "- N/A -   "
21.75, 782.5889, 0.03641988, NaN, NaN, NaN, 0.0372337, "- N/A -   "
21.78, 783.7717, 0.0364671, NaN, NaN, NaN, 0.0384545, "- N/A -   "
21.81, 785.0728, 0.0365171, NaN, NaN, NaN, 0.0384545, "- N/A -   "
21.84, 786.4922, 0.0365698, NaN, NaN, NaN, 0.0372337, "- N/A -   "
21.87, 788.1481, 0.03662536, NaN, NaN, NaN, 0.0347922, "- N/A -   "
21.9, 789.331, 0.0366753, NaN, NaN, NaN, 0.0347922, "- N/A -   "
21.93, 790.395, 0.0367198, NaN, NaN, NaN, 0.0372337, "- N/A -   "
21.96, 791.5783, 0.0367642, NaN, NaN, NaN, 0.0396753, "- N/A -   "
21.99, 792.761, 0.0368058, NaN, NaN, NaN, 0.0433376, "- N/A -   "
22.02, 793.9439, 0.0368531, NaN, NaN, NaN, 0.0445584, "- N/A -   "
22.05, 795.1267, 0.0369003, NaN, NaN, NaN, 0.04577916, "- N/A -   "
22.08, 796.664, 0.036953, NaN, NaN, NaN, 0.0445584, "- N/A -   "
22.11, 798.0837, 0.0370085, NaN, NaN, NaN, 0.04211683, "- N/A -   "
22.14, 799.8579, 0.0370696, NaN, NaN, NaN, 0.0372337, "- N/A -   "
22.17, 801.396, 0.03713073, NaN, NaN, NaN, 0.0335714, "- N/A -   "
22.2, 802.815, 0.0371835, NaN, NaN, NaN, 0.03112983, "- N/A -   "
22.23, 804.234, 0.0372362, NaN, NaN, NaN, 0.0299091, "- N/A -   "
22.26, 805.5354, 0.037289, NaN, NaN, NaN, 0.0286883, "- N/A -   "
22.29, 806.7182, 0.03733343, NaN, NaN, NaN, 0.03112983, "- N/A -   "
22.32, 807.7828, 0.0373779, NaN, NaN, NaN, 0.0335714, "- N/A -   "
22.35, 808.9655, 0.0374223, NaN, NaN, NaN, 0.03601294, "- N/A -   "
22.38, 810.267, 0.03746949, NaN, NaN, NaN, 0.0372337, "- N/A -   "
22.41, 811.686, 0.03752225, NaN, NaN, NaN, 0.03601294, "- N/A -   "
22.44, 813.1054, 0.03757778, NaN, NaN, NaN, 0.0335714, "- N/A -   "
22.47, 814.643, 0.03763054, NaN, NaN, NaN, 0.0323506, "- N/A -   "
22.5, 815.9441, 0.0376833, NaN, NaN, NaN, 0.03112983, "- N/A -   "
22.53, 817.1269, 0.03772773, NaN, NaN, NaN, 0.0335714, "- N/A -   "
22.56, 818.191, 0.0377722, NaN, NaN, NaN, 0.03601294, "- N/A -   "
22.59, 819.4925, 0.03781936, NaN, NaN, NaN, 0.0372337, "- N/A -   "
22.62, 820.675, 0.0378638, NaN, NaN, NaN, 0.0396753, "- N/A -   "
22.65, 821.74, 0.0379082, NaN, NaN, NaN, 0.04211683, "- N/A -   "
22.68, 823.041, 0.0379582, NaN, NaN, NaN, 0.04211683, "- N/A -   "
22.71, 824.5786, 0.03801096, NaN, NaN, NaN, 0.04089605, "- N/A -   "
22.74, 825.7614, 0.0380637, NaN, NaN, NaN, 0.04089605, "- N/A -   "
22.77, 827.0625, 0.0381081, NaN, NaN, NaN, 0.04211683, "- N/A -   "
22.8, 828.4819, 0.0381609, NaN, NaN, NaN, 0.04089605, "- N/A -   "
22.83, 829.901, 0.03821366, NaN, NaN, NaN, 0.0396753, "- N/A -   "
22.86, 831.3206, 0.0382664, NaN, NaN, NaN, 0.0384545, "- N/A -   "
22.89, 832.74, 0.0383192, NaN, NaN, NaN, 0.0372337, "- N/A -   "
22.92, 834.0411, 0.03836916, NaN, NaN, NaN, 0.0372337, "- N/A -   "
22.95, 835.342, 0.03841914, NaN, NaN, NaN, 0.0372337, "- N/A -   "
22.98, 836.643, 0.0384691, NaN, NaN, NaN, 0.0372337, "- N/A -   "
23.01, 838.0626, 0.0385247, NaN, NaN, NaN, 0.0347922, "- N/A -   "
23.04, 839.482, 0.03857741, NaN, NaN, NaN, 0.0335714, "- N/A -   "
23.07, 840.7831, 0.0386274, NaN, NaN, NaN, 0.0335714, "- N/A -   "
23.1, 842.084, 0.0386746, NaN, NaN, NaN, 0.0347922, "- N/A -   "
23.13, 843.267, 0.0387246, NaN, NaN, NaN, 0.0347922, "- N/A -   "
23.16, 844.568, 0.0387718, NaN, NaN, NaN, 0.03601294, "- N/A -   "
23.19, 845.869, 0.0388218, NaN, NaN, NaN, 0.03601294, "- N/A -   "
23.22, 847.2885, 0.03887452, NaN, NaN, NaN, 0.03601294, "- N/A -   "
23.25, 848.5896, 0.0389245, NaN, NaN, NaN, 0.0347922, "- N/A -   "
23.28, 849.891, 0.03897726, NaN, NaN, NaN, 0.0335714, "- N/A -   "
23.31, 851.1918, 0.0390217, NaN, NaN, NaN, 0.03601294, "- N/A -   "
23.34, 852.256, 0.0390661, NaN, NaN, NaN, 0.0384545, "- N/A -   "
23.37, 853.5574, 0.0391133, NaN, NaN, NaN, 0.0396753, "- N/A -   "
23.4, 854.622, 0.0391605, NaN, NaN, NaN, 0.04211683, "- N/A -   "
23.43, 856.0413, 0.03920496, NaN, NaN, NaN, 0.0433376, "- N/A -   "
23.46, 857.2241, 0.0392522, NaN, NaN, NaN, 0.0445584, "- N/A -   "
23.49, 858.6435, 0.03930492, NaN, NaN, NaN, 0.0433376, "- N/A -   "
23.52, 860.063, 0.0393605, NaN, NaN, NaN, 0.04089605, "- N/A -   "
23.55, 861.7188, 0.03941877, NaN, NaN, NaN, 0.0372337, "- N/A -   "
23.58, 863.3747, 0.0394799, NaN, NaN, NaN, 0.0323506, "- N/A -   "
23.61, 864.7941, 0.0395354, NaN, NaN, NaN, 0.03112983, "- N/A -   "
23.64, 866.095, 0.0395826, NaN, NaN, NaN, 0.03112983, "- N/A -   "
23.67, 867.3963, 0.0396298, NaN, NaN, NaN, 0.0323506, "- N/A -   "
23.7, 868.6974, 0.0396798, NaN, NaN, NaN, 0.0323506, "- N/A -   "
23.73, 869.8802, 0.039727, NaN, NaN, NaN, 0.0335714, "- N/A -   "
23.76, 871.063, 0.0397742, NaN, NaN, NaN, 0.0347922, "- N/A -   "
23.79, 872.719, 0.0398325, NaN, NaN, NaN, 0.03112983, "- N/A -   "
23.82, 874.138, 0.03988526, NaN, NaN, NaN, 0.0299091, "- N/A -   "
23.85, 875.4394, 0.039938, NaN, NaN, NaN, 0.0286883, "- N/A -   "
23.88, 876.7405, 0.03998245, NaN, NaN, NaN, 0.03112983, "- N/A -   "
23.91, 878.042, 0.0400352, NaN, NaN, NaN, 0.0299091, "- N/A -   "
23.94, 879.1061, 0.04007963, NaN, NaN, NaN, 0.0323506, "- N/A -   "
23.97, 880.289, 0.0401241, NaN, NaN, NaN, 0.0347922, "- N/A -   "
24, 881.4717, 0.04016849, NaN, NaN, NaN, 0.0384545, "- N/A -   "
24.03, 882.4179, 0.0402046, NaN, NaN, NaN, 0.0433376, "- N/A -   "
24.06, 883.601, 0.0402518, NaN, NaN, NaN, 0.0445584, "- N/A -   "
24.09, 884.784, 0.040299, NaN, NaN, NaN, 0.04577916, "- N/A -   "
24.12, 886.085, 0.040349, NaN, NaN, NaN, 0.04577916, "- N/A -   "
24.15, 887.622, 0.04039896, NaN, NaN, NaN, 0.04577916, "- N/A -   "
24.18, 889.16, 0.04045727, NaN, NaN, NaN, 0.0433376, "- N/A -   "
24.21, 890.579, 0.0405128, NaN, NaN, NaN, 0.0396753, "- N/A -   "
24.24, 891.9987, 0.0405656, NaN, NaN, NaN, 0.0384545, "- N/A -   "
24.27, 893.5364, 0.0406239, NaN, NaN, NaN, 0.03601294, "- N/A -   "
24.3, 894.9557, 0.04067664, NaN, NaN, NaN, 0.0335714, "- N/A -   "
24.33, 896.257, 0.04072384, NaN, NaN, NaN, 0.0347922, "- N/A -   "
24.36, 897.794, 0.0407794, NaN, NaN, NaN, 0.0323506, "- N/A -   "
24.39, 899.2138, 0.04083769, NaN, NaN, NaN, 0.0286883, "- N/A -   "
24.42, 900.751, 0.04088767, NaN, NaN, NaN, 0.0286883, "- N/A -   "
24.427, 900.9881, 0.0409016, NaN, NaN, NaN, 0.0286883, "- N/A -   "