File: 2_Tensile_Data/Hamel_ForceTest_Bolt8_Test3.csv
Time, Load (lb), Position (in), AxialStrain (in), TransverseStrain (in), Auxiliary (), Control Out (V), Stress (psi)
0.0, 1.06153, 0.0, NaN, NaN, NaN, 0.100714, "- N/A -   "
0.01, 1.41537, 2.49908e-05, NaN, NaN, NaN, 0.101935, "- N/A -   "
0.02, 1.65126, 5.27583e-05, NaN, NaN, NaN, 0.0982726, "- N/A -   "
0.03, 2.005107, 7.774905E-5, NaN, NaN, NaN, 0.09338949, "- N/A -   "
0.04, 2.35895, 0.000105517, NaN, NaN, NaN, 0.08850638, "- N/A -   "
0.05, 2.59484, 0.000130507, NaN, NaN, NaN, 0.084844, "- N/A -   "
0.06, 2.94869, 1.554981E-4, NaN, NaN, NaN, 0.08118171, "- N/A -   "
0.07, 3.30253, 0.000183266, NaN, NaN, NaN, 0.0762986, "- N/A -   "
0.08, 3.65637, 0.000211033, NaN, NaN, NaN, 0.07263627, "- N/A -   "
0.09, 3.89227, 2.360239E-4, NaN, NaN, NaN, 0.0689739, "- N/A -   "
0.1, 4.246109, 0.000261015, NaN, NaN, NaN, 0.0640908, "- N/A -   "
0.11, 4.59995, 0.000288782, NaN, NaN, NaN, 0.0604285, "- N/A -   "
0.12, 4.953794, 3.109962E-4, NaN, NaN, NaN, 0.05676616, "- N/A -   "
0.13, 5.307636, 0.00033321, NaN, NaN, NaN, 0.0543246, "- N/A -   "
0.14, 5.54353, 0.000358201, NaN, NaN, NaN, 0.05188305, "- N/A -   "
0.15, 5.897373, 3.80415E-4, NaN, NaN, NaN, 0.0494415, "- N/A -   "
0.16, 6.13327, 0.000399852, NaN, NaN, NaN, 0.04699994, "- N/A -   "
0.17, 6.369163, 4.192895E-4, NaN, NaN, NaN, 0.04577916, "- N/A -   "
0.18, 6.60506, 0.00043595, NaN, NaN, NaN, 0.04577916, "- N/A -   "
0.19, 6.84095, 0.000452611, NaN, NaN, NaN, 0.04577916, "- N/A -   "
0.2, 7.07685, 4.720478E-4, NaN, NaN, NaN, 0.0445584, "- N/A -   "
0.21, 7.312743, 0.000491485, NaN, NaN, NaN, 0.0433376, "- N/A -   "
0.22, 7.666586, 5.136991E-4, NaN, NaN, NaN, 0.04211683, "- N/A -   "
0.23, 7.90248, 0.000533136, NaN, NaN, NaN, 0.0396753, "- N/A -   "
0.24, 8.138375, 5.553504E-4, NaN, NaN, NaN, 0.0384545, "- N/A -   "
0.25, 8.492218, 5.747876E-4, NaN, NaN, NaN, 0.03601294, "- N/A -   "
0.26, 8.728113, 5.942249E-4, NaN, NaN, NaN, 0.0347922, "- N/A -   "
0.27, 8.964007, 6.136621E-4, NaN, NaN, NaN, 0.0347922, "- N/A -   "
0.28, 9.31785, 0.000630323, NaN, NaN, NaN, 0.0335714, "- N/A -   "
0.29, 9.553744, 6.497599E-4, NaN, NaN, NaN, 0.0323506, "- N/A -   "
0.3, 9.78964, 6.691972E-4, NaN, NaN, NaN, 0.0323506, "- N/A -   "
0.31, 10.0255, 6.858577E-4, NaN, NaN, NaN, 0.03112983, "- N/A -   "
0.32, 10.26143, 0.000705295, NaN, NaN, NaN, 0.03112983, "- N/A -   "
0.33, 10.6153, 7.219555E-4, NaN, NaN, NaN, 0.0299091, "- N/A -   "
0.34, 10.73322, 0.000735839, NaN, NaN, NaN, 0.03112983, "- N/A -   "
0.35, 10.9691, 0.0007525, NaN, NaN, NaN, 0.03112983, "- N/A -   "
0.36, 11.205, 7.71937E-4, NaN, NaN, NaN, 0.03112983, "- N/A -   "
0.37, 11.4409, 0.000785821, NaN, NaN, NaN, 0.03112983, "- N/A -   "
0.38, 11.6768, 0.000802481, NaN, NaN, NaN, 0.0323506, "- N/A -   "
0.39, 11.7947, 8.16365E-4, NaN, NaN, NaN, 0.0323506, "- N/A -   "
0.4, 12.0306, 8.358023E-4, NaN, NaN, NaN, 0.0323506, "- N/A -   "
0.41, 12.2665, 0.000849686, NaN, NaN, NaN, 0.0323506, "- N/A -   "
0.42, 12.5024, 8.635698E-4, NaN, NaN, NaN, 0.0335714, "- N/A -   "
0.43, 12.7383, 0.00088023, NaN, NaN, NaN, 0.0347922, "- N/A -   "
0.44, 12.9742, 8.941141E-4, NaN, NaN, NaN, 0.0347922, "- N/A -   "
0.45, 13.09217, 9.107746E-4, NaN, NaN, NaN, 0.03601294, "- N/A -   "
0.46, 13.2101, 9.218816E-4, NaN, NaN, NaN, 0.0372337, "- N/A -   "
0.47, 13.3281, 0.000935765, NaN, NaN, NaN, 0.0384545, "- N/A -   "
0.48, 13.564, 0.000949649, NaN, NaN, NaN, 0.0396753, "- N/A -   "
0.49, 13.7999, 9.635329E-4, NaN, NaN, NaN, 0.04089605, "- N/A -   "
0.5, 14.0357, 9.801934E-4, NaN, NaN, NaN, 0.04089605, "- N/A -   "
0.51, 14.1537, 9.968539E-4, NaN, NaN, NaN, 0.04211683, "- N/A -   "
0.52, 14.5075, 0.00101074, NaN, NaN, NaN, 0.0433376, "- N/A -   "
0.53, 14.6255, 0.00102462, NaN, NaN, NaN, 0.0445584, "- N/A -   "
0.54, 14.8614, 0.00103851, NaN, NaN, NaN, 0.04577916, "- N/A -   "
0.55, 15.0973, 0.00105239, NaN, NaN, NaN, 0.04577916, "- N/A -   "
0.56, 15.3332, 0.00106905, NaN, NaN, NaN, 0.04577916, "- N/A -   "
0.57, 15.5691, 0.00108571, NaN, NaN, NaN, 0.04577916, "- N/A -   "
0.58, 15.9229, 0.00110515, NaN, NaN, NaN, 0.04577916, "- N/A -   "
0.59, 16.1588, 0.00112181, NaN, NaN, NaN, 0.0445584, "- N/A -   "
0.6, 16.3947, 0.001141245, NaN, NaN, NaN, 0.0433376, "- N/A -   "
0.61, 16.74854, 0.00115791, NaN, NaN, NaN, 0.0433376, "- N/A -   "
0.62, 16.86649, 0.001174566, NaN, NaN, NaN, 0.0433376, "- N/A -   "
0.63, 17.2203, 0.00119123, NaN, NaN, NaN, 0.0433376, "- N/A -   "
0.64, 17.4562, 0.00120789, NaN, NaN, NaN, 0.0445584, "- N/A -   "
0.65, 17.5742, 0.00122177, NaN, NaN, NaN, 0.0445584, "- N/A -   "
0.66, 17.928, 0.00123843, NaN, NaN, NaN, 0.0445584, "- N/A -   "
0.67, 18.16391, 0.00125509, NaN, NaN, NaN, 0.0445584, "- N/A -   "
0.68, 18.3998, 0.00127175, NaN, NaN, NaN, 0.04577916, "- N/A -   "
0.69, 18.6357, 0.00128841, NaN, NaN, NaN, 0.0445584, "- N/A -   "
0.7, 18.9895, 0.00130507, NaN, NaN, NaN, 0.0445584, "- N/A -   "
0.71, 19.2254, 0.00132173, NaN, NaN, NaN, 0.0445584, "- N/A -   "
0.72, 19.4613, 0.00134117, NaN, NaN, NaN, 0.0433376, "- N/A -   "
0.73, 19.9331, 0.00136061, NaN, NaN, NaN, 0.04211683, "- N/A -   "
0.74, 20.169, 0.00137727, NaN, NaN, NaN, 0.04211683, "- N/A -   "
0.75, 20.287, 0.00139671, NaN, NaN, NaN, 0.04211683, "- N/A -   "
0.76, 20.7588, 0.00141337, NaN, NaN, NaN, 0.04089605, "- N/A -   "
0.77, 20.99465, 0.00143558, NaN, NaN, NaN, 0.0384545, "- N/A -   "
0.78, 21.3485, 0.001455018, NaN, NaN, NaN, 0.0372337, "- N/A -   "
0.79, 21.7023, 0.001477232, NaN, NaN, NaN, 0.03601294, "- N/A -   "
0.8, 21.93823, 0.00149667, NaN, NaN, NaN, 0.0347922, "- N/A -   "
0.81, 22.29207, 0.00151611, NaN, NaN, NaN, 0.0323506, "- N/A -   "
0.82, 22.528, 0.00153554, NaN, NaN, NaN, 0.03112983, "- N/A -   "
0.83, 22.88181, 0.001554981, NaN, NaN, NaN, 0.03112983, "- N/A -   "
0.84, 23.1177, 0.00157164, NaN, NaN, NaN, 0.0299091, "- N/A -   "
0.85, 23.4715, 0.0015883, NaN, NaN, NaN, 0.0299091, "- N/A -   "
0.86, 23.82539, 0.00160774, NaN, NaN, NaN, 0.0299091, "- N/A -   "
0.87, 24.0613, 0.0016244, NaN, NaN, NaN, 0.0299091, "- N/A -   "
0.88, 24.29718, 0.00163828, NaN, NaN, NaN, 0.0299091, "- N/A -   "
0.89, 24.5331, 0.001654944, NaN, NaN, NaN, 0.0299091, "- N/A -   "
0.9, 24.769, 0.0016716, NaN, NaN, NaN, 0.0299091, "- N/A -   "
0.91, 25.1228, 0.00168827, NaN, NaN, NaN, 0.0299091, "- N/A -   "
0.92, 25.3587, 0.00170493, NaN, NaN, NaN, 0.0299091, "- N/A -   "
0.93, 25.7125, 0.00172159, NaN, NaN, NaN, 0.03112983, "- N/A -   "
0.94, 25.9484, 0.00173825, NaN, NaN, NaN, 0.03112983, "- N/A -   "
0.95, 26.3023, 0.00175213, NaN, NaN, NaN, 0.03112983, "- N/A -   "
0.96, 26.4202, 0.00176601, NaN, NaN, NaN, 0.0323506, "- N/A -   "
0.97, 26.6561, 0.00178267, NaN, NaN, NaN, 0.0323506, "- N/A -   "
0.98, 26.892, 0.00179934, NaN, NaN, NaN, 0.0323506, "- N/A -   "
0.99, 27.2459, 0.001816, NaN, NaN, NaN, 0.0335714, "- N/A -   "
1, 27.3638, 0.00182988, NaN, NaN, NaN, 0.0347922, "- N/A -   "
1.01, 27.7177, 0.00184376, NaN, NaN, NaN, 0.03601294, "- N/A -   "
1.02, 27.95355, 0.00186042, NaN, NaN, NaN, 0.0347922, "- N/A -   "
1.03, 28.3074, 0.00187708, NaN, NaN, NaN, 0.03601294, "- N/A -   "
1.04, 28.54329, 0.00189374, NaN, NaN, NaN, 0.03601294, "- N/A -   "
1.05, 28.7792, 0.00190485, NaN, NaN, NaN, 0.0372337, "- N/A -   "
1.06, 29.133, 0.00192151, NaN, NaN, NaN, 0.0372337, "- N/A -   "
1.07, 29.3689, 0.00193817, NaN, NaN, NaN, 0.0372337, "- N/A -   "
1.08, 29.6048, 0.00195483, NaN, NaN, NaN, 0.0372337, "- N/A -   "
1.09, 29.84071, 0.00197149, NaN, NaN, NaN, 0.0372337, "- N/A -   "
1.1, 30.1946, 0.00198815, NaN, NaN, NaN, 0.0372337, "- N/A -   "
1.11, 30.5484, 0.00200481, NaN, NaN, NaN, 0.0372337, "- N/A -   "
1.12, 30.78429, 0.00202148, NaN, NaN, NaN, 0.0372337, "- N/A -   "
1.13, 31.1381, 0.002038136, NaN, NaN, NaN, 0.0372337, "- N/A -   "
1.14, 31.374, 0.002057573, NaN, NaN, NaN, 0.0372337, "- N/A -   "
1.15, 31.6099, 0.00207146, NaN, NaN, NaN, 0.0372337, "- N/A -   "
1.16, 31.9638, 0.00208812, NaN, NaN, NaN, 0.0372337, "- N/A -   "
1.17, 32.08171, 0.00210478, NaN, NaN, NaN, 0.0372337, "- N/A -   "
1.18, 32.4356, 0.00211866, NaN, NaN, NaN, 0.0384545, "- N/A -   "
1.19, 32.67145, 0.00213532, NaN, NaN, NaN, 0.0396753, "- N/A -   "
1.2, 33.02529, 0.002149206, NaN, NaN, NaN, 0.04089605, "- N/A -   "
1.21, 33.2612, 0.00216309, NaN, NaN, NaN, 0.04089605, "- N/A -   "
1.22, 33.49708, 0.00217975, NaN, NaN, NaN, 0.04211683, "- N/A -   "
1.23, 33.73298, 0.002193634, NaN, NaN, NaN, 0.04211683, "- N/A -   "
1.24, 33.9689, 0.00220752, NaN, NaN, NaN, 0.0433376, "- N/A -   "
1.25, 34.2048, 0.0022214, NaN, NaN, NaN, 0.0445584, "- N/A -   "
1.26, 34.55861, 0.00223529, NaN, NaN, NaN, 0.04577916, "- N/A -   "
1.27, 34.7945, 0.00225472, NaN, NaN, NaN, 0.0445584, "- N/A -   "
1.28, 35.0304, 0.00227416, NaN, NaN, NaN, 0.0445584, "- N/A -   "
1.29, 35.3842, 0.00229082, NaN, NaN, NaN, 0.0445584, "- N/A -   "
1.3, 35.6201, 0.00230748, NaN, NaN, NaN, 0.0433376, "- N/A -   "
1.31, 35.97398, 0.002326918, NaN, NaN, NaN, 0.0433376, "- N/A -   "
1.32, 36.32782, 0.0023408, NaN, NaN, NaN, 0.0433376, "- N/A -   "
1.33, 36.5637, 0.00235746, NaN, NaN, NaN, 0.0433376, "- N/A -   "
1.34, 36.9176, 0.00237412, NaN, NaN, NaN, 0.0433376, "- N/A -   "
1.35, 37.2714, 0.00239356, NaN, NaN, NaN, 0.0433376, "- N/A -   "
1.36, 37.5073, 0.00240744, NaN, NaN, NaN, 0.0433376, "- N/A -   "
1.37, 37.8611, 0.00242688, NaN, NaN, NaN, 0.04211683, "- N/A -   "
1.38, 38.097, 0.00244354, NaN, NaN, NaN, 0.04211683, "- N/A -   "
1.39, 38.4509, 0.0024602, NaN, NaN, NaN, 0.04211683, "- N/A -   "
1.4, 38.8047, 0.00247964, NaN, NaN, NaN, 0.04089605, "- N/A -   "
1.41, 39.15856, 0.00250185, NaN, NaN, NaN, 0.0396753, "- N/A -   "
1.42, 39.5124, 0.00252129, NaN, NaN, NaN, 0.0384545, "- N/A -   "
1.43, 39.8662, 0.00254073, NaN, NaN, NaN, 0.03601294, "- N/A -   "
1.44, 40.22009, 0.00256017, NaN, NaN, NaN, 0.0347922, "- N/A -   "
1.45, 40.57393, 0.0025796, NaN, NaN, NaN, 0.0335714, "- N/A -   "
1.46, 40.9278, 0.00260182, NaN, NaN, NaN, 0.0323506, "- N/A -   "
1.47, 41.2816, 0.00262125, NaN, NaN, NaN, 0.03112983, "- N/A -   "
1.48, 41.6355, 0.002640691, NaN, NaN, NaN, 0.0299091, "- N/A -   "
1.49, 41.9893, 0.00266013, NaN, NaN, NaN, 0.0286883, "- N/A -   "
1.5, 42.2252, 0.00267679, NaN, NaN, NaN, 0.0274675, "- N/A -   "
1.51, 42.579, 0.00269345, NaN, NaN, NaN, 0.0286883, "- N/A -   "
1.52, 42.8149, 0.00270733, NaN, NaN, NaN, 0.0286883, "- N/A -   "
1.53, 43.0508, 0.00272399, NaN, NaN, NaN, 0.0299091, "- N/A -   "
1.54, 43.2867, 0.00273788, NaN, NaN, NaN, 0.0299091, "- N/A -   "
1.55, 43.6406, 0.00275176, NaN, NaN, NaN, 0.03112983, "- N/A -   "
1.56, 43.75851, 0.00276564, NaN, NaN, NaN, 0.0323506, "- N/A -   "
1.57, 44.1124, 0.00278231, NaN, NaN, NaN, 0.0335714, "- N/A -   "
1.58, 44.34825, 0.002796189, NaN, NaN, NaN, 0.0335714, "- N/A -   "
1.59, 44.58414, 0.00281285, NaN, NaN, NaN, 0.0347922, "- N/A -   "
1.6, 44.93799, 0.00282673, NaN, NaN, NaN, 0.0347922, "- N/A -   "
1.61, 45.17388, 0.002843394, NaN, NaN, NaN, 0.0347922, "- N/A -   "
1.62, 45.40978, 0.00286005, NaN, NaN, NaN, 0.03601294, "- N/A -   "
1.63, 45.76362, 0.002873938, NaN, NaN, NaN, 0.03601294, "- N/A -   "
1.64, 46.11746, 0.00289338, NaN, NaN, NaN, 0.03601294, "- N/A -   "
1.65, 46.4713, 0.002910036, NaN, NaN, NaN, 0.03601294, "- N/A -   "
1.66, 46.7072, 0.0029267, NaN, NaN, NaN, 0.03601294, "- N/A -   "
1.67, 46.9431, 0.002943357, NaN, NaN, NaN, 0.0347922, "- N/A -   "
1.68, 47.4149, 0.00296279, NaN, NaN, NaN, 0.0347922, "- N/A -   "
1.69, 47.65078, 0.00297945, NaN, NaN, NaN, 0.0347922, "- N/A -   "
1.7, 48.00462, 0.002996115, NaN, NaN, NaN, 0.0335714, "- N/A -   "
1.71, 48.3585, 0.003012776, NaN, NaN, NaN, 0.0335714, "- N/A -   "
1.72, 48.59436, 0.003032213, NaN, NaN, NaN, 0.0323506, "- N/A -   "
1.73, 48.9482, 0.00304887, NaN, NaN, NaN, 0.0323506, "- N/A -   "
1.74, 49.30204, 0.003068311, NaN, NaN, NaN, 0.0323506, "- N/A -   "
1.75, 49.41999, 0.00308219, NaN, NaN, NaN, 0.0323506, "- N/A -   "
1.76, 49.8918, 0.003101632, NaN, NaN, NaN, 0.0323506, "- N/A -   "
1.77, 50.1277, 0.00311829, NaN, NaN, NaN, 0.0323506, "- N/A -   "
1.78, 50.4815, 0.00313218, NaN, NaN, NaN, 0.0323506, "- N/A -   "
1.79, 50.7174, 0.00314884, NaN, NaN, NaN, 0.0335714, "- N/A -   "
1.8, 50.9533, 0.00316272, NaN, NaN, NaN, 0.0347922, "- N/A -   "
1.81, 51.1892, 0.0031766, NaN, NaN, NaN, 0.03601294, "- N/A -   "
1.82, 51.4251, 0.003190488, NaN, NaN, NaN, 0.0372337, "- N/A -   "
1.83, 51.7789, 0.00320437, NaN, NaN, NaN, 0.0372337, "- N/A -   "
1.84, 51.89689, 0.00321826, NaN, NaN, NaN, 0.0384545, "- N/A -   "
1.85, 52.36868, 0.00323214, NaN, NaN, NaN, 0.0396753, "- N/A -   "
1.86, 52.36868, 0.003246023, NaN, NaN, NaN, 0.04089605, "- N/A -   "
1.87, 52.84047, 0.00326546, NaN, NaN, NaN, 0.04089605, "- N/A -   "
1.88, 52.9584, 0.003279344, NaN, NaN, NaN, 0.04089605, "- N/A -   "
1.89, 53.3123, 0.003296, NaN, NaN, NaN, 0.04211683, "- N/A -   "
1.9, 53.54815, 0.003309888, NaN, NaN, NaN, 0.04211683, "- N/A -   "
1.91, 53.784, 0.003323772, NaN, NaN, NaN, 0.0433376, "- N/A -   "
1.92, 54.0199, 0.00334043, NaN, NaN, NaN, 0.0445584, "- N/A -   "
1.93, 54.2558, 0.003354316, NaN, NaN, NaN, 0.0445584, "- N/A -   "
1.94, 54.6097, 0.003370977, NaN, NaN, NaN, 0.0445584, "- N/A -   "
1.95, 55.0815, 0.00339041, NaN, NaN, NaN, 0.0433376, "- N/A -   "
1.96, 55.3174, 0.003409851, NaN, NaN, NaN, 0.0433376, "- N/A -   "
1.97, 55.6712, 0.00342929, NaN, NaN, NaN, 0.04211683, "- N/A -   "
1.98, 56.02505, 0.00344595, NaN, NaN, NaN, 0.04089605, "- N/A -   "
1.99, 56.4968, 0.00346261, NaN, NaN, NaN, 0.04089605, "- N/A -   "
2, 56.73273, 0.003482047, NaN, NaN, NaN, 0.04089605, "- N/A -   "
2.01, 56.9686, 0.00349871, NaN, NaN, NaN, 0.0396753, "- N/A -   "
2.02, 57.32247, 0.003515368, NaN, NaN, NaN, 0.0396753, "- N/A -   "
2.03, 57.6763, 0.00353203, NaN, NaN, NaN, 0.0396753, "- N/A -   "
2.04, 58.0302, 0.00354869, NaN, NaN, NaN, 0.04089605, "- N/A -   "
2.05, 58.26605, 0.00356535, NaN, NaN, NaN, 0.0396753, "- N/A -   "
2.06, 58.5019, 0.00358201, NaN, NaN, NaN, 0.0396753, "- N/A -   "
2.07, 58.9737, 0.00360145, NaN, NaN, NaN, 0.0384545, "- N/A -   "
2.08, 59.3276, 0.00362088, NaN, NaN, NaN, 0.0384545, "- N/A -   "
2.09, 59.68142, 0.003637545, NaN, NaN, NaN, 0.0372337, "- N/A -   "
2.1, 60.0353, 0.00365421, NaN, NaN, NaN, 0.0372337, "- N/A -   "
2.11, 60.27116, 0.00367087, NaN, NaN, NaN, 0.0372337, "- N/A -   "
2.12, 60.7429, 0.0036903, NaN, NaN, NaN, 0.03601294, "- N/A -   "
2.13, 60.97884, 0.00370974, NaN, NaN, NaN, 0.0347922, "- N/A -   "
2.14, 61.3327, 0.0037264, NaN, NaN, NaN, 0.0347922, "- N/A -   "
2.15, 61.56858, 0.00374306, NaN, NaN, NaN, 0.0347922, "- N/A -   "
2.16, 61.8045, 0.00375972, NaN, NaN, NaN, 0.03601294, "- N/A -   "
2.17, 62.2763, 0.00377361, NaN, NaN, NaN, 0.03601294, "- N/A -   "
2.18, 62.5122, 0.00379304, NaN, NaN, NaN, 0.03601294, "- N/A -   "
2.19, 62.866, 0.00380693, NaN, NaN, NaN, 0.03601294, "- N/A -   "
2.2, 63.1019, 0.00382359, NaN, NaN, NaN, 0.03601294, "- N/A -   "
2.21, 63.33779, 0.00384025, NaN, NaN, NaN, 0.03601294, "- N/A -   "
2.22, 63.6916, 0.00385969, NaN, NaN, NaN, 0.03601294, "- N/A -   "
2.23, 63.92753, 0.00387635, NaN, NaN, NaN, 0.0347922, "- N/A -   "
2.24, 64.3993, 0.00389301, NaN, NaN, NaN, 0.0347922, "- N/A -   "
2.25, 64.6352, 0.00391244, NaN, NaN, NaN, 0.0335714, "- N/A -   "
2.26, 65.22495, 0.00393466, NaN, NaN, NaN, 0.0323506, "- N/A -   "
2.27, 65.4608, 0.00395132, NaN, NaN, NaN, 0.03112983, "- N/A -   "
2.28, 65.69674, 0.00397076, NaN, NaN, NaN, 0.0299091, "- N/A -   "
2.29, 66.16853, 0.00398742, NaN, NaN, NaN, 0.0299091, "- N/A -   "
2.3, 66.40443, 0.00400408, NaN, NaN, NaN, 0.0299091, "- N/A -   "
2.31, 66.64032, 0.00401796, NaN, NaN, NaN, 0.03112983, "- N/A -   "
2.32, 66.87622, 0.00403462, NaN, NaN, NaN, 0.03112983, "- N/A -   "
2.33, 67.23006, 0.0040485, NaN, NaN, NaN, 0.0323506, "- N/A -   "
2.34, 67.46596, 0.00406239, NaN, NaN, NaN, 0.0335714, "- N/A -   "
2.35, 67.81979, 0.004076272, NaN, NaN, NaN, 0.0347922, "- N/A -   "
2.36, 67.9377, 0.00409293, NaN, NaN, NaN, 0.0347922, "- N/A -   "
2.37, 68.29159, 0.004106816, NaN, NaN, NaN, 0.03601294, "- N/A -   "
2.38, 68.52748, 0.0041207, NaN, NaN, NaN, 0.0372337, "- N/A -   "
2.39, 68.8813, 0.00414014, NaN, NaN, NaN, 0.0372337, "- N/A -   "
2.4, 69.23517, 0.0041568, NaN, NaN, NaN, 0.03601294, "- N/A -   "
2.41, 69.589, 0.004176235, NaN, NaN, NaN, 0.0347922, "- N/A -   "
2.42, 69.8249, 0.00419012, NaN, NaN, NaN, 0.03601294, "- N/A -   "
2.43, 70.17874, 0.00420956, NaN, NaN, NaN, 0.0347922, "- N/A -   "
2.44, 70.41464, 0.00422622, NaN, NaN, NaN, 0.0347922, "- N/A -   "
2.45, 70.7685, 0.00424288, NaN, NaN, NaN, 0.03601294, "- N/A -   "
2.46, 71.12233, 0.00425954, NaN, NaN, NaN, 0.0347922, "- N/A -   "
2.47, 71.4762, 0.004276198, NaN, NaN, NaN, 0.0347922, "- N/A -   "
2.48, 71.71206, 0.00429286, NaN, NaN, NaN, 0.0347922, "- N/A -   "
2.49, 72.06591, 0.004312296, NaN, NaN, NaN, 0.0347922, "- N/A -   "
2.5, 72.3018, 0.00432618, NaN, NaN, NaN, 0.0347922, "- N/A -   "
2.51, 72.77359, 0.004345617, NaN, NaN, NaN, 0.0347922, "- N/A -   "
2.52, 73.00948, 0.00436228, NaN, NaN, NaN, 0.0347922, "- N/A -   "
2.53, 73.36333, 0.00437894, NaN, NaN, NaN, 0.0335714, "- N/A -   "
2.54, 73.59922, 0.004398375, NaN, NaN, NaN, 0.0335714, "- N/A -   "
2.55, 73.9531, 0.00441504, NaN, NaN, NaN, 0.0335714, "- N/A -   "
2.56, 74.189, 0.004428919, NaN, NaN, NaN, 0.0335714, "- N/A -   "
2.57, 74.5428, 0.004442803, NaN, NaN, NaN, 0.0347922, "- N/A -   "
2.58, 74.7787, 0.004456687, NaN, NaN, NaN, 0.03601294, "- N/A -   "
2.59, 75.13254, 0.00447057, NaN, NaN, NaN, 0.0372337, "- N/A -   "
2.6, 75.36844, 0.004484454, NaN, NaN, NaN, 0.0384545, "- N/A -   "
2.61, 75.6043, 0.00450111, NaN, NaN, NaN, 0.0384545, "- N/A -   "
2.62, 75.8402, 0.004517775, NaN, NaN, NaN, 0.0396753, "- N/A -   "
2.63, 76.19407, 0.004534436, NaN, NaN, NaN, 0.0396753, "- N/A -   "
2.64, 76.5479, 0.00454832, NaN, NaN, NaN, 0.0396753, "- N/A -   "
2.65, 76.90175, 0.00456498, NaN, NaN, NaN, 0.0396753, "- N/A -   "
2.66, 77.13765, 0.004581641, NaN, NaN, NaN, 0.04089605, "- N/A -   "
2.67, 77.49149, 0.004598301, NaN, NaN, NaN, 0.0396753, "- N/A -   "
2.68, 77.84533, 0.004614962, NaN, NaN, NaN, 0.0396753, "- N/A -   "
2.69, 78.19917, 0.004631622, NaN, NaN, NaN, 0.0396753, "- N/A -   "
2.7, 78.4351, 0.004645506, NaN, NaN, NaN, 0.04089605, "- N/A -   "
2.71, 78.67096, 0.00466217, NaN, NaN, NaN, 0.04089605, "- N/A -   "
2.72, 78.90686, 0.00467605, NaN, NaN, NaN, 0.04211683, "- N/A -   "
2.73, 79.2607, 0.00468993, NaN, NaN, NaN, 0.0433376, "- N/A -   "
2.74, 79.61454, 0.004709371, NaN, NaN, NaN, 0.0433376, "- N/A -   "
2.75, 79.96838, 0.004726032, NaN, NaN, NaN, 0.0433376, "- N/A -   "
2.76, 80.20428, 0.004742692, NaN, NaN, NaN, 0.0433376, "- N/A -   "
2.77, 80.67606, 0.004759353, NaN, NaN, NaN, 0.0433376, "- N/A -   "
2.78, 81.0299, 0.004776013, NaN, NaN, NaN, 0.04211683, "- N/A -   "
2.79, 81.26581, 0.004792674, NaN, NaN, NaN, 0.04211683, "- N/A -   "
2.8, 81.5017, 0.004809334, NaN, NaN, NaN, 0.04211683, "- N/A -   "
2.81, 81.97349, 0.004828772, NaN, NaN, NaN, 0.04089605, "- N/A -   "
2.82, 82.44528, 0.00484821, NaN, NaN, NaN, 0.0396753, "- N/A -   "
2.83, 82.91707, 0.004870423, NaN, NaN, NaN, 0.0384545, "- N/A -   "
2.84, 83.27091, 0.00488986, NaN, NaN, NaN, 0.03601294, "- N/A -   "
2.85, 83.6248, 0.004909297, NaN, NaN, NaN, 0.0347922, "- N/A -   "
2.86, 84.09654, 0.00493151, NaN, NaN, NaN, 0.0335714, "- N/A -   "
2.87, 84.45039, 0.004948172, NaN, NaN, NaN, 0.0323506, "- N/A -   "
2.88, 84.80424, 0.004964832, NaN, NaN, NaN, 0.0323506, "- N/A -   "
2.89, 85.04012, 0.004981493, NaN, NaN, NaN, 0.0323506, "- N/A -   "
2.9, 85.39397, 0.004998153, NaN, NaN, NaN, 0.0323506, "- N/A -   "
2.91, 85.74781, 0.005014814, NaN, NaN, NaN, 0.0323506, "- N/A -   "
2.92, 86.1017, 0.00503147, NaN, NaN, NaN, 0.0323506, "- N/A -   "
2.93, 86.4555, 0.00504814, NaN, NaN, NaN, 0.0323506, "- N/A -   "
2.94, 86.80934, 0.0050648, NaN, NaN, NaN, 0.0323506, "- N/A -   "
2.95, 87.04523, 0.005081456, NaN, NaN, NaN, 0.0323506, "- N/A -   "
2.96, 87.39908, 0.005098116, NaN, NaN, NaN, 0.0323506, "- N/A -   "
2.97, 87.63497, 0.005114777, NaN, NaN, NaN, 0.0323506, "- N/A -   "
2.98, 88.10676, 0.00513144, NaN, NaN, NaN, 0.0323506, "- N/A -   "
2.99, 88.34265, 0.0051481, NaN, NaN, NaN, 0.0323506, "- N/A -   "
3, 88.57855, 0.005161982, NaN, NaN, NaN, 0.0335714, "- N/A -   "
3.01, 88.9324, 0.00517864, NaN, NaN, NaN, 0.0347922, "- N/A -   "
3.02, 89.40418, 0.005195303, NaN, NaN, NaN, 0.0347922, "- N/A -   "
3.03, 89.758, 0.00521196, NaN, NaN, NaN, 0.0335714, "- N/A -   "
3.04, 90.11186, 0.0052314, NaN, NaN, NaN, 0.0323506, "- N/A -   "
3.05, 90.58366, 0.005250838, NaN, NaN, NaN, 0.0323506, "- N/A -   "
3.06, 90.81956, 0.00527028, NaN, NaN, NaN, 0.03112983, "- N/A -   "
3.07, 91.1734, 0.00528694, NaN, NaN, NaN, 0.0299091, "- N/A -   "
3.08, 91.76313, 0.005303596, NaN, NaN, NaN, 0.0299091, "- N/A -   "
3.09, 92.117, 0.00532581, NaN, NaN, NaN, 0.0286883, "- N/A -   "
3.1, 92.47082, 0.00534247, NaN, NaN, NaN, 0.0274675, "- N/A -   "
3.11, 92.94261, 0.005361908, NaN, NaN, NaN, 0.0274675, "- N/A -   "
3.12, 93.2965, 0.00537857, NaN, NaN, NaN, 0.0262467, "- N/A -   "
3.13, 93.53234, 0.00539245, NaN, NaN, NaN, 0.0274675, "- N/A -   "
3.14, 93.8862, 0.00540911, NaN, NaN, NaN, 0.0274675, "- N/A -   "
3.15, 94.1221, 0.005423, NaN, NaN, NaN, 0.0286883, "- N/A -   "
3.16, 94.35797, 0.00543688, NaN, NaN, NaN, 0.0299091, "- N/A -   "
3.17, 94.7118, 0.00545354, NaN, NaN, NaN, 0.0299091, "- N/A -   "
3.18, 95.18361, 0.00546742, NaN, NaN, NaN, 0.03112983, "- N/A -   "
3.19, 95.41951, 0.005484085, NaN, NaN, NaN, 0.0323506, "- N/A -   "
3.2, 95.6554, 0.00549797, NaN, NaN, NaN, 0.0335714, "- N/A -   "
3.21, 95.8913, 0.00551185, NaN, NaN, NaN, 0.0335714, "- N/A -   "
3.22, 96.24514, 0.00552574, NaN, NaN, NaN, 0.0347922, "- N/A -   "
3.23, 96.599, 0.00553962, NaN, NaN, NaN, 0.03601294, "- N/A -   "
3.24, 96.83487, 0.0055535, NaN, NaN, NaN, 0.0372337, "- N/A -   "
3.25, 97.07077, 0.00556739, NaN, NaN, NaN, 0.0384545, "- N/A -   "
3.26, 97.30666, 0.005584048, NaN, NaN, NaN, 0.0396753, "- N/A -   "
3.27, 97.77845, 0.005597932, NaN, NaN, NaN, 0.0396753, "- N/A -   "
3.28, 98.13229, 0.00561182, NaN, NaN, NaN, 0.04089605, "- N/A -   "
3.29, 98.3682, 0.00562848, NaN, NaN, NaN, 0.04211683, "- N/A -   "
3.3, 98.72203, 0.00564236, NaN, NaN, NaN, 0.04211683, "- N/A -   "
3.31, 98.9579, 0.005656244, NaN, NaN, NaN, 0.0433376, "- N/A -   "
3.32, 99.42972, 0.005672904, NaN, NaN, NaN, 0.0445584, "- N/A -   "
3.33, 99.66561, 0.005686788, NaN, NaN, NaN, 0.0445584, "- N/A -   "
3.34, 100.019, 0.00570345, NaN, NaN, NaN, 0.04577916, "- N/A -   "
3.35, 100.255, 0.00572011, NaN, NaN, NaN, 0.04577916, "- N/A -   "
3.36, 100.727, 0.00573399, NaN, NaN, NaN, 0.04577916, "- N/A -   "
3.37, 101.081, 0.00575065, NaN, NaN, NaN, 0.04577916, "- N/A -   "
3.38, 101.435, 0.00576731, NaN, NaN, NaN, 0.04577916, "- N/A -   "
3.39, 101.789, 0.00578397, NaN, NaN, NaN, 0.04577916, "- N/A -   "
3.4, 102.143, 0.00580341, NaN, NaN, NaN, 0.04577916, "- N/A -   "
3.41, 102.6143, 0.005820072, NaN, NaN, NaN, 0.0445584, "- N/A -   "
3.42, 102.968, 0.00583951, NaN, NaN, NaN, 0.0445584, "- N/A -   "
3.43, 103.44, 0.00585895, NaN, NaN, NaN, 0.0433376, "- N/A -   "
3.44, 103.794, 0.005875607, NaN, NaN, NaN, 0.0433376, "- N/A -   "
3.45, 104.03, 0.00589227, NaN, NaN, NaN, 0.04211683, "- N/A -   "
3.46, 104.619, 0.005908928, NaN, NaN, NaN, 0.04211683, "- N/A -   "
3.47, 104.973, 0.00592837, NaN, NaN, NaN, 0.04089605, "- N/A -   "
3.48, 105.327, 0.0059478, NaN, NaN, NaN, 0.0396753, "- N/A -   "
3.49, 105.799, 0.00596724, NaN, NaN, NaN, 0.0396753, "- N/A -   "
3.5, 106.153, 0.005986677, NaN, NaN, NaN, 0.0384545, "- N/A -   "
3.51, 106.625, 0.00600611, NaN, NaN, NaN, 0.0384545, "- N/A -   "
3.52, 106.978, 0.00602277, NaN, NaN, NaN, 0.0372337, "- N/A -   "
3.53, 107.45, 0.006042212, NaN, NaN, NaN, 0.03601294, "- N/A -   "
3.54, 107.804, 0.00605887, NaN, NaN, NaN, 0.03601294, "- N/A -   "
3.55, 108.158, 0.006075533, NaN, NaN, NaN, 0.03601294, "- N/A -   "
3.56, 108.512, 0.00609497, NaN, NaN, NaN, 0.03601294, "- N/A -   "
3.57, 108.866, 0.00611163, NaN, NaN, NaN, 0.0347922, "- N/A -   "
3.58, 109.3373, 0.00612829, NaN, NaN, NaN, 0.0347922, "- N/A -   "
3.59, 109.691, 0.006144952, NaN, NaN, NaN, 0.0347922, "- N/A -   "
3.6, 109.927, 0.006164389, NaN, NaN, NaN, 0.0347922, "- N/A -   "
3.61, 110.399, 0.00618105, NaN, NaN, NaN, 0.0335714, "- N/A -   "
3.62, 110.871, 0.00619771, NaN, NaN, NaN, 0.0335714, "- N/A -   "
3.63, 111.224, 0.006214371, NaN, NaN, NaN, 0.0335714, "- N/A -   "
3.64, 111.696, 0.006231031, NaN, NaN, NaN, 0.0335714, "- N/A -   "
3.65, 111.932, 0.00625047, NaN, NaN, NaN, 0.0323506, "- N/A -   "
3.66, 112.404, 0.00626991, NaN, NaN, NaN, 0.03112983, "- N/A -   "
3.67, 112.758, 0.006286566, NaN, NaN, NaN, 0.03112983, "- N/A -   "
3.68, 113.23, 0.006303227, NaN, NaN, NaN, 0.03112983, "- N/A -   "
3.69, 113.583, 0.006322664, NaN, NaN, NaN, 0.0299091, "- N/A -   "
3.7, 113.937, 0.006342101, NaN, NaN, NaN, 0.0299091, "- N/A -   "
3.71, 114.409, 0.006358762, NaN, NaN, NaN, 0.0286883, "- N/A -   "
3.72, 114.763, 0.00637542, NaN, NaN, NaN, 0.0286883, "- N/A -   "
3.73, 114.999, 0.006392083, NaN, NaN, NaN, 0.0286883, "- N/A -   "
3.74, 115.471, 0.006408743, NaN, NaN, NaN, 0.0299091, "- N/A -   "
3.75, 115.706, 0.00642263, NaN, NaN, NaN, 0.0299091, "- N/A -   "
3.76, 116.06, 0.00643929, NaN, NaN, NaN, 0.0299091, "- N/A -   "
3.77, 116.414, 0.006455948, NaN, NaN, NaN, 0.03112983, "- N/A -   "
3.78, 116.886, 0.006469832, NaN, NaN, NaN, 0.03112983, "- N/A -   "
3.79, 117.122, 0.00648649, NaN, NaN, NaN, 0.03112983, "- N/A -   "
3.8, 117.358, 0.006500376, NaN, NaN, NaN, 0.0323506, "- N/A -   "
3.81, 117.712, 0.00651426, NaN, NaN, NaN, 0.0335714, "- N/A -   "
3.82, 118.065, 0.006530921, NaN, NaN, NaN, 0.0335714, "- N/A -   "
3.83, 118.419, 0.006544804, NaN, NaN, NaN, 0.0347922, "- N/A -   "
3.84, 118.891, 0.006558688, NaN, NaN, NaN, 0.03601294, "- N/A -   "
3.85, 119.127, 0.006575349, NaN, NaN, NaN, 0.03601294, "- N/A -   "
3.86, 119.363, 0.006589232, NaN, NaN, NaN, 0.0372337, "- N/A -   "
3.87, 119.717, 0.006603116, NaN, NaN, NaN, 0.0384545, "- N/A -   "
3.88, 120.188, 0.006619777, NaN, NaN, NaN, 0.0384545, "- N/A -   "
3.89, 120.424, 0.006636437, NaN, NaN, NaN, 0.0396753, "- N/A -   "
3.9, 120.778, 0.006650321, NaN, NaN, NaN, 0.0396753, "- N/A -   "
3.91, 121.132, 0.006666981, NaN, NaN, NaN, 0.0396753, "- N/A -   "
3.92, 121.368, 0.00668087, NaN, NaN, NaN, 0.04089605, "- N/A -   "
3.93, 121.722, 0.006694749, NaN, NaN, NaN, 0.04211683, "- N/A -   "
3.94, 121.958, 0.00671141, NaN, NaN, NaN, 0.04211683, "- N/A -   "
3.95, 122.429, 0.006725293, NaN, NaN, NaN, 0.0433376, "- N/A -   "
3.96, 122.783, 0.006741954, NaN, NaN, NaN, 0.0433376, "- N/A -   "
3.97, 123.137, 0.006758614, NaN, NaN, NaN, 0.0433376, "- N/A -   "
3.98, 123.491, 0.006775275, NaN, NaN, NaN, 0.0433376, "- N/A -   "
3.99, 123.845, 0.00679194, NaN, NaN, NaN, 0.0433376, "- N/A -   "
4, 124.435, 0.00681137, NaN, NaN, NaN, 0.0433376, "- N/A -   "
4.01, 124.67, 0.006828033, NaN, NaN, NaN, 0.04211683, "- N/A -   "
4.02, 125.024, 0.00684469, NaN, NaN, NaN, 0.0433376, "- N/A -   "
4.03, 125.378, 0.00685858, NaN, NaN, NaN, 0.0433376, "- N/A -   "
4.04, 125.732, 0.006875238, NaN, NaN, NaN, 0.0433376, "- N/A -   "
4.05, 125.9679, 0.0068919, NaN, NaN, NaN, 0.0445584, "- N/A -   "
4.06, 126.44, 0.00690856, NaN, NaN, NaN, 0.0445584, "- N/A -   "
4.07, 126.911, 0.006925219, NaN, NaN, NaN, 0.0445584, "- N/A -   "
4.08, 127.265, 0.00694188, NaN, NaN, NaN, 0.0433376, "- N/A -   "
4.09, 127.619, 0.00695854, NaN, NaN, NaN, 0.0433376, "- N/A -   "
4.1, 127.973, 0.006975201, NaN, NaN, NaN, 0.0433376, "- N/A -   "
4.11, 128.4448, 0.00699186, NaN, NaN, NaN, 0.0433376, "- N/A -   "
4.12, 128.799, 0.00700852, NaN, NaN, NaN, 0.0433376, "- N/A -   "
4.13, 129.152, 0.00702518, NaN, NaN, NaN, 0.0433376, "- N/A -   "
4.14, 129.506, 0.007041843, NaN, NaN, NaN, 0.0433376, "- N/A -   "
4.15, 129.86, 0.0070585, NaN, NaN, NaN, 0.0433376, "- N/A -   "
4.16, 130.332, 0.00707794, NaN, NaN, NaN, 0.0433376, "- N/A -   "
4.17, 130.6858, 0.007094601, NaN, NaN, NaN, 0.04211683, "- N/A -   "
4.18, 131.04, 0.00711404, NaN, NaN, NaN, 0.04089605, "- N/A -   "
4.19, 131.511, 0.00713348, NaN, NaN, NaN, 0.04089605, "- N/A -   "
4.2, 131.983, 0.007152913, NaN, NaN, NaN, 0.0384545, "- N/A -   "
4.21, 132.455, 0.00717235, NaN, NaN, NaN, 0.0372337, "- N/A -   "
4.22, 132.809, 0.00719179, NaN, NaN, NaN, 0.0372337, "- N/A -   "
4.23, 133.281, 0.00721122, NaN, NaN, NaN, 0.0347922, "- N/A -   "
4.24, 133.87, 0.00723066, NaN, NaN, NaN, 0.0335714, "- N/A -   "
4.25, 134.224, 0.0072501, NaN, NaN, NaN, 0.0323506, "- N/A -   "
4.26, 134.696, 0.00726954, NaN, NaN, NaN, 0.03112983, "- N/A -   "
4.27, 135.05, 0.007288974, NaN, NaN, NaN, 0.03112983, "- N/A -   "
4.28, 135.522, 0.00730841, NaN, NaN, NaN, 0.0299091, "- N/A -   "
4.29, 135.875, 0.00732507, NaN, NaN, NaN, 0.0286883, "- N/A -   "
4.3, 136.347, 0.00733896, NaN, NaN, NaN, 0.0299091, "- N/A -   "
4.31, 136.701, 0.00735839, NaN, NaN, NaN, 0.0286883, "- N/A -   "
4.32, 136.937, 0.00737505, NaN, NaN, NaN, 0.0286883, "- N/A -   "
4.33, 137.4088, 0.007388937, NaN, NaN, NaN, 0.0299091, "- N/A -   "
4.34, 137.6447, 0.0074056, NaN, NaN, NaN, 0.0299091, "- N/A -   "
4.35, 137.999, 0.00742226, NaN, NaN, NaN, 0.03112983, "- N/A -   "
4.36, 138.352, 0.007436142, NaN, NaN, NaN, 0.03112983, "- N/A -   "
4.37, 138.706, 0.0074528, NaN, NaN, NaN, 0.03112983, "- N/A -   "
4.38, 139.178, 0.00746946, NaN, NaN, NaN, 0.03112983, "- N/A -   "
4.39, 139.414, 0.00748612, NaN, NaN, NaN, 0.0323506, "- N/A -   "
4.4, 139.8857, 0.007500007, NaN, NaN, NaN, 0.0323506, "- N/A -   "
4.41, 140.1216, 0.00751667, NaN, NaN, NaN, 0.0335714, "- N/A -   "
4.42, 140.475, 0.00753055, NaN, NaN, NaN, 0.0335714, "- N/A -   "
4.43, 140.947, 0.00754999, NaN, NaN, NaN, 0.0323506, "- N/A -   "
4.44, 141.301, 0.007566649, NaN, NaN, NaN, 0.0323506, "- N/A -   "
4.45, 141.6549, 0.00758331, NaN, NaN, NaN, 0.0323506, "- N/A -   "
4.46, 142.009, 0.00759997, NaN, NaN, NaN, 0.0323506, "- N/A -   "
4.47, 142.481, 0.00761663, NaN, NaN, NaN, 0.0323506, "- N/A -   "
4.48, 142.716, 0.00763329, NaN, NaN, NaN, 0.0323506, "- N/A -   "
4.49, 143.07, 0.00764995, NaN, NaN, NaN, 0.0335714, "- N/A -   "
4.5, 143.424, 0.007663836, NaN, NaN, NaN, 0.0335714, "- N/A -   "
4.51, 143.778, 0.0076805, NaN, NaN, NaN, 0.0335714, "- N/A -   "
4.52, 144.25, 0.00769716, NaN, NaN, NaN, 0.0335714, "- N/A -   "
4.53, 144.486, 0.00771104, NaN, NaN, NaN, 0.0347922, "- N/A -   "
4.54, 144.8395, 0.007724924, NaN, NaN, NaN, 0.03601294, "- N/A -   "
4.55, 145.0754, 0.00774158, NaN, NaN, NaN, 0.03601294, "- N/A -   "
4.56, 145.547, 0.007758245, NaN, NaN, NaN, 0.0372337, "- N/A -   "
4.57, 145.901, 0.00777213, NaN, NaN, NaN, 0.0372337, "- N/A -   "
4.58, 146.255, 0.007788789, NaN, NaN, NaN, 0.0372337, "- N/A -   "
4.59, 146.6087, 0.00780545, NaN, NaN, NaN, 0.0372337, "- N/A -   "
4.6, 146.8446, 0.00782211, NaN, NaN, NaN, 0.0372337, "- N/A -   "
4.61, 147.316, 0.007835994, NaN, NaN, NaN, 0.0384545, "- N/A -   "
4.62, 147.552, 0.007852655, NaN, NaN, NaN, 0.0384545, "- N/A -   "
4.63, 147.906, 0.007866538, NaN, NaN, NaN, 0.0396753, "- N/A -   "
4.64, 148.26, 0.007883199, NaN, NaN, NaN, 0.0396753, "- N/A -   "
4.65, 148.496, 0.007897083, NaN, NaN, NaN, 0.04089605, "- N/A -   "
4.66, 148.8497, 0.007913743, NaN, NaN, NaN, 0.04211683, "- N/A -   "
4.67, 149.204, 0.00792485, NaN, NaN, NaN, 0.0433376, "- N/A -   "
4.68, 149.557, 0.00794151, NaN, NaN, NaN, 0.0433376, "- N/A -   "
4.69, 149.793, 0.007958171, NaN, NaN, NaN, 0.0433376, "- N/A -   "
4.7, 150.265, 0.007972055, NaN, NaN, NaN, 0.0445584, "- N/A -   "
4.71, 150.619, 0.007988716, NaN, NaN, NaN, 0.0445584, "- N/A -   "
4.72, 150.855, 0.008005376, NaN, NaN, NaN, 0.0445584, "- N/A -   "
4.73, 151.209, 0.008022036, NaN, NaN, NaN, 0.0445584, "- N/A -   "
4.74, 151.5625, 0.00803592, NaN, NaN, NaN, 0.04577916, "- N/A -   "
4.75, 151.916, 0.008052581, NaN, NaN, NaN, 0.04577916, "- N/A -   "
4.76, 152.506, 0.008072018, NaN, NaN, NaN, 0.0445584, "- N/A -   "
4.77, 152.86, 0.008091455, NaN, NaN, NaN, 0.0445584, "- N/A -   "
4.78, 153.214, 0.008108116, NaN, NaN, NaN, 0.0433376, "- N/A -   "
4.79, 153.686, 0.008127553, NaN, NaN, NaN, 0.04211683, "- N/A -   "
4.8, 154.0394, 0.008144213, NaN, NaN, NaN, 0.04211683, "- N/A -   "
4.81, 154.511, 0.00816365, NaN, NaN, NaN, 0.04089605, "- N/A -   "
4.82, 154.865, 0.008183088, NaN, NaN, NaN, 0.0396753, "- N/A -   "
4.83, 155.219, 0.008199749, NaN, NaN, NaN, 0.0396753, "- N/A -   "
4.84, 155.573, 0.008219186, NaN, NaN, NaN, 0.0384545, "- N/A -   "
4.85, 156.0445, 0.008235846, NaN, NaN, NaN, 0.0396753, "- N/A -   "
4.86, 156.398, 0.008252507, NaN, NaN, NaN, 0.0396753, "- N/A -   "
4.87, 156.752, 0.00826917, NaN, NaN, NaN, 0.0384545, "- N/A -   "
4.88, 157.224, 0.008285828, NaN, NaN, NaN, 0.0384545, "- N/A -   "
4.89, 157.696, 0.008308042, NaN, NaN, NaN, 0.03601294, "- N/A -   "
4.9, 158.0496, 0.00832748, NaN, NaN, NaN, 0.0347922, "- N/A -   "
4.91, 158.639, 0.008346916, NaN, NaN, NaN, 0.0335714, "- N/A -   "
4.92, 158.9932, 0.008366354, NaN, NaN, NaN, 0.0323506, "- N/A -   "
4.93, 159.465, 0.008385791, NaN, NaN, NaN, 0.03112983, "- N/A -   "
4.94, 159.819, 0.008405228, NaN, NaN, NaN, 0.03112983, "- N/A -   "
4.95, 160.173, 0.008421889, NaN, NaN, NaN, 0.0299091, "- N/A -   "
4.96, 160.409, 0.008438549, NaN, NaN, NaN, 0.03112983, "- N/A -   "
4.97, 160.7624, 0.008452433, NaN, NaN, NaN, 0.03112983, "- N/A -   "
4.98, 161.116, 0.008466316, NaN, NaN, NaN, 0.0323506, "- N/A -   "
4.99, 161.352, 0.008480201, NaN, NaN, NaN, 0.0335714, "- N/A -   "
5, 161.588, 0.008496861, NaN, NaN, NaN, 0.0347922, "- N/A -   "
5.01, 161.942, 0.008510744, NaN, NaN, NaN, 0.0347922, "- N/A -   "
5.02, 162.414, 0.008527406, NaN, NaN, NaN, 0.0347922, "- N/A -   "
5.03, 162.768, 0.008544065, NaN, NaN, NaN, 0.03601294, "- N/A -   "
5.04, 163.0034, 0.008560726, NaN, NaN, NaN, 0.03601294, "- N/A -   "
5.05, 163.475, 0.008577387, NaN, NaN, NaN, 0.03601294, "- N/A -   "
5.06, 163.711, 0.00859127, NaN, NaN, NaN, 0.03601294, "- N/A -   "
5.07, 164.183, 0.008610708, NaN, NaN, NaN, 0.03601294, "- N/A -   "
5.08, 164.537, 0.008627368, NaN, NaN, NaN, 0.0347922, "- N/A -   "
5.09, 164.891, 0.008646806, NaN, NaN, NaN, 0.0335714, "- N/A -   "
5.1, 165.362, 0.008663466, NaN, NaN, NaN, 0.0335714, "- N/A -   "
5.11, 165.7162, 0.008682903, NaN, NaN, NaN, 0.0335714, "- N/A -   "
5.12, 166.07, 0.008699563, NaN, NaN, NaN, 0.0323506, "- N/A -   "
5.13, 166.424, 0.008719001, NaN, NaN, NaN, 0.0323506, "- N/A -   "
5.14, 166.896, 0.008735661, NaN, NaN, NaN, 0.03112983, "- N/A -   "
5.15, 167.25, 0.008752322, NaN, NaN, NaN, 0.03112983, "- N/A -   "
5.16, 167.603, 0.008768982, NaN, NaN, NaN, 0.0323506, "- N/A -   "
5.17, 167.9572, 0.008782866, NaN, NaN, NaN, 0.0323506, "- N/A -   "
5.18, 168.193, 0.008799527, NaN, NaN, NaN, 0.0335714, "- N/A -   "
5.19, 168.547, 0.008810634, NaN, NaN, NaN, 0.0347922, "- N/A -   "
5.2, 168.783, 0.008827294, NaN, NaN, NaN, 0.03601294, "- N/A -   "
5.21, 169.137, 0.008841178, NaN, NaN, NaN, 0.03601294, "- N/A -   "
5.22, 169.491, 0.008857839, NaN, NaN, NaN, 0.03601294, "- N/A -   "
5.23, 169.844, 0.008874499, NaN, NaN, NaN, 0.03601294, "- N/A -   "
5.24, 170.1982, 0.00889116, NaN, NaN, NaN, 0.03601294, "- N/A -   "
5.25, 170.4341, 0.008905044, NaN, NaN, NaN, 0.0372337, "- N/A -   "
5.26, 170.788, 0.008921703, NaN, NaN, NaN, 0.0372337, "- N/A -   "
5.27, 171.024, 0.00893281, NaN, NaN, NaN, 0.0396753, "- N/A -   "
5.28, 171.378, 0.008949472, NaN, NaN, NaN, 0.0396753, "- N/A -   "
5.29, 171.614, 0.008963356, NaN, NaN, NaN, 0.04089605, "- N/A -   "
5.3, 172.085, 0.008980015, NaN, NaN, NaN, 0.04211683, "- N/A -   "
5.31, 172.321, 0.008993899, NaN, NaN, NaN, 0.04211683, "- N/A -   "
5.32, 172.6751, 0.00901056, NaN, NaN, NaN, 0.04211683, "- N/A -   "
5.33, 173.029, 0.00902722, NaN, NaN, NaN, 0.04211683, "- N/A -   "
5.34, 173.265, 0.009043881, NaN, NaN, NaN, 0.04211683, "- N/A -   "
5.35, 173.737, 0.009060541, NaN, NaN, NaN, 0.04211683, "- N/A -   "
5.36, 174.208, 0.009079979, NaN, NaN, NaN, 0.04089605, "- N/A -   "
5.37, 174.562, 0.009096639, NaN, NaN, NaN, 0.04089605, "- N/A -   "
5.38, 174.9161, 0.009116077, NaN, NaN, NaN, 0.0396753, "- N/A -   "
5.39, 175.27, 0.009132737, NaN, NaN, NaN, 0.0396753, "- N/A -   "
5.4, 175.624, 0.009149398, NaN, NaN, NaN, 0.0396753, "- N/A -   "
5.41, 175.86, 0.009166058, NaN, NaN, NaN, 0.0396753, "- N/A -   "
5.42, 176.331, 0.009182719, NaN, NaN, NaN, 0.0396753, "- N/A -   "
5.43, 176.6853, 0.009199379, NaN, NaN, NaN, 0.0396753, "- N/A -   "
5.44, 177.1571, 0.009218817, NaN, NaN, NaN, 0.0384545, "- N/A -   "
5.45, 177.393, 0.009235477, NaN, NaN, NaN, 0.0384545, "- N/A -   "
5.46, 177.747, 0.00925214, NaN, NaN, NaN, 0.0384545, "- N/A -   "
5.47, 178.1007, 0.009271575, NaN, NaN, NaN, 0.0384545, "- N/A -   "
5.48, 178.455, 0.009285458, NaN, NaN, NaN, 0.0384545, "- N/A -   "
5.49, 178.808, 0.009304896, NaN, NaN, NaN, 0.0372337, "- N/A -   "
5.5, 179.162, 0.009321556, NaN, NaN, NaN, 0.0372337, "- N/A -   "
5.51, 179.634, 0.009340994, NaN, NaN, NaN, 0.03601294, "- N/A -   "
5.52, 179.87, 0.009357654, NaN, NaN, NaN, 0.03601294, "- N/A -   "
5.53, 180.342, 0.009374315, NaN, NaN, NaN, 0.03601294, "- N/A -   "
5.54, 180.578, 0.009388198, NaN, NaN, NaN, 0.0372337, "- N/A -   "
5.55, 180.813, 0.009404859, NaN, NaN, NaN, 0.0372337, "- N/A -   "
5.56, 181.167, 0.009418743, NaN, NaN, NaN, 0.0384545, "- N/A -   "
5.57, 181.639, 0.009435403, NaN, NaN, NaN, 0.0384545, "- N/A -   "
5.58, 181.875, 0.00945484, NaN, NaN, NaN, 0.0372337, "- N/A -   "
5.59, 182.229, 0.009471501, NaN, NaN, NaN, 0.0372337, "- N/A -   "
5.6, 182.583, 0.009488161, NaN, NaN, NaN, 0.0372337, "- N/A -   "
5.61, 183.054, 0.009507598, NaN, NaN, NaN, 0.0372337, "- N/A -   "
5.62, 183.172, 0.00952148, NaN, NaN, NaN, 0.0384545, "- N/A -   "
5.63, 183.526, 0.009538142, NaN, NaN, NaN, 0.0384545, "- N/A -   "
5.64, 183.8801, 0.00955758, NaN, NaN, NaN, 0.0372337, "- N/A -   "
5.65, 184.3519, 0.00957424, NaN, NaN, NaN, 0.03601294, "- N/A -   "
5.66, 184.824, 0.009590901, NaN, NaN, NaN, 0.03601294, "- N/A -   "
5.67, 185.06, 0.009610338, NaN, NaN, NaN, 0.0347922, "- N/A -   "
5.68, 185.413, 0.009629776, NaN, NaN, NaN, 0.0335714, "- N/A -   "
5.69, 185.767, 0.00964921, NaN, NaN, NaN, 0.0335714, "- N/A -   "
5.7, 186.239, 0.00966865, NaN, NaN, NaN, 0.0323506, "- N/A -   "
5.71, 186.593, 0.009685311, NaN, NaN, NaN, 0.03112983, "- N/A -   "
5.72, 186.947, 0.009701972, NaN, NaN, NaN, 0.03112983, "- N/A -   "
5.73, 187.301, 0.009718632, NaN, NaN, NaN, 0.03112983, "- N/A -   "
5.74, 187.654, 0.009735292, NaN, NaN, NaN, 0.03112983, "- N/A -   "
5.75, 188.008, 0.009751952, NaN, NaN, NaN, 0.03112983, "- N/A -   "
5.76, 188.244, 0.009768614, NaN, NaN, NaN, 0.0323506, "- N/A -   "
5.77, 188.598, 0.009782497, NaN, NaN, NaN, 0.0323506, "- N/A -   "
5.78, 188.834, 0.009799158, NaN, NaN, NaN, 0.0335714, "- N/A -   "
5.79, 189.188, 0.009815818, NaN, NaN, NaN, 0.0335714, "- N/A -   "
5.8, 189.5416, 0.009832478, NaN, NaN, NaN, 0.0323506, "- N/A -   "
5.81, 189.895, 0.009849139, NaN, NaN, NaN, 0.0323506, "- N/A -   "
5.82, 190.249, 0.0098658, NaN, NaN, NaN, 0.0323506, "- N/A -   "
5.83, 190.603, 0.00988246, NaN, NaN, NaN, 0.0323506, "- N/A -   "
5.84, 190.957, 0.009901898, NaN, NaN, NaN, 0.0323506, "- N/A -   "
5.85, 191.311, 0.00991578, NaN, NaN, NaN, 0.0323506, "- N/A -   "
5.86, 191.547, 0.009932442, NaN, NaN, NaN, 0.0323506, "- N/A -   "
5.87, 191.901, 0.009949102, NaN, NaN, NaN, 0.0335714, "- N/A -   "
5.88, 192.136, 0.00996576, NaN, NaN, NaN, 0.0335714, "- N/A -   "
5.89, 192.608, 0.009982423, NaN, NaN, NaN, 0.0335714, "- N/A -   "
5.9, 192.844, 0.009999084, NaN, NaN, NaN, 0.0335714, "- N/A -   "
5.91, 193.3159, 0.0100157, NaN, NaN, NaN, 0.0323506, "- N/A -   "
5.92, 193.5518, 0.0100324, NaN, NaN, NaN, 0.0323506, "- N/A -   "
5.93, 193.906, 0.0100518, NaN, NaN, NaN, 0.0323506, "- N/A -   "
5.94, 194.259, 0.0100685, NaN, NaN, NaN, 0.03112983, "- N/A -   "
5.95, 194.613, 0.0100852, NaN, NaN, NaN, 0.03112983, "- N/A -   "
[...]
31.08, 1211.08, 0.05197524, NaN, NaN, NaN, 0.0286883, "- N/A -   "
31.09, 1211.44, 0.0519891, NaN, NaN, NaN, 0.0299091, "- N/A -   "
31.1, 1211.91, 0.0520058, NaN, NaN, NaN, 0.03112983, "- N/A -   "
31.11, 1212.27, 0.05201967, NaN, NaN, NaN, 0.03112983, "- N/A -   "
31.12, 1212.63, 0.05203355, NaN, NaN, NaN, 0.0323506, "- N/A -   "
31.13, 1213.1, 0.05205021, NaN, NaN, NaN, 0.0323506, "- N/A -   "
31.14, 1213.46, 0.0520641, NaN, NaN, NaN, 0.0335714, "- N/A -   "
31.15, 1213.82, 0.05207798, NaN, NaN, NaN, 0.0347922, "- N/A -   "
31.16, 1214.178, 0.0520919, NaN, NaN, NaN, 0.03601294, "- N/A -   "
31.17, 1214.54, 0.0521057, NaN, NaN, NaN, 0.0384545, "- N/A -   "
31.18, 1214.77, 0.0521169, NaN, NaN, NaN, 0.0396753, "- N/A -   "
31.19, 1215.13, 0.0521307, NaN, NaN, NaN, 0.04089605, "- N/A -   "
31.2, 1215.49, 0.0521446, NaN, NaN, NaN, 0.04211683, "- N/A -   "
31.21, 1215.85, 0.0521585, NaN, NaN, NaN, 0.0433376, "- N/A -   "
31.22, 1216.21, 0.0521752, NaN, NaN, NaN, 0.0433376, "- N/A -   "
31.23, 1216.68, 0.0521918, NaN, NaN, NaN, 0.0445584, "- N/A -   "
31.24, 1217.04, 0.0522057, NaN, NaN, NaN, 0.0445584, "- N/A -   "
31.25, 1217.52, 0.05222237, NaN, NaN, NaN, 0.04577916, "- N/A -   "
31.26, 1217.87, 0.05223903, NaN, NaN, NaN, 0.04577916, "- N/A -   "
31.27, 1218.35, 0.05225291, NaN, NaN, NaN, 0.04577916, "- N/A -   "
31.28, 1218.829, 0.0522696, NaN, NaN, NaN, 0.04577916, "- N/A -   "
31.29, 1219.19, 0.0522862, NaN, NaN, NaN, 0.04577916, "- N/A -   "
31.3, 1219.66, 0.0523057, NaN, NaN, NaN, 0.0445584, "- N/A -   "
31.31, 1220.26, 0.0523251, NaN, NaN, NaN, 0.0445584, "- N/A -   "
31.32, 1220.74, 0.0523418, NaN, NaN, NaN, 0.0433376, "- N/A -   "
31.33, 1221.09, 0.0523584, NaN, NaN, NaN, 0.0433376, "- N/A -   "
31.34, 1221.57, 0.0523751, NaN, NaN, NaN, 0.0445584, "- N/A -   "
31.35, 1222.05, 0.0523918, NaN, NaN, NaN, 0.0433376, "- N/A -   "
31.36, 1222.53, 0.05241119, NaN, NaN, NaN, 0.0433376, "- N/A -   "
31.37, 1223, 0.05242785, NaN, NaN, NaN, 0.04211683, "- N/A -   "
31.38, 1223.48, 0.05244729, NaN, NaN, NaN, 0.04211683, "- N/A -   "
31.39, 1223.96, 0.05246395, NaN, NaN, NaN, 0.04211683, "- N/A -   "
31.4, 1224.43, 0.05248061, NaN, NaN, NaN, 0.04089605, "- N/A -   "
31.41, 1224.79, 0.05249727, NaN, NaN, NaN, 0.04089605, "- N/A -   "
31.42, 1225.27, 0.05251393, NaN, NaN, NaN, 0.04089605, "- N/A -   "
31.43, 1225.75, 0.05253059, NaN, NaN, NaN, 0.04089605, "- N/A -   "
31.44, 1226.1, 0.05254725, NaN, NaN, NaN, 0.04089605, "- N/A -   "
31.45, 1226.7, 0.05256669, NaN, NaN, NaN, 0.0396753, "- N/A -   "
31.46, 1227.18, 0.0525861, NaN, NaN, NaN, 0.0396753, "- N/A -   "
31.47, 1227.77, 0.0526028, NaN, NaN, NaN, 0.0384545, "- N/A -   "
31.48, 1228.25, 0.0526222, NaN, NaN, NaN, 0.0372337, "- N/A -   "
31.49, 1228.73, 0.05264166, NaN, NaN, NaN, 0.03601294, "- N/A -   "
31.5, 1229.32, 0.0526639, NaN, NaN, NaN, 0.0347922, "- N/A -   "
31.51, 1229.92, 0.0526805, NaN, NaN, NaN, 0.0335714, "- N/A -   "
31.52, 1230.52, 0.0527027, NaN, NaN, NaN, 0.0323506, "- N/A -   "
31.53, 1230.99, 0.0527222, NaN, NaN, NaN, 0.0299091, "- N/A -   "
31.54, 1231.47, 0.0527416, NaN, NaN, NaN, 0.0299091, "- N/A -   "
31.55, 1231.95, 0.0527583, NaN, NaN, NaN, 0.0286883, "- N/A -   "
31.56, 1232.42, 0.0527749, NaN, NaN, NaN, 0.0286883, "- N/A -   "
31.57, 1232.9, 0.0527916, NaN, NaN, NaN, 0.0286883, "- N/A -   "
31.58, 1233.26, 0.0528083, NaN, NaN, NaN, 0.0286883, "- N/A -   "
31.59, 1233.74, 0.0528249, NaN, NaN, NaN, 0.0286883, "- N/A -   "
31.6, 1234.21, 0.0528416, NaN, NaN, NaN, 0.0286883, "- N/A -   "
31.61, 1234.69, 0.052861, NaN, NaN, NaN, 0.0286883, "- N/A -   "
31.62, 1235.17, 0.0528749, NaN, NaN, NaN, 0.0286883, "- N/A -   "
31.63, 1235.52, 0.05289157, NaN, NaN, NaN, 0.0286883, "- N/A -   "
31.64, 1236, 0.05290823, NaN, NaN, NaN, 0.0299091, "- N/A -   "
31.65, 1236.359, 0.05292211, NaN, NaN, NaN, 0.0299091, "- N/A -   "
31.66, 1236.72, 0.0529388, NaN, NaN, NaN, 0.03112983, "- N/A -   "
31.67, 1237.19, 0.0529527, NaN, NaN, NaN, 0.03112983, "- N/A -   "
31.68, 1237.55, 0.0529693, NaN, NaN, NaN, 0.03112983, "- N/A -   "
31.69, 1237.91, 0.0529832, NaN, NaN, NaN, 0.0323506, "- N/A -   "
31.7, 1238.39, 0.0529999, NaN, NaN, NaN, 0.0335714, "- N/A -   "
31.71, 1238.744, 0.0530137, NaN, NaN, NaN, 0.0335714, "- N/A -   "
31.72, 1239.1, 0.0530304, NaN, NaN, NaN, 0.0335714, "- N/A -   "
31.73, 1239.698, 0.05304707, NaN, NaN, NaN, 0.0335714, "- N/A -   "
31.74, 1240.175, 0.0530637, NaN, NaN, NaN, 0.0335714, "- N/A -   "
31.75, 1240.652, 0.0530804, NaN, NaN, NaN, 0.0335714, "- N/A -   "
31.76, 1241.01, 0.053097, NaN, NaN, NaN, 0.0335714, "- N/A -   "
31.77, 1241.49, 0.05311093, NaN, NaN, NaN, 0.0347922, "- N/A -   "
31.78, 1241.84, 0.05312759, NaN, NaN, NaN, 0.0347922, "- N/A -   "
31.79, 1242.2, 0.05314425, NaN, NaN, NaN, 0.0347922, "- N/A -   "
31.8, 1242.68, 0.05316091, NaN, NaN, NaN, 0.03601294, "- N/A -   "
31.81, 1243.037, 0.05317757, NaN, NaN, NaN, 0.03601294, "- N/A -   "
31.82, 1243.514, 0.0531942, NaN, NaN, NaN, 0.03601294, "- N/A -   "
31.83, 1243.87, 0.0532109, NaN, NaN, NaN, 0.03601294, "- N/A -   "
31.84, 1244.468, 0.0532276, NaN, NaN, NaN, 0.0347922, "- N/A -   "
31.85, 1244.83, 0.05324422, NaN, NaN, NaN, 0.03601294, "- N/A -   "
31.86, 1245.3, 0.0532581, NaN, NaN, NaN, 0.03601294, "- N/A -   "
31.87, 1245.54, 0.0532775, NaN, NaN, NaN, 0.03601294, "- N/A -   "
31.88, 1246.14, 0.05329142, NaN, NaN, NaN, 0.03601294, "- N/A -   "
31.89, 1246.61, 0.05330808, NaN, NaN, NaN, 0.03601294, "- N/A -   "
31.9, 1246.97, 0.05332474, NaN, NaN, NaN, 0.03601294, "- N/A -   "
31.91, 1247.33, 0.0533414, NaN, NaN, NaN, 0.03601294, "- N/A -   "
31.92, 1247.81, 0.0533553, NaN, NaN, NaN, 0.0384545, "- N/A -   "
31.93, 1248.16, 0.0533692, NaN, NaN, NaN, 0.0396753, "- N/A -   "
31.94, 1248.4, 0.0533831, NaN, NaN, NaN, 0.04089605, "- N/A -   "
31.95, 1248.76, 0.0533942, NaN, NaN, NaN, 0.04211683, "- N/A -   "
31.96, 1249.12, 0.0534108, NaN, NaN, NaN, 0.0433376, "- N/A -   "
31.97, 1249.6, 0.05342748, NaN, NaN, NaN, 0.04211683, "- N/A -   "
31.98, 1250.07, 0.0534414, NaN, NaN, NaN, 0.0433376, "- N/A -   "
31.99, 1250.43, 0.05345525, NaN, NaN, NaN, 0.0445584, "- N/A -   "
32, 1250.79, 0.0534719, NaN, NaN, NaN, 0.04577916, "- N/A -   "
32.01, 1251.15, 0.0534858, NaN, NaN, NaN, 0.04577916, "- N/A -   "
32.02, 1251.62, 0.05350245, NaN, NaN, NaN, 0.04699994, "- N/A -   "
32.03, 1251.981, 0.0535163, NaN, NaN, NaN, 0.0482207, "- N/A -   "
32.04, 1252.34, 0.0535302, NaN, NaN, NaN, 0.0482207, "- N/A -   "
32.05, 1252.82, 0.0535469, NaN, NaN, NaN, 0.0482207, "- N/A -   "
32.06, 1253.29, 0.05356632, NaN, NaN, NaN, 0.0482207, "- N/A -   "
32.07, 1253.89, 0.05358298, NaN, NaN, NaN, 0.04699994, "- N/A -   "
32.08, 1254.366, 0.05360242, NaN, NaN, NaN, 0.04577916, "- N/A -   "
32.09, 1254.843, 0.05362463, NaN, NaN, NaN, 0.0445584, "- N/A -   "
32.1, 1255.44, 0.0536441, NaN, NaN, NaN, 0.04211683, "- N/A -   "
32.11, 1256.15, 0.0536663, NaN, NaN, NaN, 0.04089605, "- N/A -   "
32.12, 1256.63, 0.05368572, NaN, NaN, NaN, 0.0384545, "- N/A -   "
32.13, 1257.11, 0.0537052, NaN, NaN, NaN, 0.0372337, "- N/A -   "
32.14, 1257.71, 0.0537246, NaN, NaN, NaN, 0.03601294, "- N/A -   "
32.15, 1258.18, 0.053744, NaN, NaN, NaN, 0.0347922, "- N/A -   "
32.16, 1258.78, 0.0537635, NaN, NaN, NaN, 0.0335714, "- N/A -   "
32.17, 1259.26, 0.05378013, NaN, NaN, NaN, 0.0335714, "- N/A -   "
32.18, 1259.73, 0.05379679, NaN, NaN, NaN, 0.0335714, "- N/A -   "
32.19, 1260.21, 0.05381623, NaN, NaN, NaN, 0.0323506, "- N/A -   "
32.2, 1260.69, 0.05383289, NaN, NaN, NaN, 0.0323506, "- N/A -   "
32.21, 1261.16, 0.0538495, NaN, NaN, NaN, 0.0323506, "- N/A -   "
32.22, 1261.521, 0.0538662, NaN, NaN, NaN, 0.0323506, "- N/A -   "
32.23, 1261.998, 0.0538856, NaN, NaN, NaN, 0.0323506, "- N/A -   "
32.24, 1262.36, 0.05389953, NaN, NaN, NaN, 0.0323506, "- N/A -   "
32.25, 1262.83, 0.05391619, NaN, NaN, NaN, 0.0323506, "- N/A -   "
32.26, 1263.19, 0.0539301, NaN, NaN, NaN, 0.0335714, "- N/A -   "
32.27, 1263.55, 0.053944, NaN, NaN, NaN, 0.0347922, "- N/A -   "
32.28, 1264.03, 0.0539606, NaN, NaN, NaN, 0.0347922, "- N/A -   "
32.29, 1264.38, 0.0539773, NaN, NaN, NaN, 0.03601294, "- N/A -   "
32.3, 1264.741, 0.05399116, NaN, NaN, NaN, 0.03601294, "- N/A -   "
32.31, 1265.22, 0.0540078, NaN, NaN, NaN, 0.03601294, "- N/A -   "
32.32, 1265.58, 0.0540245, NaN, NaN, NaN, 0.03601294, "- N/A -   "
32.33, 1266.05, 0.0540411, NaN, NaN, NaN, 0.03601294, "- N/A -   "
32.34, 1266.53, 0.0540578, NaN, NaN, NaN, 0.03601294, "- N/A -   "
32.35, 1267.01, 0.0540745, NaN, NaN, NaN, 0.03601294, "- N/A -   "
32.36, 1267.48, 0.0540911, NaN, NaN, NaN, 0.03601294, "- N/A -   "
32.37, 1267.96, 0.0541078, NaN, NaN, NaN, 0.03601294, "- N/A -   "
32.38, 1268.32, 0.0541244, NaN, NaN, NaN, 0.03601294, "- N/A -   "
32.39, 1268.68, 0.0541439, NaN, NaN, NaN, 0.03601294, "- N/A -   "
32.4, 1269.27, 0.0541605, NaN, NaN, NaN, 0.0347922, "- N/A -   "
32.41, 1269.75, 0.05417998, NaN, NaN, NaN, 0.0335714, "- N/A -   "
32.42, 1270.35, 0.0541994, NaN, NaN, NaN, 0.0335714, "- N/A -   "
32.43, 1270.82, 0.0542189, NaN, NaN, NaN, 0.0323506, "- N/A -   "
32.44, 1271.419, 0.0542355, NaN, NaN, NaN, 0.0323506, "- N/A -   "
32.45, 1271.78, 0.0542522, NaN, NaN, NaN, 0.03112983, "- N/A -   "
32.46, 1272.25, 0.0542688, NaN, NaN, NaN, 0.03112983, "- N/A -   "
32.47, 1272.73, 0.0542855, NaN, NaN, NaN, 0.03112983, "- N/A -   "
32.48, 1273.09, 0.05429938, NaN, NaN, NaN, 0.0323506, "- N/A -   "
32.49, 1273.45, 0.05431604, NaN, NaN, NaN, 0.0335714, "- N/A -   "
32.5, 1273.8, 0.0543299, NaN, NaN, NaN, 0.0335714, "- N/A -   "
32.51, 1274.281, 0.0543466, NaN, NaN, NaN, 0.0347922, "- N/A -   "
32.52, 1274.64, 0.0543605, NaN, NaN, NaN, 0.0347922, "- N/A -   "
32.53, 1275, 0.05437713, NaN, NaN, NaN, 0.0347922, "- N/A -   "
32.54, 1275.47, 0.05439379, NaN, NaN, NaN, 0.0347922, "- N/A -   "
32.55, 1275.95, 0.0544077, NaN, NaN, NaN, 0.03601294, "- N/A -   "
32.56, 1276.19, 0.0544216, NaN, NaN, NaN, 0.0372337, "- N/A -   "
32.57, 1276.55, 0.0544354, NaN, NaN, NaN, 0.0384545, "- N/A -   "
32.58, 1276.9, 0.05444655, NaN, NaN, NaN, 0.04089605, "- N/A -   "
32.59, 1277.26, 0.0544604, NaN, NaN, NaN, 0.04211683, "- N/A -   "
32.6, 1277.74, 0.0544771, NaN, NaN, NaN, 0.0433376, "- N/A -   "
32.61, 1277.98, 0.05449098, NaN, NaN, NaN, 0.0433376, "- N/A -   "
32.62, 1278.34, 0.05450764, NaN, NaN, NaN, 0.0433376, "- N/A -   "
32.63, 1278.81, 0.0545271, NaN, NaN, NaN, 0.0433376, "- N/A -   "
32.64, 1279.29, 0.0545437, NaN, NaN, NaN, 0.04211683, "- N/A -   "
32.65, 1279.89, 0.0545604, NaN, NaN, NaN, 0.04211683, "- N/A -   "
32.66, 1280.36, 0.0545826, NaN, NaN, NaN, 0.04089605, "- N/A -   "
32.67, 1280.96, 0.054602, NaN, NaN, NaN, 0.0396753, "- N/A -   "
32.68, 1281.56, 0.0546187, NaN, NaN, NaN, 0.0384545, "- N/A -   "
32.69, 1281.794, 0.0546354, NaN, NaN, NaN, 0.0396753, "- N/A -   "
32.7, 1282.27, 0.0546493, NaN, NaN, NaN, 0.0396753, "- N/A -   "
32.71, 1282.75, 0.0546659, NaN, NaN, NaN, 0.0396753, "- N/A -   "
32.72, 1283.11, 0.0546826, NaN, NaN, NaN, 0.0396753, "- N/A -   "
32.73, 1283.58, 0.0546992, NaN, NaN, NaN, 0.04089605, "- N/A -   "
32.74, 1284.06, 0.0547159, NaN, NaN, NaN, 0.04089605, "- N/A -   "
32.75, 1284.54, 0.0547326, NaN, NaN, NaN, 0.0396753, "- N/A -   "
32.76, 1285.133, 0.054752, NaN, NaN, NaN, 0.0384545, "- N/A -   "
32.77, 1285.49, 0.05477143, NaN, NaN, NaN, 0.0384545, "- N/A -   "
32.78, 1285.97, 0.05478809, NaN, NaN, NaN, 0.0372337, "- N/A -   "
32.79, 1286.56, 0.05480753, NaN, NaN, NaN, 0.0372337, "- N/A -   "
32.8, 1287.041, 0.05482419, NaN, NaN, NaN, 0.0372337, "- N/A -   "
32.81, 1287.4, 0.0548408, NaN, NaN, NaN, 0.03601294, "- N/A -   "
32.82, 1287.88, 0.0548575, NaN, NaN, NaN, 0.03601294, "- N/A -   "
32.83, 1288.23, 0.0548742, NaN, NaN, NaN, 0.03601294, "- N/A -   "
32.84, 1288.71, 0.05489083, NaN, NaN, NaN, 0.0372337, "- N/A -   "
32.85, 1289.19, 0.05490471, NaN, NaN, NaN, 0.0372337, "- N/A -   "
32.86, 1289.55, 0.05492137, NaN, NaN, NaN, 0.0372337, "- N/A -   "
32.87, 1289.903, 0.054938, NaN, NaN, NaN, 0.0372337, "- N/A -   "
32.88, 1290.5, 0.0549547, NaN, NaN, NaN, 0.0372337, "- N/A -   "
32.89, 1290.857, 0.0549714, NaN, NaN, NaN, 0.0372337, "- N/A -   "
32.9, 1291.21, 0.054988, NaN, NaN, NaN, 0.0372337, "- N/A -   "
32.91, 1291.69, 0.05500468, NaN, NaN, NaN, 0.0372337, "- N/A -   "
32.92, 1292.17, 0.05502134, NaN, NaN, NaN, 0.0372337, "- N/A -   "
32.93, 1292.65, 0.0550408, NaN, NaN, NaN, 0.03601294, "- N/A -   "
32.94, 1293.12, 0.05506021, NaN, NaN, NaN, 0.03601294, "- N/A -   "
32.95, 1293.6, 0.0550769, NaN, NaN, NaN, 0.0347922, "- N/A -   "
32.96, 1294.08, 0.0550935, NaN, NaN, NaN, 0.0347922, "- N/A -   "
32.97, 1294.67, 0.055113, NaN, NaN, NaN, 0.0335714, "- N/A -   "
32.98, 1295.15, 0.0551296, NaN, NaN, NaN, 0.0335714, "- N/A -   "
32.99, 1295.63, 0.0551491, NaN, NaN, NaN, 0.0323506, "- N/A -   "
33, 1296.1, 0.05516573, NaN, NaN, NaN, 0.0323506, "- N/A -   "
33.01, 1296.58, 0.05518516, NaN, NaN, NaN, 0.03112983, "- N/A -   "
33.02, 1297.06, 0.05520183, NaN, NaN, NaN, 0.03112983, "- N/A -   "
33.03, 1297.416, 0.0552185, NaN, NaN, NaN, 0.0323506, "- N/A -   "
33.04, 1298.01, 0.0552351, NaN, NaN, NaN, 0.03112983, "- N/A -   "
33.05, 1298.49, 0.0552518, NaN, NaN, NaN, 0.03112983, "- N/A -   "
33.06, 1298.97, 0.0552685, NaN, NaN, NaN, 0.03112983, "- N/A -   "
33.07, 1299.324, 0.05528513, NaN, NaN, NaN, 0.03112983, "- N/A -   "
33.08, 1299.68, 0.05530179, NaN, NaN, NaN, 0.03112983, "- N/A -   "
33.09, 1300.16, 0.05531845, NaN, NaN, NaN, 0.03112983, "- N/A -   "
33.1, 1300.64, 0.05533511, NaN, NaN, NaN, 0.03112983, "- N/A -   "
33.11, 1300.99, 0.0553518, NaN, NaN, NaN, 0.03112983, "- N/A -   "
33.12, 1301.47, 0.05536843, NaN, NaN, NaN, 0.0323506, "- N/A -   "
33.13, 1301.95, 0.05538231, NaN, NaN, NaN, 0.0323506, "- N/A -   "
33.14, 1302.42, 0.05539897, NaN, NaN, NaN, 0.0323506, "- N/A -   "
33.15, 1302.78, 0.0554156, NaN, NaN, NaN, 0.0323506, "- N/A -   "
33.16, 1303.14, 0.0554323, NaN, NaN, NaN, 0.0335714, "- N/A -   "
33.17, 1303.62, 0.055449, NaN, NaN, NaN, 0.0335714, "- N/A -   "
33.18, 1303.97, 0.05546284, NaN, NaN, NaN, 0.0335714, "- N/A -   "
33.19, 1304.45, 0.05548228, NaN, NaN, NaN, 0.0335714, "- N/A -   "
33.2, 1304.93, 0.05549894, NaN, NaN, NaN, 0.0335714, "- N/A -   "
33.21, 1305.29, 0.0555156, NaN, NaN, NaN, 0.0323506, "- N/A -   "
33.22, 1305.76, 0.0555323, NaN, NaN, NaN, 0.0323506, "- N/A -   "
33.23, 1306.12, 0.0555489, NaN, NaN, NaN, 0.0323506, "- N/A -   "
33.24, 1306.72, 0.05556558, NaN, NaN, NaN, 0.0323506, "- N/A -   "
33.25, 1307.08, 0.05558224, NaN, NaN, NaN, 0.0335714, "- N/A -   "
33.26, 1307.43, 0.05559612, NaN, NaN, NaN, 0.0335714, "- N/A -   "
33.27, 1307.91, 0.05561001, NaN, NaN, NaN, 0.0347922, "- N/A -   "
33.28, 1308.15, 0.0556239, NaN, NaN, NaN, 0.03601294, "- N/A -   "
33.29, 1308.51, 0.0556378, NaN, NaN, NaN, 0.0372337, "- N/A -   "
33.3, 1308.86, 0.0556517, NaN, NaN, NaN, 0.0384545, "- N/A -   "
33.31, 1309.34, 0.0556683, NaN, NaN, NaN, 0.0384545, "- N/A -   "
33.32, 1309.82, 0.05568498, NaN, NaN, NaN, 0.0396753, "- N/A -   "
33.33, 1310.18, 0.0556989, NaN, NaN, NaN, 0.0396753, "- N/A -   "
33.34, 1310.65, 0.0557155, NaN, NaN, NaN, 0.0396753, "- N/A -   "
33.35, 1311.01, 0.0557322, NaN, NaN, NaN, 0.0396753, "- N/A -   "
33.36, 1311.37, 0.0557461, NaN, NaN, NaN, 0.04089605, "- N/A -   "
33.37, 1311.85, 0.05575995, NaN, NaN, NaN, 0.04211683, "- N/A -   "
33.38, 1312.084, 0.0557738, NaN, NaN, NaN, 0.0433376, "- N/A -   "
33.39, 1312.56, 0.05578772, NaN, NaN, NaN, 0.0445584, "- N/A -   "
33.4, 1312.8, 0.0558016, NaN, NaN, NaN, 0.04577916, "- N/A -   "
33.41, 1313.16, 0.0558155, NaN, NaN, NaN, 0.04699994, "- N/A -   "
33.42, 1313.63, 0.0558321, NaN, NaN, NaN, 0.04699994, "- N/A -   "
33.43, 1313.992, 0.05584603, NaN, NaN, NaN, 0.0482207, "- N/A -   "
33.44, 1314.35, 0.05586269, NaN, NaN, NaN, 0.0482207, "- N/A -   "
33.45, 1315.07, 0.05587935, NaN, NaN, NaN, 0.0482207, "- N/A -   "
33.46, 1315.54, 0.05589879, NaN, NaN, NaN, 0.0482207, "- N/A -   "
33.47, 1315.9, 0.0559182, NaN, NaN, NaN, 0.04699994, "- N/A -   "
33.48, 1316.5, 0.0559349, NaN, NaN, NaN, 0.04577916, "- N/A -   "
33.49, 1316.854, 0.0559543, NaN, NaN, NaN, 0.0445584, "- N/A -   "
33.5, 1317.45, 0.055971, NaN, NaN, NaN, 0.0445584, "- N/A -   "
33.51, 1317.93, 0.05599042, NaN, NaN, NaN, 0.0433376, "- N/A -   "
33.52, 1318.52, 0.05600986, NaN, NaN, NaN, 0.0433376, "- N/A -   "
33.53, 1319, 0.0560293, NaN, NaN, NaN, 0.04089605, "- N/A -   "
33.54, 1319.6, 0.05605151, NaN, NaN, NaN, 0.0396753, "- N/A -   "
33.55, 1320.193, 0.05607095, NaN, NaN, NaN, 0.0372337, "- N/A -   "
33.56, 1320.79, 0.05609316, NaN, NaN, NaN, 0.0347922, "- N/A -   "
33.57, 1321.27, 0.0561126, NaN, NaN, NaN, 0.0347922, "- N/A -   "
33.58, 1321.86, 0.0561293, NaN, NaN, NaN, 0.0335714, "- N/A -   "
33.59, 1322.22, 0.0561459, NaN, NaN, NaN, 0.0335714, "- N/A -   "
33.6, 1322.7, 0.0561626, NaN, NaN, NaN, 0.0335714, "- N/A -   "
33.61, 1322.94, 0.0561792, NaN, NaN, NaN, 0.0335714, "- N/A -   "
33.62, 1323.41, 0.0561959, NaN, NaN, NaN, 0.0347922, "- N/A -   "
33.63, 1323.89, 0.0562126, NaN, NaN, NaN, 0.0347922, "- N/A -   "
33.64, 1324.367, 0.0562292, NaN, NaN, NaN, 0.0347922, "- N/A -   "
33.65, 1324.844, 0.0562459, NaN, NaN, NaN, 0.0347922, "- N/A -   "
33.66, 1325.32, 0.0562625, NaN, NaN, NaN, 0.0347922, "- N/A -   "
33.67, 1325.68, 0.0562792, NaN, NaN, NaN, 0.0335714, "- N/A -   "
33.68, 1326.275, 0.0562959, NaN, NaN, NaN, 0.0335714, "- N/A -   "
33.69, 1326.63, 0.0563125, NaN, NaN, NaN, 0.0335714, "- N/A -   "
33.7, 1327.11, 0.0563292, NaN, NaN, NaN, 0.0335714, "- N/A -   "
33.71, 1327.47, 0.0563458, NaN, NaN, NaN, 0.0335714, "- N/A -   "
33.72, 1327.94, 0.0563653, NaN, NaN, NaN, 0.0335714, "- N/A -   "
33.73, 1328.42, 0.0563819, NaN, NaN, NaN, 0.0323506, "- N/A -   "
33.74, 1328.9, 0.0563986, NaN, NaN, NaN, 0.0323506, "- N/A -   "
33.75, 1329.49, 0.056418, NaN, NaN, NaN, 0.03112983, "- N/A -   "
33.76, 1329.97, 0.05643748, NaN, NaN, NaN, 0.03112983, "- N/A -   "
33.77, 1330.568, 0.05645414, NaN, NaN, NaN, 0.0299091, "- N/A -   "
33.78, 1331.04, 0.05647358, NaN, NaN, NaN, 0.0286883, "- N/A -   "
33.79, 1331.522, 0.056493, NaN, NaN, NaN, 0.0274675, "- N/A -   "
33.8, 1332.12, 0.0565097, NaN, NaN, NaN, 0.0274675, "- N/A -   "
33.81, 1332.6, 0.0565291, NaN, NaN, NaN, 0.0274675, "- N/A -   "
33.82, 1332.953, 0.05654577, NaN, NaN, NaN, 0.0262467, "- N/A -   "
33.83, 1333.31, 0.0565624, NaN, NaN, NaN, 0.0274675, "- N/A -   "
33.84, 1333.67, 0.0565763, NaN, NaN, NaN, 0.0274675, "- N/A -   "
33.85, 1334.03, 0.0565902, NaN, NaN, NaN, 0.0286883, "- N/A -   "
33.86, 1334.5, 0.0566041, NaN, NaN, NaN, 0.0299091, "- N/A -   "
33.87, 1334.74, 0.056618, NaN, NaN, NaN, 0.03112983, "- N/A -   "
33.88, 1335.22, 0.05663463, NaN, NaN, NaN, 0.0323506, "- N/A -   "
33.89, 1335.58, 0.05664851, NaN, NaN, NaN, 0.0323506, "- N/A -   "
33.9, 1335.82, 0.05666517, NaN, NaN, NaN, 0.0335714, "- N/A -   "
33.91, 1336.41, 0.0566791, NaN, NaN, NaN, 0.0335714, "- N/A -   "
33.92, 1336.77, 0.0566957, NaN, NaN, NaN, 0.0347922, "- N/A -   "
33.93, 1337.13, 0.0567068, NaN, NaN, NaN, 0.03601294, "- N/A -   "
33.94, 1337.37, 0.0567207, NaN, NaN, NaN, 0.0372337, "- N/A -   "
33.95, 1337.84, 0.0567374, NaN, NaN, NaN, 0.0384545, "- N/A -   "
33.96, 1338.08, 0.05675125, NaN, NaN, NaN, 0.0384545, "- N/A -   "
33.97, 1338.56, 0.05676514, NaN, NaN, NaN, 0.0396753, "- N/A -   "
33.98, 1338.92, 0.05677902, NaN, NaN, NaN, 0.04089605, "- N/A -   "
33.99, 1339.27, 0.0567929, NaN, NaN, NaN, 0.04211683, "- N/A -   "
34, 1339.63, 0.0568096, NaN, NaN, NaN, 0.0433376, "- N/A -   "
34.01, 1340.11, 0.0568234, NaN, NaN, NaN, 0.0433376, "- N/A -   "
34.02, 1340.35, 0.0568373, NaN, NaN, NaN, 0.0445584, "- N/A -   "
34.03, 1340.82, 0.0568512, NaN, NaN, NaN, 0.04577916, "- N/A -   "
34.04, 1341.18, 0.05686788, NaN, NaN, NaN, 0.04577916, "- N/A -   "
34.05, 1341.54, 0.05688454, NaN, NaN, NaN, 0.04577916, "- N/A -   "
34.06, 1342.02, 0.05689842, NaN, NaN, NaN, 0.04699994, "- N/A -   "
34.061, 1342.02, 0.0569012, NaN, NaN, NaN, 0.04699994, "- N/A -   "