File: 2_Tensile_Data/Hamel_ForceTest_Bolt4_Test2.csv
Time, Load (lb), Position (in), AxialStrain (in), TransverseStrain (in), Auxiliary (), Control Out (V), Stress (psi)
0.0, 1.29742, 0.0, NaN, NaN, NaN, 0.09705182, "- N/A -   "
0.01, 1.76921, 3.054427E-5, NaN, NaN, NaN, 0.09949338, "- N/A -   "
0.02, 2.241, 6.386529E-5, NaN, NaN, NaN, 0.09338949, "- N/A -   "
0.03, 2.712792, 9.440956E-5, NaN, NaN, NaN, 0.08606482, "- N/A -   "
0.04, 3.06663, 0.000124954, NaN, NaN, NaN, 0.0799609, "- N/A -   "
0.05, 3.53842, 0.000152721, NaN, NaN, NaN, 0.0750778, "- N/A -   "
0.06, 4.010214, 0.000180489, NaN, NaN, NaN, 0.0701947, "- N/A -   "
0.07, 4.246109, 0.000202703, NaN, NaN, NaN, 0.06775316, "- N/A -   "
0.08, 4.717899, 0.000224917, NaN, NaN, NaN, 0.0653116, "- N/A -   "
0.09, 4.83585, 2.471309E-4, NaN, NaN, NaN, 0.0640908, "- N/A -   "
0.1, 5.307636, 0.000266568, NaN, NaN, NaN, 0.06164927, "- N/A -   "
0.11, 5.425584, 0.000286005, NaN, NaN, NaN, 0.0604285, "- N/A -   "
0.12, 5.779426, 3.054427E-4, NaN, NaN, NaN, 0.0604285, "- N/A -   "
0.13, 6.01532, 0.00032488, NaN, NaN, NaN, 0.0592077, "- N/A -   "
0.14, 6.251216, 0.00034154, NaN, NaN, NaN, 0.0579869, "- N/A -   "
0.15, 6.487111, 3.637545E-4, NaN, NaN, NaN, 0.05676616, "- N/A -   "
0.16, 6.723006, 0.000383192, NaN, NaN, NaN, 0.0555454, "- N/A -   "
0.17, 7.07685, 0.000399852, NaN, NaN, NaN, 0.0543246, "- N/A -   "
0.18, 7.312743, 4.192895E-4, NaN, NaN, NaN, 0.0531038, "- N/A -   "
0.19, 7.548638, 4.387268E-4, NaN, NaN, NaN, 0.05188305, "- N/A -   "
0.2, 7.784533, 4.553873E-4, NaN, NaN, NaN, 0.05188305, "- N/A -   "
0.21, 8.020428, 0.000474825, NaN, NaN, NaN, 0.05066227, "- N/A -   "
0.22, 8.256323, 4.942618E-4, NaN, NaN, NaN, 0.05066227, "- N/A -   "
0.23, 8.492218, 0.000510922, NaN, NaN, NaN, 0.0494415, "- N/A -   "
0.24, 8.728113, 0.000527583, NaN, NaN, NaN, 0.0494415, "- N/A -   "
0.25, 9.081955, 5.442434E-4, NaN, NaN, NaN, 0.0494415, "- N/A -   "
0.26, 9.199903, 0.000560904, NaN, NaN, NaN, 0.0494415, "- N/A -   "
0.27, 9.435798, 0.000577564, NaN, NaN, NaN, 0.0494415, "- N/A -   "
0.28, 9.671693, 5.942249E-4, NaN, NaN, NaN, 0.0494415, "- N/A -   "
0.29, 9.78964, 6.108854E-4, NaN, NaN, NaN, 0.0494415, "- N/A -   "
0.3, 10.0255, 0.000627546, NaN, NaN, NaN, 0.0494415, "- N/A -   "
0.31, 10.26143, 6.442064E-4, NaN, NaN, NaN, 0.0494415, "- N/A -   "
0.32, 10.6153, 6.636437E-4, NaN, NaN, NaN, 0.0482207, "- N/A -   "
0.33, 10.8512, 6.830809E-4, NaN, NaN, NaN, 0.04699994, "- N/A -   "
0.34, 11.0871, 7.025182E-4, NaN, NaN, NaN, 0.04577916, "- N/A -   "
0.35, 11.323, 7.219555E-4, NaN, NaN, NaN, 0.04577916, "- N/A -   "
0.36, 11.6768, 7.38616E-4, NaN, NaN, NaN, 0.0445584, "- N/A -   "
0.37, 11.7947, 0.000758053, NaN, NaN, NaN, 0.0433376, "- N/A -   "
0.38, 12.14859, 0.000774714, NaN, NaN, NaN, 0.0433376, "- N/A -   "
0.39, 12.2665, 0.000794151, NaN, NaN, NaN, 0.04211683, "- N/A -   "
0.4, 12.6204, 0.000813588, NaN, NaN, NaN, 0.04089605, "- N/A -   "
0.41, 12.8563, 8.358023E-4, NaN, NaN, NaN, 0.0384545, "- N/A -   "
0.42, 13.2101, 8.580163E-4, NaN, NaN, NaN, 0.0372337, "- N/A -   "
0.43, 13.564, 0.00088023, NaN, NaN, NaN, 0.0347922, "- N/A -   "
0.44, 13.6819, 0.000902444, NaN, NaN, NaN, 0.0323506, "- N/A -   "
0.45, 14.0357, 9.218816E-4, NaN, NaN, NaN, 0.03112983, "- N/A -   "
0.46, 14.2716, 9.385421E-4, NaN, NaN, NaN, 0.0299091, "- N/A -   "
0.47, 14.3896, 9.552026E-4, NaN, NaN, NaN, 0.0299091, "- N/A -   "
0.48, 14.6255, 0.000971863, NaN, NaN, NaN, 0.0299091, "- N/A -   "
0.49, 14.8614, 9.885236E-4, NaN, NaN, NaN, 0.0299091, "- N/A -   "
0.5, 15.2152, 0.00100241, NaN, NaN, NaN, 0.03112983, "- N/A -   "
0.51, 15.3332, 0.00102184, NaN, NaN, NaN, 0.03112983, "- N/A -   "
0.52, 15.4511, 0.00103573, NaN, NaN, NaN, 0.03112983, "- N/A -   "
0.53, 15.805, 0.00105517, NaN, NaN, NaN, 0.03112983, "- N/A -   "
0.54, 16.0409, 0.00107183, NaN, NaN, NaN, 0.0299091, "- N/A -   "
0.55, 16.27675, 0.00108849, NaN, NaN, NaN, 0.0299091, "- N/A -   "
0.56, 16.5126, 0.00110792, NaN, NaN, NaN, 0.0299091, "- N/A -   "
0.57, 16.6306, 0.00112181, NaN, NaN, NaN, 0.0299091, "- N/A -   "
0.58, 16.86649, 0.00113569, NaN, NaN, NaN, 0.03112983, "- N/A -   "
0.59, 17.1024, 0.00114958, NaN, NaN, NaN, 0.0323506, "- N/A -   "
0.6, 17.2203, 0.001163459, NaN, NaN, NaN, 0.0335714, "- N/A -   "
0.61, 17.4562, 0.00118012, NaN, NaN, NaN, 0.0335714, "- N/A -   "
0.62, 17.6921, 0.00119678, NaN, NaN, NaN, 0.0347922, "- N/A -   "
0.63, 17.8101, 0.00121066, NaN, NaN, NaN, 0.0347922, "- N/A -   "
0.64, 18.16391, 0.00122732, NaN, NaN, NaN, 0.0347922, "- N/A -   "
0.65, 18.2819, 0.00124398, NaN, NaN, NaN, 0.03601294, "- N/A -   "
0.66, 18.5178, 0.00125787, NaN, NaN, NaN, 0.03601294, "- N/A -   "
0.67, 18.7536, 0.001274529, NaN, NaN, NaN, 0.03601294, "- N/A -   "
0.68, 18.9895, 0.00129119, NaN, NaN, NaN, 0.0372337, "- N/A -   "
0.69, 19.2254, 0.00130507, NaN, NaN, NaN, 0.0372337, "- N/A -   "
0.7, 19.4613, 0.00132173, NaN, NaN, NaN, 0.0372337, "- N/A -   "
0.71, 19.6972, 0.00133839, NaN, NaN, NaN, 0.0372337, "- N/A -   "
0.72, 19.8152, 0.00135228, NaN, NaN, NaN, 0.0384545, "- N/A -   "
0.73, 20.05107, 0.00137172, NaN, NaN, NaN, 0.0384545, "- N/A -   "
0.74, 20.287, 0.0013856, NaN, NaN, NaN, 0.0384545, "- N/A -   "
0.75, 20.52286, 0.00140504, NaN, NaN, NaN, 0.0384545, "- N/A -   "
0.76, 20.7588, 0.001421697, NaN, NaN, NaN, 0.0384545, "- N/A -   "
0.77, 20.99465, 0.00143836, NaN, NaN, NaN, 0.0372337, "- N/A -   "
0.78, 21.2305, 0.001455018, NaN, NaN, NaN, 0.0372337, "- N/A -   "
0.79, 21.46644, 0.00147168, NaN, NaN, NaN, 0.0372337, "- N/A -   "
0.8, 21.5844, 0.00148834, NaN, NaN, NaN, 0.0372337, "- N/A -   "
0.81, 21.93823, 0.00150222, NaN, NaN, NaN, 0.0384545, "- N/A -   "
0.82, 21.93823, 0.00151611, NaN, NaN, NaN, 0.0396753, "- N/A -   "
0.83, 22.1741, 0.001532767, NaN, NaN, NaN, 0.04089605, "- N/A -   "
0.84, 22.41, 0.00154665, NaN, NaN, NaN, 0.04211683, "- N/A -   "
0.85, 22.6459, 0.00156053, NaN, NaN, NaN, 0.04211683, "- N/A -   "
0.86, 22.7639, 0.001577195, NaN, NaN, NaN, 0.04211683, "- N/A -   "
0.87, 22.9998, 0.00159108, NaN, NaN, NaN, 0.0433376, "- N/A -   "
0.88, 23.2357, 0.00160496, NaN, NaN, NaN, 0.0445584, "- N/A -   "
0.89, 23.4715, 0.001621623, NaN, NaN, NaN, 0.0445584, "- N/A -   "
0.9, 23.5895, 0.00163551, NaN, NaN, NaN, 0.04577916, "- N/A -   "
0.91, 23.82539, 0.00165217, NaN, NaN, NaN, 0.04577916, "- N/A -   "
0.92, 24.0613, 0.00166883, NaN, NaN, NaN, 0.04577916, "- N/A -   "
0.93, 24.29718, 0.00168549, NaN, NaN, NaN, 0.04699994, "- N/A -   "
0.94, 24.4151, 0.00170215, NaN, NaN, NaN, 0.04699994, "- N/A -   "
0.95, 24.65102, 0.00171881, NaN, NaN, NaN, 0.04577916, "- N/A -   "
0.96, 24.8869, 0.00173547, NaN, NaN, NaN, 0.04577916, "- N/A -   "
0.97, 25.1228, 0.00175491, NaN, NaN, NaN, 0.04577916, "- N/A -   "
0.98, 25.4767, 0.00177157, NaN, NaN, NaN, 0.0445584, "- N/A -   "
0.99, 25.5946, 0.001791, NaN, NaN, NaN, 0.0433376, "- N/A -   "
1, 25.9484, 0.00181044, NaN, NaN, NaN, 0.04211683, "- N/A -   "
1.01, 26.18434, 0.00183266, NaN, NaN, NaN, 0.04089605, "- N/A -   "
1.02, 26.4202, 0.00185209, NaN, NaN, NaN, 0.0384545, "- N/A -   "
1.03, 26.7741, 0.00187431, NaN, NaN, NaN, 0.0372337, "- N/A -   "
1.04, 27.01, 0.001890968, NaN, NaN, NaN, 0.03601294, "- N/A -   "
1.05, 27.2459, 0.00190763, NaN, NaN, NaN, 0.03601294, "- N/A -   "
1.06, 27.4818, 0.001924289, NaN, NaN, NaN, 0.03601294, "- N/A -   "
1.07, 27.7177, 0.00194373, NaN, NaN, NaN, 0.0347922, "- N/A -   "
1.08, 27.95355, 0.00196316, NaN, NaN, NaN, 0.0335714, "- N/A -   "
1.09, 28.3074, 0.001982601, NaN, NaN, NaN, 0.0335714, "- N/A -   "
1.1, 28.54329, 0.002002038, NaN, NaN, NaN, 0.0323506, "- N/A -   "
1.11, 28.7792, 0.00202148, NaN, NaN, NaN, 0.03112983, "- N/A -   "
1.12, 29.0151, 0.00204091, NaN, NaN, NaN, 0.0286883, "- N/A -   "
1.13, 29.251, 0.00206035, NaN, NaN, NaN, 0.0286883, "- N/A -   "
1.14, 29.4869, 0.00207701, NaN, NaN, NaN, 0.0274675, "- N/A -   "
1.15, 29.7228, 0.002093671, NaN, NaN, NaN, 0.0286883, "- N/A -   "
1.16, 29.9587, 0.00210755, NaN, NaN, NaN, 0.0286883, "- N/A -   "
1.17, 30.1946, 0.00212422, NaN, NaN, NaN, 0.0299091, "- N/A -   "
1.18, 30.3125, 0.002138099, NaN, NaN, NaN, 0.0299091, "- N/A -   "
1.19, 30.4304, 0.00215198, NaN, NaN, NaN, 0.03112983, "- N/A -   "
1.2, 30.6663, 0.002168643, NaN, NaN, NaN, 0.0323506, "- N/A -   "
1.21, 30.9022, 0.002182527, NaN, NaN, NaN, 0.0323506, "- N/A -   "
1.22, 31.1381, 0.00219919, NaN, NaN, NaN, 0.0335714, "- N/A -   "
1.23, 31.2561, 0.002213071, NaN, NaN, NaN, 0.0335714, "- N/A -   "
1.24, 31.492, 0.002226955, NaN, NaN, NaN, 0.0347922, "- N/A -   "
1.25, 31.72787, 0.00224362, NaN, NaN, NaN, 0.0347922, "- N/A -   "
1.26, 32.08171, 0.002260276, NaN, NaN, NaN, 0.0347922, "- N/A -   "
1.27, 32.1997, 0.00227694, NaN, NaN, NaN, 0.0347922, "- N/A -   "
1.28, 32.4356, 0.00229637, NaN, NaN, NaN, 0.0335714, "- N/A -   "
1.29, 32.67145, 0.00231303, NaN, NaN, NaN, 0.0335714, "- N/A -   "
1.3, 32.9073, 0.00233247, NaN, NaN, NaN, 0.0335714, "- N/A -   "
1.31, 33.1432, 0.00234913, NaN, NaN, NaN, 0.0323506, "- N/A -   "
1.32, 33.3791, 0.00236579, NaN, NaN, NaN, 0.0323506, "- N/A -   "
1.33, 33.73298, 0.00238523, NaN, NaN, NaN, 0.03112983, "- N/A -   "
1.34, 33.8509, 0.00240189, NaN, NaN, NaN, 0.03112983, "- N/A -   "
1.35, 34.2048, 0.00241855, NaN, NaN, NaN, 0.03112983, "- N/A -   "
1.36, 34.3227, 0.00243521, NaN, NaN, NaN, 0.03112983, "- N/A -   "
1.37, 34.55861, 0.00245187, NaN, NaN, NaN, 0.0323506, "- N/A -   "
1.38, 34.6766, 0.00246576, NaN, NaN, NaN, 0.0323506, "- N/A -   "
1.39, 35.0304, 0.00248242, NaN, NaN, NaN, 0.0335714, "- N/A -   "
1.4, 35.1483, 0.0024963, NaN, NaN, NaN, 0.0335714, "- N/A -   "
1.41, 35.50219, 0.00251296, NaN, NaN, NaN, 0.0335714, "- N/A -   "
1.42, 35.6201, 0.00252684, NaN, NaN, NaN, 0.0347922, "- N/A -   "
1.43, 35.7381, 0.0025435, NaN, NaN, NaN, 0.0347922, "- N/A -   "
1.44, 35.97398, 0.00255739, NaN, NaN, NaN, 0.03601294, "- N/A -   "
1.45, 36.2099, 0.00257127, NaN, NaN, NaN, 0.0372337, "- N/A -   "
1.46, 36.32782, 0.002585156, NaN, NaN, NaN, 0.0384545, "- N/A -   "
1.47, 36.44577, 0.00259904, NaN, NaN, NaN, 0.0396753, "- N/A -   "
1.48, 36.5637, 0.00261292, NaN, NaN, NaN, 0.04089605, "- N/A -   "
1.49, 36.79961, 0.00262681, NaN, NaN, NaN, 0.04211683, "- N/A -   "
1.5, 37.0355, 0.00264347, NaN, NaN, NaN, 0.04211683, "- N/A -   "
1.51, 37.2714, 0.00266013, NaN, NaN, NaN, 0.04211683, "- N/A -   "
1.52, 37.5073, 0.00267679, NaN, NaN, NaN, 0.04211683, "- N/A -   "
1.53, 37.74319, 0.00269067, NaN, NaN, NaN, 0.0433376, "- N/A -   "
1.54, 37.8611, 0.00271011, NaN, NaN, NaN, 0.0433376, "- N/A -   "
1.55, 38.215, 0.00272677, NaN, NaN, NaN, 0.04211683, "- N/A -   "
1.56, 38.3329, 0.002743431, NaN, NaN, NaN, 0.04211683, "- N/A -   "
1.57, 38.5688, 0.00276009, NaN, NaN, NaN, 0.04211683, "- N/A -   "
1.58, 38.9227, 0.00277953, NaN, NaN, NaN, 0.04211683, "- N/A -   "
1.59, 39.04061, 0.002796189, NaN, NaN, NaN, 0.04089605, "- N/A -   "
1.6, 39.2765, 0.00281563, NaN, NaN, NaN, 0.0396753, "- N/A -   "
1.61, 39.6304, 0.00283229, NaN, NaN, NaN, 0.0396753, "- N/A -   "
1.62, 39.7483, 0.00284895, NaN, NaN, NaN, 0.0396753, "- N/A -   "
1.63, 39.98419, 0.00286561, NaN, NaN, NaN, 0.0396753, "- N/A -   "
1.64, 40.22009, 0.00288227, NaN, NaN, NaN, 0.04089605, "- N/A -   "
1.65, 40.456, 0.002898929, NaN, NaN, NaN, 0.0396753, "- N/A -   "
1.66, 40.69188, 0.00291559, NaN, NaN, NaN, 0.0396753, "- N/A -   "
1.67, 40.9278, 0.00293225, NaN, NaN, NaN, 0.0396753, "- N/A -   "
1.68, 41.04572, 0.00294891, NaN, NaN, NaN, 0.0396753, "- N/A -   "
1.69, 41.2816, 0.002965571, NaN, NaN, NaN, 0.0396753, "- N/A -   "
1.7, 41.6355, 0.002985008, NaN, NaN, NaN, 0.0396753, "- N/A -   "
1.71, 41.8714, 0.003001669, NaN, NaN, NaN, 0.0384545, "- N/A -   "
1.72, 42.1072, 0.003021106, NaN, NaN, NaN, 0.0384545, "- N/A -   "
1.73, 42.3431, 0.00303777, NaN, NaN, NaN, 0.0384545, "- N/A -   "
1.74, 42.579, 0.003054427, NaN, NaN, NaN, 0.0372337, "- N/A -   "
1.75, 42.8149, 0.00307109, NaN, NaN, NaN, 0.0372337, "- N/A -   "
1.76, 43.0508, 0.00309052, NaN, NaN, NaN, 0.0372337, "- N/A -   "
1.77, 43.2867, 0.00310719, NaN, NaN, NaN, 0.03601294, "- N/A -   "
1.78, 43.5226, 0.003123846, NaN, NaN, NaN, 0.03601294, "- N/A -   "
1.79, 43.6406, 0.003143283, NaN, NaN, NaN, 0.03601294, "- N/A -   "
1.8, 43.9944, 0.00315994, NaN, NaN, NaN, 0.03601294, "- N/A -   "
1.81, 44.2303, 0.0031766, NaN, NaN, NaN, 0.0347922, "- N/A -   "
1.82, 44.4662, 0.00319326, NaN, NaN, NaN, 0.0347922, "- N/A -   "
1.83, 44.58414, 0.003209925, NaN, NaN, NaN, 0.0347922, "- N/A -   "
1.84, 44.82, 0.003226586, NaN, NaN, NaN, 0.0347922, "- N/A -   "
1.85, 45.05593, 0.003243246, NaN, NaN, NaN, 0.0347922, "- N/A -   "
1.86, 45.29183, 0.00326268, NaN, NaN, NaN, 0.0347922, "- N/A -   "
1.87, 45.5277, 0.003279344, NaN, NaN, NaN, 0.0347922, "- N/A -   "
1.88, 45.8816, 0.003296, NaN, NaN, NaN, 0.0335714, "- N/A -   "
1.89, 46.11746, 0.003315442, NaN, NaN, NaN, 0.0335714, "- N/A -   "
1.9, 46.3534, 0.00332933, NaN, NaN, NaN, 0.0335714, "- N/A -   "
1.91, 46.4713, 0.00334876, NaN, NaN, NaN, 0.0335714, "- N/A -   "
1.92, 46.7072, 0.00336542, NaN, NaN, NaN, 0.0323506, "- N/A -   "
1.93, 47.061, 0.003382084, NaN, NaN, NaN, 0.0323506, "- N/A -   "
1.94, 47.179, 0.00339874, NaN, NaN, NaN, 0.0323506, "- N/A -   "
1.95, 47.4149, 0.003415405, NaN, NaN, NaN, 0.0335714, "- N/A -   "
1.96, 47.5328, 0.00342929, NaN, NaN, NaN, 0.0335714, "- N/A -   "
1.97, 47.65078, 0.00344595, NaN, NaN, NaN, 0.0347922, "- N/A -   "
1.98, 47.8867, 0.00346261, NaN, NaN, NaN, 0.0335714, "- N/A -   "
1.99, 48.00462, 0.00347649, NaN, NaN, NaN, 0.0347922, "- N/A -   "
2, 48.3585, 0.003493154, NaN, NaN, NaN, 0.0347922, "- N/A -   "
2.01, 48.47641, 0.00350981, NaN, NaN, NaN, 0.0347922, "- N/A -   "
2.02, 48.7123, 0.003526475, NaN, NaN, NaN, 0.0347922, "- N/A -   "
2.03, 48.9482, 0.00354591, NaN, NaN, NaN, 0.0335714, "- N/A -   "
2.04, 49.1841, 0.00356257, NaN, NaN, NaN, 0.0335714, "- N/A -   "
2.05, 49.41999, 0.00357923, NaN, NaN, NaN, 0.0347922, "- N/A -   "
2.06, 49.6559, 0.00359312, NaN, NaN, NaN, 0.0347922, "- N/A -   "
2.07, 49.8918, 0.00360978, NaN, NaN, NaN, 0.0347922, "- N/A -   "
2.08, 50.1277, 0.003626438, NaN, NaN, NaN, 0.0347922, "- N/A -   "
2.09, 50.2456, 0.0036431, NaN, NaN, NaN, 0.0347922, "- N/A -   "
2.1, 50.4815, 0.00365976, NaN, NaN, NaN, 0.0347922, "- N/A -   "
2.11, 50.5995, 0.00367642, NaN, NaN, NaN, 0.0347922, "- N/A -   "
2.12, 50.9533, 0.00369308, NaN, NaN, NaN, 0.0347922, "- N/A -   "
2.13, 51.0713, 0.00370974, NaN, NaN, NaN, 0.0347922, "- N/A -   "
2.14, 51.4251, 0.0037264, NaN, NaN, NaN, 0.0347922, "- N/A -   "
2.15, 51.543, 0.00374306, NaN, NaN, NaN, 0.03601294, "- N/A -   "
2.16, 51.7789, 0.00375972, NaN, NaN, NaN, 0.0347922, "- N/A -   "
2.17, 52.01483, 0.00377361, NaN, NaN, NaN, 0.03601294, "- N/A -   "
2.18, 52.25073, 0.00379027, NaN, NaN, NaN, 0.03601294, "- N/A -   "
2.19, 52.48662, 0.00380415, NaN, NaN, NaN, 0.0372337, "- N/A -   "
2.2, 52.48662, 0.00382081, NaN, NaN, NaN, 0.0372337, "- N/A -   "
2.21, 52.84047, 0.00383747, NaN, NaN, NaN, 0.0372337, "- N/A -   "
2.22, 52.9584, 0.00385413, NaN, NaN, NaN, 0.0384545, "- N/A -   "
2.23, 53.3123, 0.00386802, NaN, NaN, NaN, 0.0384545, "- N/A -   "
2.24, 53.4302, 0.00388468, NaN, NaN, NaN, 0.0384545, "- N/A -   "
2.25, 53.6661, 0.00390134, NaN, NaN, NaN, 0.0396753, "- N/A -   "
2.26, 53.902, 0.00391522, NaN, NaN, NaN, 0.0396753, "- N/A -   "
2.27, 54.0199, 0.00393188, NaN, NaN, NaN, 0.0396753, "- N/A -   "
2.28, 54.2558, 0.00394854, NaN, NaN, NaN, 0.04089605, "- N/A -   "
2.29, 54.4917, 0.00396242, NaN, NaN, NaN, 0.04089605, "- N/A -   "
2.3, 54.7276, 0.00397909, NaN, NaN, NaN, 0.04211683, "- N/A -   "
2.31, 54.8456, 0.003992969, NaN, NaN, NaN, 0.04211683, "- N/A -   "
2.32, 55.0815, 0.004006853, NaN, NaN, NaN, 0.0433376, "- N/A -   "
2.33, 55.3174, 0.00402351, NaN, NaN, NaN, 0.0433376, "- N/A -   "
2.34, 55.43531, 0.00404017, NaN, NaN, NaN, 0.0445584, "- N/A -   "
2.35, 55.6712, 0.00405406, NaN, NaN, NaN, 0.0445584, "- N/A -   "
2.36, 55.9071, 0.00407349, NaN, NaN, NaN, 0.0445584, "- N/A -   "
2.37, 56.2609, 0.00409016, NaN, NaN, NaN, 0.0433376, "- N/A -   "
2.38, 56.4968, 0.004106816, NaN, NaN, NaN, 0.0433376, "- N/A -   "
2.39, 56.73273, 0.00412625, NaN, NaN, NaN, 0.0433376, "- N/A -   "
2.4, 56.9686, 0.00414291, NaN, NaN, NaN, 0.04211683, "- N/A -   "
2.41, 57.20452, 0.00416235, NaN, NaN, NaN, 0.04089605, "- N/A -   "
2.42, 57.44042, 0.00418179, NaN, NaN, NaN, 0.04089605, "- N/A -   "
2.43, 57.5584, 0.00419845, NaN, NaN, NaN, 0.0396753, "- N/A -   "
2.44, 57.91221, 0.004217886, NaN, NaN, NaN, 0.0396753, "- N/A -   "
2.45, 58.26605, 0.00423732, NaN, NaN, NaN, 0.0384545, "- N/A -   "
2.46, 58.384, 0.004253984, NaN, NaN, NaN, 0.0372337, "- N/A -   "
2.47, 58.7378, 0.004276198, NaN, NaN, NaN, 0.03601294, "- N/A -   "
2.48, 58.9737, 0.00429286, NaN, NaN, NaN, 0.0347922, "- N/A -   "
2.49, 59.0917, 0.004312296, NaN, NaN, NaN, 0.0347922, "- N/A -   "
2.5, 59.3276, 0.004328956, NaN, NaN, NaN, 0.0335714, "- N/A -   "
2.51, 59.5635, 0.00434839, NaN, NaN, NaN, 0.0335714, "- N/A -   "
2.52, 59.79937, 0.004365054, NaN, NaN, NaN, 0.0323506, "- N/A -   "
2.53, 60.0353, 0.004381715, NaN, NaN, NaN, 0.0323506, "- N/A -   "
2.54, 60.27116, 0.004398375, NaN, NaN, NaN, 0.0335714, "- N/A -   "
2.55, 60.3891, 0.00441504, NaN, NaN, NaN, 0.0335714, "- N/A -   "
2.56, 60.625, 0.0044317, NaN, NaN, NaN, 0.0335714, "- N/A -   "
2.57, 60.8609, 0.00444558, NaN, NaN, NaN, 0.0335714, "- N/A -   "
2.58, 61.09679, 0.004465017, NaN, NaN, NaN, 0.0335714, "- N/A -   "
2.59, 61.3327, 0.004481678, NaN, NaN, NaN, 0.0323506, "- N/A -   "
2.6, 61.45063, 0.004498338, NaN, NaN, NaN, 0.0323506, "- N/A -   "
2.61, 61.6865, 0.004515, NaN, NaN, NaN, 0.0323506, "- N/A -   "
2.62, 62.0404, 0.004531659, NaN, NaN, NaN, 0.0323506, "- N/A -   "
2.63, 62.1583, 0.004551096, NaN, NaN, NaN, 0.0323506, "- N/A -   "
2.64, 62.3942, 0.004567757, NaN, NaN, NaN, 0.0323506, "- N/A -   "
2.65, 62.7481, 0.004584417, NaN, NaN, NaN, 0.03112983, "- N/A -   "
2.66, 62.866, 0.004603855, NaN, NaN, NaN, 0.03112983, "- N/A -   "
2.67, 63.1019, 0.004620515, NaN, NaN, NaN, 0.0299091, "- N/A -   "
2.68, 63.33779, 0.004639952, NaN, NaN, NaN, 0.0299091, "- N/A -   "
2.69, 63.5737, 0.004656613, NaN, NaN, NaN, 0.0286883, "- N/A -   "
2.7, 63.80958, 0.00467605, NaN, NaN, NaN, 0.0274675, "- N/A -   "
2.71, 64.04548, 0.004692711, NaN, NaN, NaN, 0.0274675, "- N/A -   "
2.72, 64.28137, 0.004712148, NaN, NaN, NaN, 0.0274675, "- N/A -   "
2.73, 64.3993, 0.00472881, NaN, NaN, NaN, 0.0274675, "- N/A -   "
2.74, 64.6352, 0.004745469, NaN, NaN, NaN, 0.0262467, "- N/A -   "
2.75, 64.75317, 0.00476213, NaN, NaN, NaN, 0.0262467, "- N/A -   "
2.76, 64.98906, 0.00477879, NaN, NaN, NaN, 0.0274675, "- N/A -   "
2.77, 65.22495, 0.004792674, NaN, NaN, NaN, 0.0274675, "- N/A -   "
2.78, 65.3429, 0.00480656, NaN, NaN, NaN, 0.0299091, "- N/A -   "
2.79, 65.4608, 0.00482044, NaN, NaN, NaN, 0.0299091, "- N/A -   "
2.8, 65.69674, 0.004834325, NaN, NaN, NaN, 0.03112983, "- N/A -   "
2.81, 65.81469, 0.00484821, NaN, NaN, NaN, 0.0323506, "- N/A -   "
2.82, 66.05058, 0.004864869, NaN, NaN, NaN, 0.0335714, "- N/A -   "
2.83, 66.05058, 0.004875976, NaN, NaN, NaN, 0.0347922, "- N/A -   "
2.84, 66.2865, 0.004892637, NaN, NaN, NaN, 0.0347922, "- N/A -   "
2.85, 66.52237, 0.00490652, NaN, NaN, NaN, 0.03601294, "- N/A -   "
2.86, 66.64032, 0.0049204, NaN, NaN, NaN, 0.0372337, "- N/A -   "
2.87, 66.75827, 0.004934288, NaN, NaN, NaN, 0.0384545, "- N/A -   "
2.88, 66.87622, 0.004948172, NaN, NaN, NaN, 0.0396753, "- N/A -   "
2.89, 66.99416, 0.004962056, NaN, NaN, NaN, 0.04089605, "- N/A -   "
2.9, 67.23006, 0.004975939, NaN, NaN, NaN, 0.04211683, "- N/A -   "
2.91, 67.46596, 0.0049926, NaN, NaN, NaN, 0.04211683, "- N/A -   "
2.92, 67.5839, 0.00500648, NaN, NaN, NaN, 0.0433376, "- N/A -   "
2.93, 67.81979, 0.005023144, NaN, NaN, NaN, 0.0445584, "- N/A -   "
2.94, 68.05569, 0.005039805, NaN, NaN, NaN, 0.0445584, "- N/A -   "
2.95, 68.29159, 0.005056465, NaN, NaN, NaN, 0.0445584, "- N/A -   "
2.96, 68.52748, 0.005070349, NaN, NaN, NaN, 0.0445584, "- N/A -   "
2.97, 68.7634, 0.005087009, NaN, NaN, NaN, 0.0445584, "- N/A -   "
2.98, 68.8813, 0.00510367, NaN, NaN, NaN, 0.0445584, "- N/A -   "
2.99, 68.9993, 0.005117554, NaN, NaN, NaN, 0.04577916, "- N/A -   "
3, 69.23517, 0.005134214, NaN, NaN, NaN, 0.04577916, "- N/A -   "
3.01, 69.47106, 0.005150875, NaN, NaN, NaN, 0.04577916, "- N/A -   "
3.02, 69.707, 0.005167535, NaN, NaN, NaN, 0.04577916, "- N/A -   "
3.03, 69.94285, 0.005186972, NaN, NaN, NaN, 0.0445584, "- N/A -   "
3.04, 70.0608, 0.005203633, NaN, NaN, NaN, 0.0445584, "- N/A -   "
3.05, 70.29669, 0.00522029, NaN, NaN, NaN, 0.0445584, "- N/A -   "
3.06, 70.5326, 0.005239731, NaN, NaN, NaN, 0.0433376, "- N/A -   "
3.07, 70.88643, 0.005261945, NaN, NaN, NaN, 0.04211683, "- N/A -   "
3.08, 71.12233, 0.00528138, NaN, NaN, NaN, 0.0396753, "- N/A -   "
3.09, 71.4762, 0.00530082, NaN, NaN, NaN, 0.0384545, "- N/A -   "
3.1, 71.59412, 0.00531748, NaN, NaN, NaN, 0.0384545, "- N/A -   "
3.11, 71.83001, 0.00533692, NaN, NaN, NaN, 0.0384545, "- N/A -   "
3.12, 72.06591, 0.00535358, NaN, NaN, NaN, 0.0372337, "- N/A -   "
3.13, 72.1838, 0.00537024, NaN, NaN, NaN, 0.0372337, "- N/A -   "
3.14, 72.41975, 0.00538968, NaN, NaN, NaN, 0.03601294, "- N/A -   "
3.15, 72.77359, 0.00540911, NaN, NaN, NaN, 0.0347922, "- N/A -   "
3.16, 73.00948, 0.00542855, NaN, NaN, NaN, 0.0335714, "- N/A -   "
3.17, 73.2454, 0.00544521, NaN, NaN, NaN, 0.0347922, "- N/A -   "
3.18, 73.48127, 0.005461871, NaN, NaN, NaN, 0.0335714, "- N/A -   "
3.19, 73.59922, 0.00548131, NaN, NaN, NaN, 0.0335714, "- N/A -   "
3.2, 73.83511, 0.00549797, NaN, NaN, NaN, 0.0323506, "- N/A -   "
3.21, 74.071, 0.005514629, NaN, NaN, NaN, 0.0335714, "- N/A -   "
3.22, 74.071, 0.00553129, NaN, NaN, NaN, 0.0335714, "- N/A -   "
3.23, 74.42485, 0.00554795, NaN, NaN, NaN, 0.0323506, "- N/A -   "
3.24, 74.66075, 0.00556461, NaN, NaN, NaN, 0.0323506, "- N/A -   "
3.25, 74.8966, 0.005584048, NaN, NaN, NaN, 0.0323506, "- N/A -   "
3.26, 75.0146, 0.005597932, NaN, NaN, NaN, 0.0323506, "- N/A -   "
3.27, 75.25049, 0.00561737, NaN, NaN, NaN, 0.03112983, "- N/A -   "
3.28, 75.48638, 0.00563681, NaN, NaN, NaN, 0.03112983, "- N/A -   "
3.29, 75.8402, 0.00565347, NaN, NaN, NaN, 0.0299091, "- N/A -   "
3.3, 75.95817, 0.005672904, NaN, NaN, NaN, 0.0299091, "- N/A -   "
3.31, 76.19407, 0.00568956, NaN, NaN, NaN, 0.0286883, "- N/A -   "
3.32, 76.43, 0.00570623, NaN, NaN, NaN, 0.0286883, "- N/A -   "
3.33, 76.6659, 0.00572289, NaN, NaN, NaN, 0.0286883, "- N/A -   "
3.34, 76.7838, 0.00573955, NaN, NaN, NaN, 0.0299091, "- N/A -   "
3.35, 77.0197, 0.005756207, NaN, NaN, NaN, 0.0286883, "- N/A -   "
3.36, 77.25559, 0.00577287, NaN, NaN, NaN, 0.0286883, "- N/A -   "
3.37, 77.49149, 0.00578953, NaN, NaN, NaN, 0.0286883, "- N/A -   "
3.38, 77.6094, 0.00580619, NaN, NaN, NaN, 0.0286883, "- N/A -   "
3.39, 77.72738, 0.00582285, NaN, NaN, NaN, 0.0299091, "- N/A -   "
3.4, 77.96328, 0.00583673, NaN, NaN, NaN, 0.0299091, "- N/A -   "
3.41, 78.19917, 0.00585617, NaN, NaN, NaN, 0.0299091, "- N/A -   "
3.42, 78.4351, 0.00587005, NaN, NaN, NaN, 0.0299091, "- N/A -   "
3.43, 78.55301, 0.005886714, NaN, NaN, NaN, 0.0299091, "- N/A -   "
3.44, 78.78891, 0.0059006, NaN, NaN, NaN, 0.03112983, "- N/A -   "
3.45, 78.90686, 0.005914482, NaN, NaN, NaN, 0.0323506, "- N/A -   "
3.46, 79.14275, 0.00592837, NaN, NaN, NaN, 0.0335714, "- N/A -   "
3.47, 79.2607, 0.00594225, NaN, NaN, NaN, 0.0347922, "- N/A -   "
3.48, 79.37865, 0.005956133, NaN, NaN, NaN, 0.03601294, "- N/A -   "
3.49, 79.61454, 0.00597002, NaN, NaN, NaN, 0.0372337, "- N/A -   "
3.5, 79.73249, 0.0059839, NaN, NaN, NaN, 0.0384545, "- N/A -   "
3.51, 79.96838, 0.00600056, NaN, NaN, NaN, 0.0384545, "- N/A -   "
3.52, 80.0863, 0.006014445, NaN, NaN, NaN, 0.0396753, "- N/A -   "
3.53, 80.32223, 0.006031105, NaN, NaN, NaN, 0.04211683, "- N/A -   "
3.54, 80.55813, 0.006044989, NaN, NaN, NaN, 0.04211683, "- N/A -   "
3.55, 80.67606, 0.00606165, NaN, NaN, NaN, 0.0433376, "- N/A -   "
3.56, 80.912, 0.006075533, NaN, NaN, NaN, 0.0433376, "- N/A -   "
3.57, 81.14786, 0.00609219, NaN, NaN, NaN, 0.0433376, "- N/A -   "
3.58, 81.38376, 0.006108854, NaN, NaN, NaN, 0.0433376, "- N/A -   "
3.59, 81.5017, 0.006125515, NaN, NaN, NaN, 0.0433376, "- N/A -   "
3.6, 81.7376, 0.006142175, NaN, NaN, NaN, 0.0445584, "- N/A -   "
3.61, 81.97349, 0.00615884, NaN, NaN, NaN, 0.0433376, "- N/A -   "
3.62, 82.20939, 0.006175496, NaN, NaN, NaN, 0.0433376, "- N/A -   "
3.63, 82.56323, 0.006192157, NaN, NaN, NaN, 0.0433376, "- N/A -   "
3.64, 82.56323, 0.006208817, NaN, NaN, NaN, 0.0433376, "- N/A -   "
3.65, 82.91707, 0.006225478, NaN, NaN, NaN, 0.0433376, "- N/A -   "
3.66, 83.03502, 0.006242138, NaN, NaN, NaN, 0.0445584, "- N/A -   "
3.67, 83.15297, 0.006256022, NaN, NaN, NaN, 0.0445584, "- N/A -   "
3.68, 83.38886, 0.006272683, NaN, NaN, NaN, 0.0445584, "- N/A -   "
3.69, 83.6248, 0.006289343, NaN, NaN, NaN, 0.04577916, "- N/A -   "
3.7, 83.74271, 0.006306004, NaN, NaN, NaN, 0.0445584, "- N/A -   "
3.71, 84.09654, 0.006322664, NaN, NaN, NaN, 0.0445584, "- N/A -   "
3.72, 84.33244, 0.00633932, NaN, NaN, NaN, 0.04577916, "- N/A -   "
3.73, 84.56834, 0.006355985, NaN, NaN, NaN, 0.0445584, "- N/A -   "
3.74, 84.80424, 0.00637542, NaN, NaN, NaN, 0.0445584, "- N/A -   "
3.75, 85.15807, 0.006392083, NaN, NaN, NaN, 0.0433376, "- N/A -   "
3.76, 85.276, 0.006408743, NaN, NaN, NaN, 0.0433376, "- N/A -   "
3.77, 85.51192, 0.00642818, NaN, NaN, NaN, 0.04211683, "- N/A -   "
3.78, 85.74781, 0.006447618, NaN, NaN, NaN, 0.04089605, "- N/A -   "
3.79, 85.9837, 0.006467055, NaN, NaN, NaN, 0.0396753, "- N/A -   "
3.8, 86.33755, 0.00648649, NaN, NaN, NaN, 0.0396753, "- N/A -   "
3.81, 86.57345, 0.00650593, NaN, NaN, NaN, 0.0372337, "- N/A -   "
3.82, 86.80934, 0.006525367, NaN, NaN, NaN, 0.03601294, "- N/A -   "
3.83, 87.04523, 0.006544804, NaN, NaN, NaN, 0.0347922, "- N/A -   "
3.84, 87.28113, 0.006564242, NaN, NaN, NaN, 0.0335714, "- N/A -   "
3.85, 87.51702, 0.006583679, NaN, NaN, NaN, 0.0335714, "- N/A -   "
3.86, 87.8709, 0.006603116, NaN, NaN, NaN, 0.0323506, "- N/A -   "
3.87, 88.10676, 0.006619777, NaN, NaN, NaN, 0.03112983, "- N/A -   "
3.88, 88.34265, 0.006639214, NaN, NaN, NaN, 0.03112983, "- N/A -   "
3.89, 88.57855, 0.006653098, NaN, NaN, NaN, 0.03112983, "- N/A -   "
3.9, 88.6965, 0.00666976, NaN, NaN, NaN, 0.03112983, "- N/A -   "
3.91, 88.9324, 0.006686419, NaN, NaN, NaN, 0.03112983, "- N/A -   "
3.92, 89.05035, 0.006705856, NaN, NaN, NaN, 0.03112983, "- N/A -   "
3.93, 89.40418, 0.00672252, NaN, NaN, NaN, 0.0299091, "- N/A -   "
3.94, 89.52213, 0.00673918, NaN, NaN, NaN, 0.0299091, "- N/A -   "
3.95, 89.758, 0.00675584, NaN, NaN, NaN, 0.0299091, "- N/A -   "
3.96, 89.99392, 0.006772498, NaN, NaN, NaN, 0.0299091, "- N/A -   "
3.97, 90.22981, 0.00679194, NaN, NaN, NaN, 0.0299091, "- N/A -   "
3.98, 90.4657, 0.006808596, NaN, NaN, NaN, 0.0286883, "- N/A -   "
3.99, 90.70161, 0.00682248, NaN, NaN, NaN, 0.0299091, "- N/A -   "
4, 90.81956, 0.00683914, NaN, NaN, NaN, 0.0299091, "- N/A -   "
4.01, 90.9375, 0.0068558, NaN, NaN, NaN, 0.03112983, "- N/A -   "
4.02, 91.1734, 0.00686968, NaN, NaN, NaN, 0.03112983, "- N/A -   "
4.03, 91.2913, 0.006886345, NaN, NaN, NaN, 0.0323506, "- N/A -   "
4.04, 91.64519, 0.00690023, NaN, NaN, NaN, 0.0323506, "- N/A -   "
4.05, 91.88108, 0.006916889, NaN, NaN, NaN, 0.0323506, "- N/A -   "
4.06, 92.117, 0.00693355, NaN, NaN, NaN, 0.0323506, "- N/A -   "
4.07, 92.23492, 0.00695021, NaN, NaN, NaN, 0.0335714, "- N/A -   "
4.08, 92.47082, 0.006964094, NaN, NaN, NaN, 0.0335714, "- N/A -   "
4.09, 92.70671, 0.00698075, NaN, NaN, NaN, 0.0335714, "- N/A -   "
4.1, 92.82466, 0.006994638, NaN, NaN, NaN, 0.0347922, "- N/A -   "
4.11, 93.0606, 0.0070113, NaN, NaN, NaN, 0.03601294, "- N/A -   "
4.12, 93.1785, 0.00702796, NaN, NaN, NaN, 0.03601294, "- N/A -   "
4.13, 93.41439, 0.007041843, NaN, NaN, NaN, 0.03601294, "- N/A -   "
4.14, 93.65029, 0.00706128, NaN, NaN, NaN, 0.0347922, "- N/A -   "
4.15, 94.0041, 0.00707794, NaN, NaN, NaN, 0.0347922, "- N/A -   "
4.16, 94.1221, 0.007094601, NaN, NaN, NaN, 0.0347922, "- N/A -   "
4.17, 94.47592, 0.00711126, NaN, NaN, NaN, 0.0347922, "- N/A -   "
4.18, 94.7118, 0.00712792, NaN, NaN, NaN, 0.03601294, "- N/A -   "
4.19, 94.8298, 0.007141806, NaN, NaN, NaN, 0.03601294, "- N/A -   "
4.2, 94.9477, 0.00715569, NaN, NaN, NaN, 0.0372337, "- N/A -   "
4.21, 95.18361, 0.00716957, NaN, NaN, NaN, 0.0384545, "- N/A -   "
4.22, 95.41951, 0.00718623, NaN, NaN, NaN, 0.0396753, "- N/A -   "
4.23, 95.5374, 0.00719734, NaN, NaN, NaN, 0.04089605, "- N/A -   "
4.24, 95.7733, 0.007214, NaN, NaN, NaN, 0.04089605, "- N/A -   "
4.25, 96.12719, 0.00723066, NaN, NaN, NaN, 0.04089605, "- N/A -   "
4.26, 96.24514, 0.00724455, NaN, NaN, NaN, 0.04211683, "- N/A -   "
4.27, 96.36309, 0.00725843, NaN, NaN, NaN, 0.0433376, "- N/A -   "
4.28, 96.599, 0.00727509, NaN, NaN, NaN, 0.0433376, "- N/A -   "
4.29, 96.83487, 0.00729175, NaN, NaN, NaN, 0.0445584, "- N/A -   "
4.3, 96.95282, 0.00730563, NaN, NaN, NaN, 0.0445584, "- N/A -   "
4.31, 97.30666, 0.00732229, NaN, NaN, NaN, 0.0445584, "- N/A -   "
4.32, 97.4246, 0.00733896, NaN, NaN, NaN, 0.0445584, "- N/A -   "
4.33, 97.6605, 0.00735562, NaN, NaN, NaN, 0.0445584, "- N/A -   "
4.34, 97.8964, 0.00737228, NaN, NaN, NaN, 0.04577916, "- N/A -   "
4.35, 98.13229, 0.00738616, NaN, NaN, NaN, 0.04577916, "- N/A -   "
4.36, 98.3682, 0.00740282, NaN, NaN, NaN, 0.04577916, "- N/A -   "
4.37, 98.60408, 0.00741948, NaN, NaN, NaN, 0.04699994, "- N/A -   "
4.38, 98.83998, 0.007436142, NaN, NaN, NaN, 0.04577916, "- N/A -   "
4.39, 99.0759, 0.00745558, NaN, NaN, NaN, 0.0445584, "- N/A -   "
4.4, 99.42972, 0.00747502, NaN, NaN, NaN, 0.0433376, "- N/A -   "
4.41, 99.66561, 0.00749168, NaN, NaN, NaN, 0.0433376, "- N/A -   "
4.42, 99.9015, 0.007511114, NaN, NaN, NaN, 0.04211683, "- N/A -   "
4.43, 100.255, 0.00753055, NaN, NaN, NaN, 0.04089605, "- N/A -   "
4.44, 100.491, 0.00754999, NaN, NaN, NaN, 0.04089605, "- N/A -   "
4.45, 100.727, 0.00756943, NaN, NaN, NaN, 0.0396753, "- N/A -   "
4.46, 100.963, 0.00758609, NaN, NaN, NaN, 0.0384545, "- N/A -   "
4.47, 101.317, 0.007605524, NaN, NaN, NaN, 0.0372337, "- N/A -   "
4.48, 101.553, 0.007624961, NaN, NaN, NaN, 0.03601294, "- N/A -   "
4.49, 101.789, 0.00764162, NaN, NaN, NaN, 0.03601294, "- N/A -   "
4.5, 102.143, 0.00766106, NaN, NaN, NaN, 0.0347922, "- N/A -   "
4.51, 102.3784, 0.007677719, NaN, NaN, NaN, 0.0347922, "- N/A -   "
4.52, 102.6143, 0.00769716, NaN, NaN, NaN, 0.0335714, "- N/A -   "
4.53, 102.968, 0.007716594, NaN, NaN, NaN, 0.0323506, "- N/A -   "
4.54, 103.086, 0.00773325, NaN, NaN, NaN, 0.0323506, "- N/A -   "
4.55, 103.322, 0.00775269, NaN, NaN, NaN, 0.0323506, "- N/A -   "
4.56, 103.558, 0.007769352, NaN, NaN, NaN, 0.0323506, "- N/A -   "
4.57, 103.912, 0.00778601, NaN, NaN, NaN, 0.03112983, "- N/A -   "
4.58, 104.03, 0.00780267, NaN, NaN, NaN, 0.03112983, "- N/A -   "
4.59, 104.266, 0.007819334, NaN, NaN, NaN, 0.03112983, "- N/A -   "
4.6, 104.501, 0.007835994, NaN, NaN, NaN, 0.0323506, "- N/A -   "
4.61, 104.737, 0.007849878, NaN, NaN, NaN, 0.0323506, "- N/A -   "
4.62, 104.855, 0.007866538, NaN, NaN, NaN, 0.0335714, "- N/A -   "
4.63, 105.091, 0.007880422, NaN, NaN, NaN, 0.0335714, "- N/A -   "
4.64, 105.327, 0.007897083, NaN, NaN, NaN, 0.0347922, "- N/A -   "
4.65, 105.563, 0.007910966, NaN, NaN, NaN, 0.0347922, "- N/A -   "
4.66, 105.681, 0.007927627, NaN, NaN, NaN, 0.0347922, "- N/A -   "
4.67, 106.035, 0.00794151, NaN, NaN, NaN, 0.03601294, "- N/A -   "
4.68, 106.153, 0.007958171, NaN, NaN, NaN, 0.03601294, "- N/A -   "
4.69, 106.389, 0.007977608, NaN, NaN, NaN, 0.03601294, "- N/A -   "
4.7, 106.742, 0.007994269, NaN, NaN, NaN, 0.0347922, "- N/A -   "
4.71, 106.978, 0.008013706, NaN, NaN, NaN, 0.0347922, "- N/A -   "
4.72, 107.214, 0.008030367, NaN, NaN, NaN, 0.0347922, "- N/A -   "
4.73, 107.568, 0.008047027, NaN, NaN, NaN, 0.0335714, "- N/A -   "
4.74, 107.804, 0.008063688, NaN, NaN, NaN, 0.0335714, "- N/A -   "
4.75, 107.922, 0.008080348, NaN, NaN, NaN, 0.0335714, "- N/A -   "
4.76, 108.158, 0.008099785, NaN, NaN, NaN, 0.0335714, "- N/A -   "
4.77, 108.394, 0.008116446, NaN, NaN, NaN, 0.0323506, "- N/A -   "
4.78, 108.748, 0.008133106, NaN, NaN, NaN, 0.0323506, "- N/A -   "
4.79, 108.983, 0.008152544, NaN, NaN, NaN, 0.0323506, "- N/A -   "
4.8, 109.219, 0.008166427, NaN, NaN, NaN, 0.0323506, "- N/A -   "
4.81, 109.3373, 0.008183088, NaN, NaN, NaN, 0.0323506, "- N/A -   "
4.82, 109.691, 0.008199749, NaN, NaN, NaN, 0.0323506, "- N/A -   "
4.83, 109.927, 0.008213632, NaN, NaN, NaN, 0.0335714, "- N/A -   "
4.84, 110.163, 0.008230293, NaN, NaN, NaN, 0.0347922, "- N/A -   "
4.85, 110.281, 0.008244176, NaN, NaN, NaN, 0.03601294, "- N/A -   "
4.86, 110.517, 0.008258061, NaN, NaN, NaN, 0.03601294, "- N/A -   "
4.87, 110.635, 0.008271944, NaN, NaN, NaN, 0.0372337, "- N/A -   "
4.88, 110.871, 0.008288604, NaN, NaN, NaN, 0.0384545, "- N/A -   "
4.89, 110.989, 0.008302488, NaN, NaN, NaN, 0.0384545, "- N/A -   "
4.9, 111.224, 0.00831637, NaN, NaN, NaN, 0.0396753, "- N/A -   "
4.91, 111.46, 0.008330256, NaN, NaN, NaN, 0.04089605, "- N/A -   "
4.92, 111.696, 0.008346916, NaN, NaN, NaN, 0.04089605, "- N/A -   "
4.93, 111.932, 0.0083608, NaN, NaN, NaN, 0.04211683, "- N/A -   "
4.94, 112.168, 0.008377461, NaN, NaN, NaN, 0.04211683, "- N/A -   "
4.95, 112.404, 0.008394121, NaN, NaN, NaN, 0.04211683, "- N/A -   "
4.96, 112.758, 0.008410782, NaN, NaN, NaN, 0.04211683, "- N/A -   "
4.97, 112.994, 0.008427442, NaN, NaN, NaN, 0.04211683, "- N/A -   "
4.98, 113.23, 0.0084441, NaN, NaN, NaN, 0.04211683, "- N/A -   "
4.99, 113.583, 0.00846354, NaN, NaN, NaN, 0.04089605, "- N/A -   "
5, 113.701, 0.008480201, NaN, NaN, NaN, 0.04089605, "- N/A -   "
5.01, 113.937, 0.008496861, NaN, NaN, NaN, 0.04089605, "- N/A -   "
5.02, 114.2911, 0.008513521, NaN, NaN, NaN, 0.04089605, "- N/A -   "
5.03, 114.409, 0.008530182, NaN, NaN, NaN, 0.04211683, "- N/A -   "
5.04, 114.645, 0.008544065, NaN, NaN, NaN, 0.04211683, "- N/A -   "
5.05, 114.881, 0.008560726, NaN, NaN, NaN, 0.04211683, "- N/A -   "
5.06, 115.117, 0.008577387, NaN, NaN, NaN, 0.04211683, "- N/A -   "
5.07, 115.471, 0.00859682, NaN, NaN, NaN, 0.04211683, "- N/A -   "
5.08, 115.824, 0.008613484, NaN, NaN, NaN, 0.04089605, "- N/A -   "
5.09, 116.06, 0.008632922, NaN, NaN, NaN, 0.0396753, "- N/A -   "
5.1, 116.296, 0.008649582, NaN, NaN, NaN, 0.0396753, "- N/A -   "
5.11, 116.5321, 0.00866902, NaN, NaN, NaN, 0.0384545, "- N/A -   "
5.12, 116.886, 0.00868568, NaN, NaN, NaN, 0.0384545, "- N/A -   "
5.13, 117.122, 0.008705118, NaN, NaN, NaN, 0.0372337, "- N/A -   "
5.14, 117.358, 0.008724554, NaN, NaN, NaN, 0.0372337, "- N/A -   "
5.15, 117.712, 0.008741215, NaN, NaN, NaN, 0.03601294, "- N/A -   "
5.16, 117.83, 0.008757875, NaN, NaN, NaN, 0.03601294, "- N/A -   "
5.17, 118.183, 0.008771759, NaN, NaN, NaN, 0.0372337, "- N/A -   "
5.18, 118.301, 0.00878842, NaN, NaN, NaN, 0.0372337, "- N/A -   "
5.19, 118.537, 0.00880508, NaN, NaN, NaN, 0.0372337, "- N/A -   "
5.2, 118.891, 0.008821741, NaN, NaN, NaN, 0.0372337, "- N/A -   "
5.21, 119.127, 0.008838401, NaN, NaN, NaN, 0.0372337, "- N/A -   "
5.22, 119.363, 0.008857839, NaN, NaN, NaN, 0.0372337, "- N/A -   "
5.23, 119.599, 0.008874499, NaN, NaN, NaN, 0.03601294, "- N/A -   "
5.24, 119.717, 0.00889116, NaN, NaN, NaN, 0.03601294, "- N/A -   "
5.25, 120.071, 0.00890782, NaN, NaN, NaN, 0.0372337, "- N/A -   "
5.26, 120.306, 0.00892448, NaN, NaN, NaN, 0.0372337, "- N/A -   "
5.27, 120.66, 0.008941141, NaN, NaN, NaN, 0.0372337, "- N/A -   "
5.28, 120.896, 0.008960579, NaN, NaN, NaN, 0.03601294, "- N/A -   "
5.29, 121.132, 0.008977239, NaN, NaN, NaN, 0.0347922, "- N/A -   "
5.3, 121.486, 0.008996677, NaN, NaN, NaN, 0.0347922, "- N/A -   "
5.31, 121.604, 0.009013337, NaN, NaN, NaN, 0.0347922, "- N/A -   "
5.32, 121.958, 0.00903, NaN, NaN, NaN, 0.0347922, "- N/A -   "
5.33, 122.194, 0.009046658, NaN, NaN, NaN, 0.0335714, "- N/A -   "
5.34, 122.547, 0.009066095, NaN, NaN, NaN, 0.0323506, "- N/A -   "
5.35, 122.783, 0.009082756, NaN, NaN, NaN, 0.0323506, "- N/A -   "
5.36, 123.019, 0.009102193, NaN, NaN, NaN, 0.0323506, "- N/A -   "
5.37, 123.373, 0.009118853, NaN, NaN, NaN, 0.0323506, "- N/A -   "
5.38, 123.609, 0.009135514, NaN, NaN, NaN, 0.03112983, "- N/A -   "
5.39, 123.845, 0.009154951, NaN, NaN, NaN, 0.03112983, "- N/A -   "
5.4, 124.199, 0.009171612, NaN, NaN, NaN, 0.0299091, "- N/A -   "
5.41, 124.435, 0.009188272, NaN, NaN, NaN, 0.03112983, "- N/A -   "
5.42, 124.67, 0.009202156, NaN, NaN, NaN, 0.03112983, "- N/A -   "
5.43, 124.788, 0.009218817, NaN, NaN, NaN, 0.03112983, "- N/A -   "
5.44, 125.024, 0.009235477, NaN, NaN, NaN, 0.0323506, "- N/A -   "
5.45, 125.26, 0.00924936, NaN, NaN, NaN, 0.0323506, "- N/A -   "
5.46, 125.496, 0.009266021, NaN, NaN, NaN, 0.0323506, "- N/A -   "
5.47, 125.732, 0.009282682, NaN, NaN, NaN, 0.0323506, "- N/A -   "
5.48, 126.086, 0.009299342, NaN, NaN, NaN, 0.0323506, "- N/A -   "
5.49, 126.322, 0.009316003, NaN, NaN, NaN, 0.0323506, "- N/A -   "
5.5, 126.558, 0.00933544, NaN, NaN, NaN, 0.03112983, "- N/A -   "
5.51, 126.794, 0.009354877, NaN, NaN, NaN, 0.03112983, "- N/A -   "
5.52, 127.147, 0.009371538, NaN, NaN, NaN, 0.0299091, "- N/A -   "
5.53, 127.383, 0.009388198, NaN, NaN, NaN, 0.03112983, "- N/A -   "
5.54, 127.619, 0.009404859, NaN, NaN, NaN, 0.03112983, "- N/A -   "
5.55, 127.855, 0.009418743, NaN, NaN, NaN, 0.03112983, "- N/A -   "
5.56, 128.091, 0.009435403, NaN, NaN, NaN, 0.03112983, "- N/A -   "
5.57, 128.327, 0.009452064, NaN, NaN, NaN, 0.03112983, "- N/A -   "
5.58, 128.563, 0.009465947, NaN, NaN, NaN, 0.0323506, "- N/A -   "
5.59, 128.6807, 0.009479831, NaN, NaN, NaN, 0.0335714, "- N/A -   "
5.6, 128.917, 0.009493715, NaN, NaN, NaN, 0.0347922, "- N/A -   "
5.61, 129.152, 0.009507598, NaN, NaN, NaN, 0.03601294, "- N/A -   "
5.62, 129.388, 0.00952148, NaN, NaN, NaN, 0.0372337, "- N/A -   "
5.63, 129.506, 0.009535367, NaN, NaN, NaN, 0.0384545, "- N/A -   "
5.64, 129.86, 0.009552027, NaN, NaN, NaN, 0.0396753, "- N/A -   "
5.65, 129.978, 0.00956591, NaN, NaN, NaN, 0.0396753, "- N/A -   "
5.66, 130.332, 0.00957979, NaN, NaN, NaN, 0.04089605, "- N/A -   "
5.67, 130.4499, 0.009596455, NaN, NaN, NaN, 0.04089605, "- N/A -   "
5.68, 130.6858, 0.009613114, NaN, NaN, NaN, 0.04211683, "- N/A -   "
5.69, 130.922, 0.009626999, NaN, NaN, NaN, 0.04211683, "- N/A -   "
5.7, 131.1576, 0.009643659, NaN, NaN, NaN, 0.0433376, "- N/A -   "
5.71, 131.511, 0.00966032, NaN, NaN, NaN, 0.04211683, "- N/A -   "
5.72, 131.747, 0.00967698, NaN, NaN, NaN, 0.04211683, "- N/A -   "
5.73, 132.101, 0.00969364, NaN, NaN, NaN, 0.04211683, "- N/A -   "
5.74, 132.219, 0.009710301, NaN, NaN, NaN, 0.0433376, "- N/A -   "
5.75, 132.573, 0.009724185, NaN, NaN, NaN, 0.0433376, "- N/A -   "
5.76, 132.6909, 0.009740844, NaN, NaN, NaN, 0.0445584, "- N/A -   "
5.77, 132.9268, 0.00975473, NaN, NaN, NaN, 0.0445584, "- N/A -   "
5.78, 133.281, 0.009771389, NaN, NaN, NaN, 0.0445584, "- N/A -   "
5.79, 133.517, 0.00978805, NaN, NaN, NaN, 0.0445584, "- N/A -   "
5.8, 133.87, 0.009804711, NaN, NaN, NaN, 0.0445584, "- N/A -   "
5.81, 133.988, 0.009821371, NaN, NaN, NaN, 0.0445584, "- N/A -   "
5.82, 134.224, 0.009840809, NaN, NaN, NaN, 0.0445584, "- N/A -   "
5.83, 134.578, 0.009857468, NaN, NaN, NaN, 0.0433376, "- N/A -   "
5.84, 135.05, 0.009874129, NaN, NaN, NaN, 0.0433376, "- N/A -   "
5.85, 135.286, 0.009893566, NaN, NaN, NaN, 0.04211683, "- N/A -   "
5.86, 135.64, 0.009913004, NaN, NaN, NaN, 0.04089605, "- N/A -   "
5.87, 135.875, 0.009935218, NaN, NaN, NaN, 0.0384545, "- N/A -   "
5.88, 136.229, 0.009954655, NaN, NaN, NaN, 0.0372337, "- N/A -   "
5.89, 136.583, 0.009974092, NaN, NaN, NaN, 0.03601294, "- N/A -   "
5.9, 137.055, 0.009993529, NaN, NaN, NaN, 0.0347922, "- N/A -   "
5.91, 137.173, 0.01001019, NaN, NaN, NaN, 0.0347922, "- N/A -   "
5.92, 137.527, 0.0100296, NaN, NaN, NaN, 0.0335714, "- N/A -   "
5.93, 137.8806, 0.0100491, NaN, NaN, NaN, 0.0323506, "- N/A -   "
5.94, 137.999, 0.0100657, NaN, NaN, NaN, 0.0323506, "- N/A -   "
5.95, 138.352, 0.0100852, NaN, NaN, NaN, 0.0323506, "- N/A -   "
[...]
18.53, 574.2963, 0.0310385, NaN, NaN, NaN, 0.0372337, "- N/A -   "
18.56, 575.3609, 0.03108296, NaN, NaN, NaN, 0.0396753, "- N/A -   "
18.59, 576.5437, 0.0311302, NaN, NaN, NaN, 0.04089605, "- N/A -   "
18.62, 577.6083, 0.0311774, NaN, NaN, NaN, 0.04211683, "- N/A -   "
18.65, 578.9093, 0.0312301, NaN, NaN, NaN, 0.04089605, "- N/A -   "
18.68, 580.21, 0.0312829, NaN, NaN, NaN, 0.0396753, "- N/A -   "
18.71, 581.5115, 0.0313356, NaN, NaN, NaN, 0.0396753, "- N/A -   "
18.74, 582.8126, 0.0313828, NaN, NaN, NaN, 0.0396753, "- N/A -   "
18.77, 584.114, 0.0314412, NaN, NaN, NaN, 0.0372337, "- N/A -   "
18.8, 585.4148, 0.03149114, NaN, NaN, NaN, 0.03601294, "- N/A -   "
18.83, 586.598, 0.03153835, NaN, NaN, NaN, 0.0372337, "- N/A -   "
18.86, 587.8987, 0.0315883, NaN, NaN, NaN, 0.0372337, "- N/A -   "
18.89, 588.9632, 0.03164109, NaN, NaN, NaN, 0.0372337, "- N/A -   "
18.92, 590.3825, 0.0316938, NaN, NaN, NaN, 0.0347922, "- N/A -   "
18.95, 591.684, 0.03174383, NaN, NaN, NaN, 0.0347922, "- N/A -   "
18.98, 592.9847, 0.03179936, NaN, NaN, NaN, 0.0323506, "- N/A -   "
19.01, 594.168, 0.0318493, NaN, NaN, NaN, 0.0323506, "- N/A -   "
19.04, 595.35, 0.0318993, NaN, NaN, NaN, 0.0323506, "- N/A -   "
19.07, 596.6514, 0.0319493, NaN, NaN, NaN, 0.0323506, "- N/A -   "
19.1, 597.8342, 0.03199651, NaN, NaN, NaN, 0.0335714, "- N/A -   "
19.13, 598.8988, 0.0320437, NaN, NaN, NaN, 0.0347922, "- N/A -   "
19.16, 600.082, 0.0320937, NaN, NaN, NaN, 0.0347922, "- N/A -   "
19.19, 601.501, 0.0321465, NaN, NaN, NaN, 0.0335714, "- N/A -   "
19.22, 602.6837, 0.03219366, NaN, NaN, NaN, 0.0347922, "- N/A -   "
19.25, 603.8666, 0.0322409, NaN, NaN, NaN, 0.03601294, "- N/A -   "
19.28, 604.9311, 0.03228807, NaN, NaN, NaN, 0.0372337, "- N/A -   "
19.31, 606.1139, 0.0323353, NaN, NaN, NaN, 0.0384545, "- N/A -   "
19.34, 607.2967, 0.03238248, NaN, NaN, NaN, 0.0396753, "- N/A -   "
19.37, 608.2429, 0.03242691, NaN, NaN, NaN, 0.04211683, "- N/A -   "
19.4, 609.544, 0.03247411, NaN, NaN, NaN, 0.0433376, "- N/A -   "
19.43, 610.9634, 0.03252965, NaN, NaN, NaN, 0.04211683, "- N/A -   "
19.46, 612.146, 0.0325824, NaN, NaN, NaN, 0.0396753, "- N/A -   "
19.49, 613.566, 0.03263239, NaN, NaN, NaN, 0.0396753, "- N/A -   "
19.52, 614.8667, 0.0326851, NaN, NaN, NaN, 0.0384545, "- N/A -   "
19.55, 616.4043, 0.03274068, NaN, NaN, NaN, 0.03601294, "- N/A -   "
19.58, 617.705, 0.0327962, NaN, NaN, NaN, 0.0347922, "- N/A -   "
19.61, 618.8882, 0.0328462, NaN, NaN, NaN, 0.0335714, "- N/A -   "
19.64, 620.189, 0.032899, NaN, NaN, NaN, 0.0323506, "- N/A -   "
19.67, 621.372, 0.03294616, NaN, NaN, NaN, 0.0335714, "- N/A -   "
19.7, 622.555, 0.0329934, NaN, NaN, NaN, 0.0347922, "- N/A -   "
19.73, 623.856, 0.0330433, NaN, NaN, NaN, 0.03601294, "- N/A -   "
19.76, 625.2754, 0.03309888, NaN, NaN, NaN, 0.0323506, "- N/A -   "
19.79, 626.695, 0.0331572, NaN, NaN, NaN, 0.0299091, "- N/A -   "
19.82, 627.641, 0.0332016, NaN, NaN, NaN, 0.03112983, "- N/A -   "
19.85, 628.9421, 0.0332488, NaN, NaN, NaN, 0.0323506, "- N/A -   "
19.88, 629.888, 0.0332933, NaN, NaN, NaN, 0.0347922, "- N/A -   "
19.91, 631.071, 0.0333405, NaN, NaN, NaN, 0.03601294, "- N/A -   "
19.94, 632.0174, 0.03338211, NaN, NaN, NaN, 0.0396753, "- N/A -   "
19.97, 633.082, 0.0334238, NaN, NaN, NaN, 0.0433376, "- N/A -   "
20, 634.1464, 0.03346819, NaN, NaN, NaN, 0.04699994, "- N/A -   "
20.03, 635.4476, 0.0335182, NaN, NaN, NaN, 0.04699994, "- N/A -   "
20.06, 636.7486, 0.03356815, NaN, NaN, NaN, 0.04577916, "- N/A -   "
20.09, 637.931, 0.03362091, NaN, NaN, NaN, 0.0445584, "- N/A -   "
20.12, 639.469, 0.0336764, NaN, NaN, NaN, 0.04211683, "- N/A -   "
20.15, 640.8885, 0.033732, NaN, NaN, NaN, 0.0396753, "- N/A -   "
20.18, 642.4261, 0.0337903, NaN, NaN, NaN, 0.0372337, "- N/A -   "
20.21, 643.964, 0.0338458, NaN, NaN, NaN, 0.0335714, "- N/A -   "
20.24, 645.147, 0.0338986, NaN, NaN, NaN, 0.0323506, "- N/A -   "
20.27, 646.3294, 0.03394857, NaN, NaN, NaN, 0.0323506, "- N/A -   "
20.3, 647.7487, 0.0340041, NaN, NaN, NaN, 0.03112983, "- N/A -   "
20.33, 649.168, 0.0340596, NaN, NaN, NaN, 0.0286883, "- N/A -   "
20.36, 650.5875, 0.0341124, NaN, NaN, NaN, 0.0262467, "- N/A -   "
20.39, 651.652, 0.0341596, NaN, NaN, NaN, 0.0286883, "- N/A -   "
20.42, 652.8348, 0.0342096, NaN, NaN, NaN, 0.0274675, "- N/A -   "
20.45, 654.1359, 0.0342568, NaN, NaN, NaN, 0.0286883, "- N/A -   "
20.48, 655.2, 0.034304, NaN, NaN, NaN, 0.0299091, "- N/A -   "
20.51, 656.3833, 0.03434842, NaN, NaN, NaN, 0.0323506, "- N/A -   "
20.54, 657.329, 0.0343901, NaN, NaN, NaN, 0.03601294, "- N/A -   "
20.57, 658.394, 0.0344345, NaN, NaN, NaN, 0.0384545, "- N/A -   "
20.6, 659.3403, 0.03447615, NaN, NaN, NaN, 0.04211683, "- N/A -   "
20.63, 660.641, 0.0345206, NaN, NaN, NaN, 0.0445584, "- N/A -   "
20.66, 661.824, 0.03457056, NaN, NaN, NaN, 0.0445584, "- N/A -   "
20.69, 663.125, 0.03462332, NaN, NaN, NaN, 0.0445584, "- N/A -   "
20.72, 664.4264, 0.0346733, NaN, NaN, NaN, 0.0433376, "- N/A -   "
20.75, 665.7274, 0.03472328, NaN, NaN, NaN, 0.0445584, "- N/A -   "
20.78, 667.029, 0.03477604, NaN, NaN, NaN, 0.0433376, "- N/A -   "
20.81, 668.4479, 0.0348288, NaN, NaN, NaN, 0.04089605, "- N/A -   "
20.84, 669.749, 0.03488156, NaN, NaN, NaN, 0.0396753, "- N/A -   "
20.87, 671.168, 0.03493709, NaN, NaN, NaN, 0.0372337, "- N/A -   "
20.9, 672.706, 0.0349954, NaN, NaN, NaN, 0.0335714, "- N/A -   "
20.93, 674.1254, 0.0350509, NaN, NaN, NaN, 0.03112983, "- N/A -   "
20.96, 675.426, 0.0351009, NaN, NaN, NaN, 0.03112983, "- N/A -   "
20.99, 676.7276, 0.03515368, NaN, NaN, NaN, 0.0299091, "- N/A -   "
21.02, 678.2652, 0.0352092, NaN, NaN, NaN, 0.0286883, "- N/A -   "
21.05, 679.3298, 0.0352564, NaN, NaN, NaN, 0.0286883, "- N/A -   "
21.08, 680.3943, 0.0353008, NaN, NaN, NaN, 0.03112983, "- N/A -   "
21.11, 681.577, 0.0353453, NaN, NaN, NaN, 0.0335714, "- N/A -   "
21.14, 682.6416, 0.0353869, NaN, NaN, NaN, 0.0372337, "- N/A -   "
21.17, 683.8244, 0.03543413, NaN, NaN, NaN, 0.0384545, "- N/A -   "
21.2, 685.2438, 0.03548689, NaN, NaN, NaN, 0.0372337, "- N/A -   "
21.23, 686.545, 0.0355396, NaN, NaN, NaN, 0.03601294, "- N/A -   "
21.26, 687.609, 0.0355869, NaN, NaN, NaN, 0.0384545, "- N/A -   "
21.29, 688.91, 0.0356341, NaN, NaN, NaN, 0.0384545, "- N/A -   "
21.32, 689.857, 0.03567571, NaN, NaN, NaN, 0.04211683, "- N/A -   "
21.35, 691.158, 0.03572291, NaN, NaN, NaN, 0.0433376, "- N/A -   "
21.38, 692.341, 0.03577012, NaN, NaN, NaN, 0.0445584, "- N/A -   "
21.41, 693.405, 0.03581732, NaN, NaN, NaN, 0.04577916, "- N/A -   "
21.44, 694.9429, 0.0358729, NaN, NaN, NaN, 0.0433376, "- N/A -   "
21.47, 696.48, 0.0359312, NaN, NaN, NaN, 0.04089605, "- N/A -   "
21.5, 697.9, 0.0359867, NaN, NaN, NaN, 0.0372337, "- N/A -   "
21.53, 699.3192, 0.036045, NaN, NaN, NaN, 0.0347922, "- N/A -   "
21.56, 700.8569, 0.03610055, NaN, NaN, NaN, 0.03112983, "- N/A -   "
21.59, 702.2762, 0.0361561, NaN, NaN, NaN, 0.0286883, "- N/A -   "
21.62, 703.459, 0.0362061, NaN, NaN, NaN, 0.0299091, "- N/A -   "
21.65, 704.642, 0.0362533, NaN, NaN, NaN, 0.0323506, "- N/A -   "
21.68, 705.825, 0.0363005, NaN, NaN, NaN, 0.0323506, "- N/A -   "
21.71, 706.889, 0.0363449, NaN, NaN, NaN, 0.0347922, "- N/A -   "
21.74, 708.1903, 0.03639211, NaN, NaN, NaN, 0.03601294, "- N/A -   "
21.77, 709.491, 0.0364476, NaN, NaN, NaN, 0.0347922, "- N/A -   "
21.8, 711.029, 0.0365004, NaN, NaN, NaN, 0.0323506, "- N/A -   "
21.83, 712.3301, 0.03655594, NaN, NaN, NaN, 0.03112983, "- N/A -   "
21.86, 713.6312, 0.03660314, NaN, NaN, NaN, 0.03112983, "- N/A -   "
21.89, 714.6957, 0.0366476, NaN, NaN, NaN, 0.0335714, "- N/A -   "
21.92, 715.6419, 0.03668922, NaN, NaN, NaN, 0.0372337, "- N/A -   "
21.95, 716.825, 0.03673365, NaN, NaN, NaN, 0.04089605, "- N/A -   "
21.98, 717.8893, 0.0367753, NaN, NaN, NaN, 0.0433376, "- N/A -   "
22.01, 719.19, 0.0368225, NaN, NaN, NaN, 0.0445584, "- N/A -   "
22.04, 720.491, 0.036878, NaN, NaN, NaN, 0.0433376, "- N/A -   "
22.07, 721.7926, 0.0369308, NaN, NaN, NaN, 0.04089605, "- N/A -   "
22.1, 723.2119, 0.03698078, NaN, NaN, NaN, 0.04089605, "- N/A -   "
22.13, 724.513, 0.0370363, NaN, NaN, NaN, 0.0396753, "- N/A -   "
22.16, 725.6958, 0.0370863, NaN, NaN, NaN, 0.0396753, "- N/A -   "
22.19, 727.115, 0.03713628, NaN, NaN, NaN, 0.0384545, "- N/A -   "
22.22, 728.535, 0.0371918, NaN, NaN, NaN, 0.0372337, "- N/A -   "
22.25, 729.8357, 0.0372418, NaN, NaN, NaN, 0.0372337, "- N/A -   "
22.28, 731.018, 0.037289, NaN, NaN, NaN, 0.0372337, "- N/A -   "
22.31, 732.2013, 0.0373362, NaN, NaN, NaN, 0.0384545, "- N/A -   "
22.34, 733.6206, 0.0373862, NaN, NaN, NaN, 0.0384545, "- N/A -   "
22.37, 734.922, 0.03744172, NaN, NaN, NaN, 0.0372337, "- N/A -   "
22.4, 736.2228, 0.03749448, NaN, NaN, NaN, 0.0347922, "- N/A -   "
22.43, 737.7605, 0.03755, NaN, NaN, NaN, 0.0335714, "- N/A -   "
22.46, 739.0615, 0.0376, NaN, NaN, NaN, 0.0323506, "- N/A -   "
22.49, 740.1261, 0.0376472, NaN, NaN, NaN, 0.0335714, "- N/A -   "
22.52, 741.3089, 0.0376944, NaN, NaN, NaN, 0.03601294, "- N/A -   "
22.55, 742.4917, 0.0377416, NaN, NaN, NaN, 0.03601294, "- N/A -   "
22.58, 743.9111, 0.0377971, NaN, NaN, NaN, 0.0347922, "- N/A -   "
22.61, 745.33, 0.0378499, NaN, NaN, NaN, 0.0323506, "- N/A -   "
22.64, 746.513, 0.03789711, NaN, NaN, NaN, 0.0335714, "- N/A -   "
22.67, 747.6961, 0.0379415, NaN, NaN, NaN, 0.03601294, "- N/A -   "
22.7, 748.761, 0.03798874, NaN, NaN, NaN, 0.0384545, "- N/A -   "
22.73, 749.9434, 0.0380359, NaN, NaN, NaN, 0.0384545, "- N/A -   "
22.76, 751.008, 0.0380804, NaN, NaN, NaN, 0.04089605, "- N/A -   "
22.79, 752.072, 0.0381248, NaN, NaN, NaN, 0.0445584, "- N/A -   "
22.82, 753.255, 0.0381665, NaN, NaN, NaN, 0.0482207, "- N/A -   "
22.85, 754.6746, 0.0382192, NaN, NaN, NaN, 0.04577916, "- N/A -   "
22.88, 756.094, 0.0382747, NaN, NaN, NaN, 0.0433376, "- N/A -   "
22.91, 757.5134, 0.0383303, NaN, NaN, NaN, 0.04089605, "- N/A -   "
22.94, 759.1693, 0.03839415, NaN, NaN, NaN, 0.0347922, "- N/A -   "
22.97, 760.825, 0.0384525, NaN, NaN, NaN, 0.03112983, "- N/A -   "
23, 762.008, 0.0385024, NaN, NaN, NaN, 0.03112983, "- N/A -   "
23.03, 763.309, 0.0385496, NaN, NaN, NaN, 0.0323506, "- N/A -   "
23.06, 764.6102, 0.0386024, NaN, NaN, NaN, 0.03112983, "- N/A -   "
23.09, 765.6748, 0.0386496, NaN, NaN, NaN, 0.0323506, "- N/A -   "
23.12, 767.0941, 0.0387024, NaN, NaN, NaN, 0.03112983, "- N/A -   "
23.15, 768.395, 0.0387551, NaN, NaN, NaN, 0.0299091, "- N/A -   "
23.18, 769.8146, 0.03881066, NaN, NaN, NaN, 0.0274675, "- N/A -   "
23.21, 771.234, 0.0388634, NaN, NaN, NaN, 0.0262467, "- N/A -   "
23.24, 772.298, 0.0389106, NaN, NaN, NaN, 0.0274675, "- N/A -   "
23.27, 773.4813, 0.03895505, NaN, NaN, NaN, 0.03112983, "- N/A -   "
23.3, 774.546, 0.0389967, NaN, NaN, NaN, 0.0335714, "- N/A -   "
23.33, 775.492, 0.03903558, NaN, NaN, NaN, 0.0384545, "- N/A -   "
23.36, 776.5566, 0.0390772, NaN, NaN, NaN, 0.04211683, "- N/A -   "
23.39, 777.6211, 0.0391217, NaN, NaN, NaN, 0.04577916, "- N/A -   "
23.42, 778.804, 0.0391661, NaN, NaN, NaN, 0.04699994, "- N/A -   "
23.45, 779.987, 0.0392161, NaN, NaN, NaN, 0.0482207, "- N/A -   "
23.48, 781.4061, 0.03926605, NaN, NaN, NaN, 0.0482207, "- N/A -   "
23.51, 782.825, 0.03932158, NaN, NaN, NaN, 0.0445584, "- N/A -   "
23.54, 784.2449, 0.0393771, NaN, NaN, NaN, 0.04211683, "- N/A -   "
23.57, 785.5459, 0.0394327, NaN, NaN, NaN, 0.0396753, "- N/A -   "
23.6, 787.2019, 0.039491, NaN, NaN, NaN, 0.0372337, "- N/A -   "
23.63, 788.5029, 0.03954372, NaN, NaN, NaN, 0.0347922, "- N/A -   "
23.66, 789.9223, 0.0395965, NaN, NaN, NaN, 0.0335714, "- N/A -   "
23.69, 791.1051, 0.0396437, NaN, NaN, NaN, 0.03601294, "- N/A -   "
23.72, 792.525, 0.0396964, NaN, NaN, NaN, 0.0335714, "- N/A -   "
23.75, 793.826, 0.039752, NaN, NaN, NaN, 0.0323506, "- N/A -   "
23.78, 795.245, 0.03980196, NaN, NaN, NaN, 0.03112983, "- N/A -   "
23.81, 796.5461, 0.0398547, NaN, NaN, NaN, 0.0299091, "- N/A -   "
23.84, 797.9654, 0.0399075, NaN, NaN, NaN, 0.0286883, "- N/A -   "
23.87, 799.148, 0.03995746, NaN, NaN, NaN, 0.0286883, "- N/A -   "
23.9, 800.0945, 0.03999911, NaN, NaN, NaN, 0.0323506, "- N/A -   "
23.93, 801.396, 0.0400463, NaN, NaN, NaN, 0.0335714, "- N/A -   "
23.96, 802.4601, 0.0400907, NaN, NaN, NaN, 0.03601294, "- N/A -   "
23.99, 803.5246, 0.04013517, NaN, NaN, NaN, 0.0384545, "- N/A -   "
24.02, 804.707, 0.0401796, NaN, NaN, NaN, 0.04089605, "- N/A -   "
24.05, 805.772, 0.0402268, NaN, NaN, NaN, 0.04211683, "- N/A -   "
24.08, 806.955, 0.04027679, NaN, NaN, NaN, 0.0433376, "- N/A -   "
24.11, 808.492, 0.04032399, NaN, NaN, NaN, 0.0433376, "- N/A -   "
24.14, 809.675, 0.04037675, NaN, NaN, NaN, 0.0433376, "- N/A -   "
24.17, 810.858, 0.0404212, NaN, NaN, NaN, 0.0445584, "- N/A -   "
24.2, 812.1592, 0.04047116, NaN, NaN, NaN, 0.0445584, "- N/A -   "
24.23, 813.5785, 0.0405267, NaN, NaN, NaN, 0.04211683, "- N/A -   "
24.26, 814.9979, 0.0405822, NaN, NaN, NaN, 0.0396753, "- N/A -   "
24.29, 816.417, 0.04063776, NaN, NaN, NaN, 0.0372337, "- N/A -   "
24.32, 818.31, 0.0407016, NaN, NaN, NaN, 0.03112983, "- N/A -   "
24.35, 819.729, 0.0407599, NaN, NaN, NaN, 0.0274675, "- N/A -   "
24.38, 820.9119, 0.0408099, NaN, NaN, NaN, 0.0286883, "- N/A -   "
24.41, 822.213, 0.0408599, NaN, NaN, NaN, 0.0286883, "- N/A -   "
24.44, 823.3958, 0.0409071, NaN, NaN, NaN, 0.0286883, "- N/A -   "
24.47, 824.6969, 0.04095709, NaN, NaN, NaN, 0.0286883, "- N/A -   "
24.5, 825.8797, 0.0410015, NaN, NaN, NaN, 0.03112983, "- N/A -   "
24.53, 827.0625, 0.0410515, NaN, NaN, NaN, 0.0323506, "- N/A -   "
24.56, 828.245, 0.0410959, NaN, NaN, NaN, 0.0335714, "- N/A -   "
24.59, 829.5464, 0.04114591, NaN, NaN, NaN, 0.0335714, "- N/A -   "
24.62, 830.848, 0.04119589, NaN, NaN, NaN, 0.0347922, "- N/A -   "
24.65, 832.149, 0.0412431, NaN, NaN, NaN, 0.0347922, "- N/A -   "
24.68, 833.3314, 0.0412903, NaN, NaN, NaN, 0.03601294, "- N/A -   "
24.71, 834.5142, 0.0413347, NaN, NaN, NaN, 0.0384545, "- N/A -   "
24.74, 835.5787, 0.0413792, NaN, NaN, NaN, 0.04211683, "- N/A -   "
24.77, 836.643, 0.0414208, NaN, NaN, NaN, 0.0445584, "- N/A -   "
24.8, 837.826, 0.041468, NaN, NaN, NaN, 0.04577916, "- N/A -   "
24.83, 839.0089, 0.0415152, NaN, NaN, NaN, 0.04699994, "- N/A -   "
24.86, 840.5465, 0.0415708, NaN, NaN, NaN, 0.0445584, "- N/A -   "
24.89, 842.202, 0.0416291, NaN, NaN, NaN, 0.04089605, "- N/A -   "
24.92, 843.7401, 0.0416902, NaN, NaN, NaN, 0.0372337, "- N/A -   "
24.95, 845.1595, 0.04174291, NaN, NaN, NaN, 0.0347922, "- N/A -   "
24.98, 846.579, 0.0417984, NaN, NaN, NaN, 0.0323506, "- N/A -   "
25.01, 847.9982, 0.0418512, NaN, NaN, NaN, 0.03112983, "- N/A -   "
25.04, 849.181, 0.0419012, NaN, NaN, NaN, 0.03112983, "- N/A -   "
25.07, 850.364, 0.0419456, NaN, NaN, NaN, 0.0335714, "- N/A -   "
25.1, 851.4284, 0.04199004, NaN, NaN, NaN, 0.03601294, "- N/A -   "
25.13, 852.611, 0.04203725, NaN, NaN, NaN, 0.0372337, "- N/A -   "
25.16, 853.794, 0.04208445, NaN, NaN, NaN, 0.0384545, "- N/A -   "
25.19, 855.3316, 0.0421428, NaN, NaN, NaN, 0.0347922, "- N/A -   "
25.22, 856.751, 0.0421983, NaN, NaN, NaN, 0.0335714, "- N/A -   "
25.25, 858.289, 0.0422511, NaN, NaN, NaN, 0.03112983, "- N/A -   "
25.28, 859.5898, 0.04230104, NaN, NaN, NaN, 0.0323506, "- N/A -   "
25.31, 860.4177, 0.0423427, NaN, NaN, NaN, 0.0347922, "- N/A -   "
25.34, 861.6, 0.0423899, NaN, NaN, NaN, 0.0372337, "- N/A -   "
25.37, 862.9016, 0.0424371, NaN, NaN, NaN, 0.0372337, "- N/A -   "
25.4, 863.9661, 0.0424815, NaN, NaN, NaN, 0.04089605, "- N/A -   "
25.43, 865.5038, 0.0425343, NaN, NaN, NaN, 0.0384545, "- N/A -   "
25.46, 866.9232, 0.0425843, NaN, NaN, NaN, 0.0384545, "- N/A -   "
25.49, 868.106, 0.04263425, NaN, NaN, NaN, 0.0396753, "- N/A -   "
25.52, 869.289, 0.0426842, NaN, NaN, NaN, 0.0384545, "- N/A -   "
25.55, 870.59, 0.0427314, NaN, NaN, NaN, 0.0396753, "- N/A -   "
25.58, 872.128, 0.042787, NaN, NaN, NaN, 0.0384545, "- N/A -   "
25.61, 873.4286, 0.0428397, NaN, NaN, NaN, 0.0372337, "- N/A -   "
25.64, 874.73, 0.04288971, NaN, NaN, NaN, 0.03601294, "- N/A -   "
25.67, 876.149, 0.0429397, NaN, NaN, NaN, 0.03601294, "- N/A -   "
25.7, 877.3319, 0.04298967, NaN, NaN, NaN, 0.03601294, "- N/A -   "
25.73, 878.633, 0.0430397, NaN, NaN, NaN, 0.03601294, "- N/A -   "
25.76, 880.171, 0.0430952, NaN, NaN, NaN, 0.0335714, "- N/A -   "
25.79, 881.59, 0.0431479, NaN, NaN, NaN, 0.0323506, "- N/A -   "
25.82, 883.0094, 0.04320626, NaN, NaN, NaN, 0.0286883, "- N/A -   "
25.85, 884.547, 0.0432618, NaN, NaN, NaN, 0.0262467, "- N/A -   "
25.88, 885.8481, 0.0433118, NaN, NaN, NaN, 0.0262467, "- N/A -   "
25.91, 886.9126, 0.0433562, NaN, NaN, NaN, 0.0286883, "- N/A -   "
25.94, 887.9772, 0.0433979, NaN, NaN, NaN, 0.0323506, "- N/A -   "
25.97, 889.16, 0.04344506, NaN, NaN, NaN, 0.0335714, "- N/A -   "
26, 890.461, 0.043495, NaN, NaN, NaN, 0.0335714, "- N/A -   "
26.03, 891.762, 0.043545, NaN, NaN, NaN, 0.0335714, "- N/A -   "
26.06, 892.9449, 0.0435922, NaN, NaN, NaN, 0.0347922, "- N/A -   "
26.09, 893.8912, 0.04363388, NaN, NaN, NaN, 0.0396753, "- N/A -   "
26.12, 894.8374, 0.0436728, NaN, NaN, NaN, 0.0433376, "- N/A -   "
26.15, 896.139, 0.0437227, NaN, NaN, NaN, 0.0445584, "- N/A -   "
26.18, 897.4396, 0.04376716, NaN, NaN, NaN, 0.04699994, "- N/A -   "
26.21, 898.504, 0.0438116, NaN, NaN, NaN, 0.0494415, "- N/A -   "
26.24, 899.9235, 0.04386157, NaN, NaN, NaN, 0.0494415, "- N/A -   "
26.27, 901.4612, 0.0439199, NaN, NaN, NaN, 0.04699994, "- N/A -   "
26.3, 903.117, 0.0439782, NaN, NaN, NaN, 0.0433376, "- N/A -   "
26.33, 904.6547, 0.0440365, NaN, NaN, NaN, 0.0384545, "- N/A -   "
26.36, 906.192, 0.0440976, NaN, NaN, NaN, 0.0335714, "- N/A -   "
26.39, 907.73, 0.04415313, NaN, NaN, NaN, 0.03112983, "- N/A -   "
26.42, 909.0312, 0.0442031, NaN, NaN, NaN, 0.0323506, "- N/A -   "
26.45, 910.2139, 0.0442475, NaN, NaN, NaN, 0.0335714, "- N/A -   "
26.48, 911.3968, 0.04429752, NaN, NaN, NaN, 0.0347922, "- N/A -   "
26.51, 912.6978, 0.04434195, NaN, NaN, NaN, 0.03601294, "- N/A -   "
26.54, 913.8807, 0.04439193, NaN, NaN, NaN, 0.03601294, "- N/A -   "
26.57, 915.4183, 0.0444502, NaN, NaN, NaN, 0.0335714, "- N/A -   "
26.6, 916.8377, 0.0445086, NaN, NaN, NaN, 0.0286883, "- N/A -   "
26.63, 918.257, 0.0445585, NaN, NaN, NaN, 0.0286883, "- N/A -   "
26.66, 919.558, 0.04460574, NaN, NaN, NaN, 0.03112983, "- N/A -   "
26.69, 920.5044, 0.0446474, NaN, NaN, NaN, 0.0335714, "- N/A -   "
26.72, 921.569, 0.04468904, NaN, NaN, NaN, 0.0372337, "- N/A -   "
26.75, 922.7517, 0.04473625, NaN, NaN, NaN, 0.0384545, "- N/A -   "
26.78, 923.8162, 0.0447779, NaN, NaN, NaN, 0.04211683, "- N/A -   "
26.81, 924.9991, 0.0448223, NaN, NaN, NaN, 0.0445584, "- N/A -   "
26.84, 926.3001, 0.04487231, NaN, NaN, NaN, 0.0445584, "- N/A -   "
26.87, 927.601, 0.0449195, NaN, NaN, NaN, 0.04577916, "- N/A -   "
26.9, 928.784, 0.0449695, NaN, NaN, NaN, 0.04577916, "- N/A -   "
26.93, 930.3217, 0.045025, NaN, NaN, NaN, 0.0433376, "- N/A -   "
26.96, 931.9776, 0.04508334, NaN, NaN, NaN, 0.0396753, "- N/A -   "
26.99, 933.2787, 0.0451361, NaN, NaN, NaN, 0.0384545, "- N/A -   "
27.02, 934.8164, 0.0451916, NaN, NaN, NaN, 0.03601294, "- N/A -   "
27.05, 936.2357, 0.04524717, NaN, NaN, NaN, 0.0347922, "- N/A -   "
27.08, 937.537, 0.0452972, NaN, NaN, NaN, 0.0335714, "- N/A -   "
27.11, 938.9562, 0.04534713, NaN, NaN, NaN, 0.0335714, "- N/A -   "
27.14, 940.2573, 0.04540267, NaN, NaN, NaN, 0.0323506, "- N/A -   "
27.17, 941.677, 0.0454554, NaN, NaN, NaN, 0.0299091, "- N/A -   "
27.2, 943.096, 0.04550541, NaN, NaN, NaN, 0.03112983, "- N/A -   "
27.23, 944.2788, 0.04555539, NaN, NaN, NaN, 0.03112983, "- N/A -   "
27.26, 945.698, 0.04560815, NaN, NaN, NaN, 0.0299091, "- N/A -   "
27.29, 946.881, 0.0456554, NaN, NaN, NaN, 0.0299091, "- N/A -   "
27.32, 948.1821, 0.0457026, NaN, NaN, NaN, 0.0323506, "- N/A -   "
27.35, 949.247, 0.045747, NaN, NaN, NaN, 0.0335714, "- N/A -   "
27.38, 950.429, 0.04578864, NaN, NaN, NaN, 0.0372337, "- N/A -   "
27.41, 951.494, 0.0458331, NaN, NaN, NaN, 0.0396753, "- N/A -   "
27.44, 952.677, 0.0458775, NaN, NaN, NaN, 0.0433376, "- N/A -   "
27.451, 952.913, 0.0458914, NaN, NaN, NaN, 0.0445584, "- N/A -   "