File: 2_Tensile_Data/Hamel_ForceTest_Bolt4_Test4.csv
Time, Load (lb), Position (in), AxialStrain (in), TransverseStrain (in), Auxiliary (), Control Out (V), Stress (psi)
0.0, 1.29742, 0.0, NaN, NaN, NaN, 0.09338949, "- N/A -   "
0.01, 1.76921, 3.054427E-5, NaN, NaN, NaN, 0.09949338, "- N/A -   "
0.02, 2.12305, 5.83118e-05, NaN, NaN, NaN, 0.0982726, "- N/A -   "
0.03, 2.59484, 8.885606E-5, NaN, NaN, NaN, 0.09216871, "- N/A -   "
0.04, 3.06663, 0.000116624, NaN, NaN, NaN, 0.0872856, "- N/A -   "
0.05, 3.53842, 1.388376E-4, NaN, NaN, NaN, 0.084844, "- N/A -   "
0.06, 3.89227, 0.000163828, NaN, NaN, NaN, 0.08118171, "- N/A -   "
0.07, 4.246109, 0.000186042, NaN, NaN, NaN, 0.07874016, "- N/A -   "
0.08, 4.59995, 0.000208256, NaN, NaN, NaN, 0.07751938, "- N/A -   "
0.09, 4.953794, 0.000227694, NaN, NaN, NaN, 0.0750778, "- N/A -   "
0.1, 5.307636, 2.471309E-4, NaN, NaN, NaN, 0.07385705, "- N/A -   "
0.11, 5.66148, 0.000266568, NaN, NaN, NaN, 0.07263627, "- N/A -   "
0.12, 5.897373, 0.000286005, NaN, NaN, NaN, 0.07141549, "- N/A -   "
0.13, 6.369163, 0.000308219, NaN, NaN, NaN, 0.0689739, "- N/A -   "
0.14, 6.60506, 0.000327657, NaN, NaN, NaN, 0.06775316, "- N/A -   "
0.15, 6.9589, 0.000347094, NaN, NaN, NaN, 0.06653238, "- N/A -   "
0.16, 7.312743, 0.000366531, NaN, NaN, NaN, 0.0653116, "- N/A -   "
0.17, 7.666586, 0.000388745, NaN, NaN, NaN, 0.06287005, "- N/A -   "
0.18, 8.020428, 4.081825E-4, NaN, NaN, NaN, 0.06164927, "- N/A -   "
0.19, 8.256323, 0.000430397, NaN, NaN, NaN, 0.0592077, "- N/A -   "
0.2, 8.728113, 0.000452611, NaN, NaN, NaN, 0.05676616, "- N/A -   "
0.21, 9.199903, 0.000474825, NaN, NaN, NaN, 0.0543246, "- N/A -   "
0.22, 9.435798, 4.942618E-4, NaN, NaN, NaN, 0.0531038, "- N/A -   "
0.23, 9.78964, 5.164758E-4, NaN, NaN, NaN, 0.05066227, "- N/A -   "
0.24, 10.1435, 5.359131E-4, NaN, NaN, NaN, 0.0494415, "- N/A -   "
0.25, 10.4973, 5.553504E-4, NaN, NaN, NaN, 0.0494415, "- N/A -   "
0.26, 10.73322, 5.747876E-4, NaN, NaN, NaN, 0.04699994, "- N/A -   "
0.27, 11.0871, 5.942249E-4, NaN, NaN, NaN, 0.04699994, "- N/A -   "
0.28, 11.5589, 6.108854E-4, NaN, NaN, NaN, 0.04577916, "- N/A -   "
0.29, 11.7947, 0.000630323, NaN, NaN, NaN, 0.0445584, "- N/A -   "
0.3, 12.14859, 6.497599E-4, NaN, NaN, NaN, 0.0433376, "- N/A -   "
0.31, 12.5024, 6.691972E-4, NaN, NaN, NaN, 0.04211683, "- N/A -   "
0.32, 12.8563, 0.000688634, NaN, NaN, NaN, 0.04089605, "- N/A -   "
0.33, 13.2101, 7.080717E-4, NaN, NaN, NaN, 0.0396753, "- N/A -   "
0.34, 13.446, 7.27509E-4, NaN, NaN, NaN, 0.0384545, "- N/A -   "
0.35, 13.7999, 7.49723E-4, NaN, NaN, NaN, 0.03601294, "- N/A -   "
0.36, 14.2716, 7.691603E-4, NaN, NaN, NaN, 0.0347922, "- N/A -   "
0.37, 14.5075, 0.000791374, NaN, NaN, NaN, 0.0323506, "- N/A -   "
0.38, 14.9793, 8.108115E-4, NaN, NaN, NaN, 0.03112983, "- N/A -   "
0.39, 15.3332, 8.302488E-4, NaN, NaN, NaN, 0.0299091, "- N/A -   "
0.4, 15.687, 0.000849686, NaN, NaN, NaN, 0.0286883, "- N/A -   "
0.409, 15.805, 8.663466E-4, NaN, NaN, NaN, 0.0286883, "- N/A -   "
0.42, 16.1588, 8.830071E-4, NaN, NaN, NaN, 0.0286883, "- N/A -   "
0.43, 16.5126, 0.000899668, NaN, NaN, NaN, 0.0286883, "- N/A -   "
0.44, 16.86649, 0.000919105, NaN, NaN, NaN, 0.0286883, "- N/A -   "
0.45, 17.1024, 9.329886E-4, NaN, NaN, NaN, 0.0286883, "- N/A -   "
0.46, 17.3383, 0.000949649, NaN, NaN, NaN, 0.0299091, "- N/A -   "
0.47, 17.5742, 9.635329E-4, NaN, NaN, NaN, 0.0299091, "- N/A -   "
0.48, 17.928, 9.801934E-4, NaN, NaN, NaN, 0.0299091, "- N/A -   "
0.49, 18.16391, 9.968539E-4, NaN, NaN, NaN, 0.0299091, "- N/A -   "
0.5, 18.3998, 0.00101074, NaN, NaN, NaN, 0.03112983, "- N/A -   "
0.51, 18.6357, 0.0010274, NaN, NaN, NaN, 0.03112983, "- N/A -   "
0.52, 18.9895, 0.00104406, NaN, NaN, NaN, 0.03112983, "- N/A -   "
0.53, 19.4613, 0.00106072, NaN, NaN, NaN, 0.03112983, "- N/A -   "
0.54, 19.57928, 0.00107738, NaN, NaN, NaN, 0.03112983, "- N/A -   "
0.55, 19.9331, 0.00109126, NaN, NaN, NaN, 0.0323506, "- N/A -   "
0.56, 20.287, 0.00110792, NaN, NaN, NaN, 0.0335714, "- N/A -   "
0.57, 20.52286, 0.00112181, NaN, NaN, NaN, 0.0335714, "- N/A -   "
0.58, 20.7588, 0.00113847, NaN, NaN, NaN, 0.0335714, "- N/A -   "
0.59, 20.99465, 0.001152352, NaN, NaN, NaN, 0.0347922, "- N/A -   "
0.6, 21.3485, 0.00116624, NaN, NaN, NaN, 0.03601294, "- N/A -   "
0.61, 21.5844, 0.00118012, NaN, NaN, NaN, 0.0372337, "- N/A -   "
0.62, 21.93823, 0.00119678, NaN, NaN, NaN, 0.0372337, "- N/A -   "
0.63, 22.0562, 0.00121344, NaN, NaN, NaN, 0.0384545, "- N/A -   "
0.64, 22.41, 0.00122732, NaN, NaN, NaN, 0.0384545, "- N/A -   "
0.65, 22.6459, 0.001241208, NaN, NaN, NaN, 0.0396753, "- N/A -   "
0.66, 22.88181, 0.00125509, NaN, NaN, NaN, 0.04089605, "- N/A -   "
0.67, 23.1177, 0.00126898, NaN, NaN, NaN, 0.04211683, "- N/A -   "
0.68, 23.4715, 0.00128286, NaN, NaN, NaN, 0.0433376, "- N/A -   "
0.69, 23.7074, 0.00129952, NaN, NaN, NaN, 0.0433376, "- N/A -   "
0.7, 23.9433, 0.0013134, NaN, NaN, NaN, 0.0445584, "- N/A -   "
0.71, 24.1792, 0.00132729, NaN, NaN, NaN, 0.04577916, "- N/A -   "
0.72, 24.4151, 0.00134117, NaN, NaN, NaN, 0.04699994, "- N/A -   "
0.73, 24.769, 0.00136061, NaN, NaN, NaN, 0.04577916, "- N/A -   "
0.74, 25.1228, 0.00138005, NaN, NaN, NaN, 0.04577916, "- N/A -   "
0.75, 25.4767, 0.00139671, NaN, NaN, NaN, 0.0445584, "- N/A -   "
0.76, 25.7125, 0.00141059, NaN, NaN, NaN, 0.04577916, "- N/A -   "
0.77, 25.9484, 0.00142725, NaN, NaN, NaN, 0.04577916, "- N/A -   "
0.78, 26.18434, 0.001443911, NaN, NaN, NaN, 0.04577916, "- N/A -   "
0.79, 26.5382, 0.00146057, NaN, NaN, NaN, 0.04577916, "- N/A -   "
0.8, 26.892, 0.001477232, NaN, NaN, NaN, 0.04577916, "- N/A -   "
0.81, 27.1279, 0.00148834, NaN, NaN, NaN, 0.0482207, "- N/A -   "
0.82, 27.4818, 0.001505, NaN, NaN, NaN, 0.0482207, "- N/A -   "
0.83, 27.7177, 0.00152166, NaN, NaN, NaN, 0.0482207, "- N/A -   "
0.84, 28.0715, 0.0015411, NaN, NaN, NaN, 0.0482207, "- N/A -   "
0.85, 28.42534, 0.00155776, NaN, NaN, NaN, 0.04699994, "- N/A -   "
0.86, 28.6612, 0.00157442, NaN, NaN, NaN, 0.04699994, "- N/A -   "
0.87, 29.133, 0.00159386, NaN, NaN, NaN, 0.04577916, "- N/A -   "
0.88, 29.3689, 0.00161329, NaN, NaN, NaN, 0.0445584, "- N/A -   "
0.89, 29.84071, 0.00163273, NaN, NaN, NaN, 0.0433376, "- N/A -   "
0.9, 30.1946, 0.00165217, NaN, NaN, NaN, 0.04211683, "- N/A -   "
0.91, 30.5484, 0.0016716, NaN, NaN, NaN, 0.04089605, "- N/A -   "
0.919, 30.78429, 0.00169382, NaN, NaN, NaN, 0.0396753, "- N/A -   "
0.929, 31.2561, 0.00171326, NaN, NaN, NaN, 0.0372337, "- N/A -   "
0.94, 31.6099, 0.00173269, NaN, NaN, NaN, 0.03601294, "- N/A -   "
0.95, 32.08171, 0.00175213, NaN, NaN, NaN, 0.0347922, "- N/A -   "
0.96, 32.4356, 0.00177157, NaN, NaN, NaN, 0.0335714, "- N/A -   "
0.97, 32.7894, 0.001791, NaN, NaN, NaN, 0.0323506, "- N/A -   "
0.98, 33.1432, 0.00181044, NaN, NaN, NaN, 0.03112983, "- N/A -   "
0.99, 33.3791, 0.00182988, NaN, NaN, NaN, 0.0299091, "- N/A -   "
1, 33.73298, 0.00184932, NaN, NaN, NaN, 0.0286883, "- N/A -   "
1.01, 34.2048, 0.00186875, NaN, NaN, NaN, 0.0274675, "- N/A -   "
1.02, 34.55861, 0.00188264, NaN, NaN, NaN, 0.0286883, "- N/A -   "
1.03, 34.6766, 0.0018993, NaN, NaN, NaN, 0.0286883, "- N/A -   "
1.04, 35.0304, 0.00191596, NaN, NaN, NaN, 0.0286883, "- N/A -   "
1.05, 35.2663, 0.00193262, NaN, NaN, NaN, 0.0286883, "- N/A -   "
1.06, 35.6201, 0.0019465, NaN, NaN, NaN, 0.0299091, "- N/A -   "
1.07, 35.85603, 0.00196594, NaN, NaN, NaN, 0.0286883, "- N/A -   "
1.08, 36.2099, 0.001982601, NaN, NaN, NaN, 0.0286883, "- N/A -   "
1.09, 36.44577, 0.00199648, NaN, NaN, NaN, 0.0299091, "- N/A -   "
1.1, 36.79961, 0.002013145, NaN, NaN, NaN, 0.0299091, "- N/A -   "
1.11, 36.9176, 0.00202703, NaN, NaN, NaN, 0.03112983, "- N/A -   "
1.12, 37.3893, 0.00204369, NaN, NaN, NaN, 0.03112983, "- N/A -   "
1.13, 37.6252, 0.00206035, NaN, NaN, NaN, 0.0323506, "- N/A -   "
1.14, 37.8611, 0.00207423, NaN, NaN, NaN, 0.0323506, "- N/A -   "
1.15, 38.215, 0.00208812, NaN, NaN, NaN, 0.0335714, "- N/A -   "
1.16, 38.4509, 0.00210478, NaN, NaN, NaN, 0.0335714, "- N/A -   "
1.17, 38.68677, 0.00212144, NaN, NaN, NaN, 0.0335714, "- N/A -   "
1.18, 39.15856, 0.00213532, NaN, NaN, NaN, 0.0347922, "- N/A -   "
1.19, 39.2765, 0.002149206, NaN, NaN, NaN, 0.03601294, "- N/A -   "
1.2, 39.5124, 0.00216309, NaN, NaN, NaN, 0.0372337, "- N/A -   "
1.21, 39.98419, 0.00217975, NaN, NaN, NaN, 0.0372337, "- N/A -   "
1.22, 40.33803, 0.00219919, NaN, NaN, NaN, 0.0372337, "- N/A -   "
1.23, 40.456, 0.00221585, NaN, NaN, NaN, 0.03601294, "- N/A -   "
1.24, 40.8098, 0.00223251, NaN, NaN, NaN, 0.03601294, "- N/A -   "
1.25, 41.16367, 0.002249169, NaN, NaN, NaN, 0.03601294, "- N/A -   "
1.26, 41.51751, 0.00226861, NaN, NaN, NaN, 0.0347922, "- N/A -   "
1.27, 41.8714, 0.00228527, NaN, NaN, NaN, 0.0347922, "- N/A -   "
1.28, 42.1072, 0.00230193, NaN, NaN, NaN, 0.0347922, "- N/A -   "
1.29, 42.4611, 0.00231859, NaN, NaN, NaN, 0.0347922, "- N/A -   "
1.3, 42.697, 0.00233247, NaN, NaN, NaN, 0.03601294, "- N/A -   "
1.31, 43.0508, 0.002349132, NaN, NaN, NaN, 0.03601294, "- N/A -   "
1.32, 43.2867, 0.00236579, NaN, NaN, NaN, 0.03601294, "- N/A -   "
1.33, 43.5226, 0.00237968, NaN, NaN, NaN, 0.0372337, "- N/A -   "
1.34, 43.75851, 0.00239356, NaN, NaN, NaN, 0.0384545, "- N/A -   "
1.35, 43.9944, 0.002407444, NaN, NaN, NaN, 0.0396753, "- N/A -   "
1.36, 44.2303, 0.00242133, NaN, NaN, NaN, 0.04089605, "- N/A -   "
1.37, 44.58414, 0.00243521, NaN, NaN, NaN, 0.04211683, "- N/A -   "
1.38, 44.82, 0.002451872, NaN, NaN, NaN, 0.04211683, "- N/A -   "
1.39, 45.05593, 0.00246576, NaN, NaN, NaN, 0.0433376, "- N/A -   "
1.4, 45.29183, 0.00247964, NaN, NaN, NaN, 0.0445584, "- N/A -   "
1.41, 45.6457, 0.0024963, NaN, NaN, NaN, 0.0445584, "- N/A -   "
1.42, 45.9995, 0.00251296, NaN, NaN, NaN, 0.0445584, "- N/A -   "
1.43, 46.11746, 0.00252962, NaN, NaN, NaN, 0.0445584, "- N/A -   "
1.44, 46.5893, 0.00254628, NaN, NaN, NaN, 0.0445584, "- N/A -   "
1.45, 46.8251, 0.002562942, NaN, NaN, NaN, 0.0445584, "- N/A -   "
1.46, 47.179, 0.00257683, NaN, NaN, NaN, 0.04577916, "- N/A -   "
1.47, 47.4149, 0.002593486, NaN, NaN, NaN, 0.04577916, "- N/A -   "
1.48, 47.65078, 0.00261015, NaN, NaN, NaN, 0.04577916, "- N/A -   "
1.49, 48.00462, 0.00262681, NaN, NaN, NaN, 0.04577916, "- N/A -   "
1.5, 48.2405, 0.00264347, NaN, NaN, NaN, 0.04577916, "- N/A -   "
1.51, 48.59436, 0.002662905, NaN, NaN, NaN, 0.0445584, "- N/A -   "
1.52, 48.9482, 0.00268234, NaN, NaN, NaN, 0.0433376, "- N/A -   "
1.53, 49.41999, 0.00270178, NaN, NaN, NaN, 0.04211683, "- N/A -   "
1.54, 49.6559, 0.00272122, NaN, NaN, NaN, 0.04089605, "- N/A -   "
1.55, 50.0097, 0.00274065, NaN, NaN, NaN, 0.0396753, "- N/A -   "
1.56, 50.2456, 0.00276287, NaN, NaN, NaN, 0.0372337, "- N/A -   "
1.57, 50.83536, 0.00278231, NaN, NaN, NaN, 0.03601294, "- N/A -   "
1.58, 51.0713, 0.00280174, NaN, NaN, NaN, 0.0347922, "- N/A -   "
1.59, 51.4251, 0.00282118, NaN, NaN, NaN, 0.0335714, "- N/A -   "
1.6, 51.7789, 0.00284062, NaN, NaN, NaN, 0.0323506, "- N/A -   "
1.61, 52.25073, 0.00286005, NaN, NaN, NaN, 0.0323506, "- N/A -   "
1.62, 52.36868, 0.00287671, NaN, NaN, NaN, 0.0323506, "- N/A -   "
1.63, 52.72252, 0.00289615, NaN, NaN, NaN, 0.0299091, "- N/A -   "
1.64, 52.9584, 0.00291281, NaN, NaN, NaN, 0.0299091, "- N/A -   "
1.65, 53.19431, 0.00293225, NaN, NaN, NaN, 0.0286883, "- N/A -   "
1.66, 53.6661, 0.00294891, NaN, NaN, NaN, 0.0286883, "- N/A -   "
1.67, 53.902, 0.00296835, NaN, NaN, NaN, 0.0274675, "- N/A -   "
1.68, 54.13789, 0.00298223, NaN, NaN, NaN, 0.0286883, "- N/A -   "
1.69, 54.4917, 0.002998892, NaN, NaN, NaN, 0.0299091, "- N/A -   "
1.7, 54.6097, 0.003012776, NaN, NaN, NaN, 0.03112983, "- N/A -   "
1.71, 54.8456, 0.00302666, NaN, NaN, NaN, 0.03112983, "- N/A -   "
1.72, 55.0815, 0.00304054, NaN, NaN, NaN, 0.0323506, "- N/A -   "
1.73, 55.3174, 0.003057204, NaN, NaN, NaN, 0.0323506, "- N/A -   "
1.74, 55.55326, 0.00307109, NaN, NaN, NaN, 0.0335714, "- N/A -   "
1.75, 55.7892, 0.00308497, NaN, NaN, NaN, 0.0347922, "- N/A -   "
1.76, 56.143, 0.003101632, NaN, NaN, NaN, 0.0347922, "- N/A -   "
1.77, 56.37889, 0.00311829, NaN, NaN, NaN, 0.0347922, "- N/A -   "
1.78, 56.4968, 0.00313218, NaN, NaN, NaN, 0.03601294, "- N/A -   "
1.79, 56.9686, 0.00315161, NaN, NaN, NaN, 0.03601294, "- N/A -   "
1.8, 57.08658, 0.003168274, NaN, NaN, NaN, 0.03601294, "- N/A -   "
1.81, 57.44042, 0.00318493, NaN, NaN, NaN, 0.0347922, "- N/A -   "
1.82, 57.6763, 0.003201595, NaN, NaN, NaN, 0.0347922, "- N/A -   "
1.83, 58.0302, 0.00321826, NaN, NaN, NaN, 0.0347922, "- N/A -   "
1.84, 58.26605, 0.003234916, NaN, NaN, NaN, 0.0347922, "- N/A -   "
1.85, 58.6199, 0.00325158, NaN, NaN, NaN, 0.0347922, "- N/A -   "
1.86, 58.8558, 0.00327101, NaN, NaN, NaN, 0.0335714, "- N/A -   "
1.87, 59.0917, 0.00328767, NaN, NaN, NaN, 0.0335714, "- N/A -   "
1.88, 59.3276, 0.00330433, NaN, NaN, NaN, 0.0335714, "- N/A -   "
1.89, 59.5635, 0.003321, NaN, NaN, NaN, 0.0335714, "- N/A -   "
1.9, 60.0353, 0.00333766, NaN, NaN, NaN, 0.0335714, "- N/A -   "
1.91, 60.15321, 0.003354316, NaN, NaN, NaN, 0.0335714, "- N/A -   "
1.92, 60.3891, 0.0033682, NaN, NaN, NaN, 0.0347922, "- N/A -   "
1.93, 60.625, 0.00338486, NaN, NaN, NaN, 0.0347922, "- N/A -   "
1.94, 60.8609, 0.00339874, NaN, NaN, NaN, 0.03601294, "- N/A -   "
1.95, 61.09679, 0.0034154, NaN, NaN, NaN, 0.03601294, "- N/A -   "
1.96, 61.3327, 0.00343207, NaN, NaN, NaN, 0.03601294, "- N/A -   "
1.97, 61.6865, 0.00344595, NaN, NaN, NaN, 0.0372337, "- N/A -   "
1.98, 61.9224, 0.00346261, NaN, NaN, NaN, 0.0372337, "- N/A -   "
1.99, 62.1583, 0.00347927, NaN, NaN, NaN, 0.0372337, "- N/A -   "
2, 62.3942, 0.00349593, NaN, NaN, NaN, 0.0372337, "- N/A -   "
2.01, 62.6301, 0.00351259, NaN, NaN, NaN, 0.0372337, "- N/A -   "
2.02, 62.866, 0.00352925, NaN, NaN, NaN, 0.0372337, "- N/A -   "
2.03, 63.1019, 0.00354314, NaN, NaN, NaN, 0.0384545, "- N/A -   "
2.04, 63.33779, 0.00355702, NaN, NaN, NaN, 0.0396753, "- N/A -   "
2.05, 63.45574, 0.0035709, NaN, NaN, NaN, 0.04089605, "- N/A -   "
2.06, 63.6916, 0.00358479, NaN, NaN, NaN, 0.04211683, "- N/A -   "
2.07, 64.04548, 0.003604224, NaN, NaN, NaN, 0.04089605, "- N/A -   "
2.08, 64.28137, 0.00361811, NaN, NaN, NaN, 0.04211683, "- N/A -   "
2.09, 64.5173, 0.00363477, NaN, NaN, NaN, 0.04211683, "- N/A -   "
2.1, 64.75317, 0.00365421, NaN, NaN, NaN, 0.04211683, "- N/A -   "
2.11, 64.98906, 0.00366809, NaN, NaN, NaN, 0.04211683, "- N/A -   "
2.12, 65.3429, 0.00368475, NaN, NaN, NaN, 0.04211683, "- N/A -   "
2.13, 65.69674, 0.003704187, NaN, NaN, NaN, 0.04089605, "- N/A -   "
2.14, 66.05058, 0.00372085, NaN, NaN, NaN, 0.04089605, "- N/A -   "
2.15, 66.05058, 0.00373751, NaN, NaN, NaN, 0.04089605, "- N/A -   "
2.16, 66.40443, 0.00375417, NaN, NaN, NaN, 0.04089605, "- N/A -   "
2.17, 66.64032, 0.00376805, NaN, NaN, NaN, 0.04211683, "- N/A -   "
2.18, 66.99416, 0.00378749, NaN, NaN, NaN, 0.04089605, "- N/A -   "
2.19, 67.23006, 0.00380415, NaN, NaN, NaN, 0.04089605, "- N/A -   "
2.2, 67.46596, 0.00382081, NaN, NaN, NaN, 0.04089605, "- N/A -   "
2.21, 67.70185, 0.003837471, NaN, NaN, NaN, 0.04089605, "- N/A -   "
2.22, 68.05569, 0.00385691, NaN, NaN, NaN, 0.0396753, "- N/A -   "
2.23, 68.40953, 0.003873569, NaN, NaN, NaN, 0.0396753, "- N/A -   "
2.24, 68.7634, 0.00389301, NaN, NaN, NaN, 0.0384545, "- N/A -   "
2.25, 68.8813, 0.00390967, NaN, NaN, NaN, 0.0384545, "- N/A -   "
2.26, 69.23517, 0.0039291, NaN, NaN, NaN, 0.0372337, "- N/A -   "
2.27, 69.589, 0.003948541, NaN, NaN, NaN, 0.03601294, "- N/A -   "
2.28, 69.8249, 0.003965202, NaN, NaN, NaN, 0.03601294, "- N/A -   "
2.29, 70.0608, 0.003981862, NaN, NaN, NaN, 0.03601294, "- N/A -   "
2.3, 70.41464, 0.00399852, NaN, NaN, NaN, 0.03601294, "- N/A -   "
2.31, 70.5326, 0.004015183, NaN, NaN, NaN, 0.03601294, "- N/A -   "
2.32, 70.88643, 0.00403462, NaN, NaN, NaN, 0.0347922, "- N/A -   "
2.33, 71.24027, 0.004048504, NaN, NaN, NaN, 0.03601294, "- N/A -   "
2.34, 71.3582, 0.004065165, NaN, NaN, NaN, 0.03601294, "- N/A -   "
2.35, 71.59412, 0.00408183, NaN, NaN, NaN, 0.03601294, "- N/A -   "
2.36, 71.83001, 0.00409849, NaN, NaN, NaN, 0.03601294, "- N/A -   "
2.37, 72.1838, 0.004117923, NaN, NaN, NaN, 0.0347922, "- N/A -   "
2.38, 72.41975, 0.00413458, NaN, NaN, NaN, 0.0347922, "- N/A -   "
2.39, 72.65564, 0.004151244, NaN, NaN, NaN, 0.0347922, "- N/A -   "
2.4, 73.12743, 0.0041679, NaN, NaN, NaN, 0.0347922, "- N/A -   "
2.41, 73.2454, 0.004184565, NaN, NaN, NaN, 0.0347922, "- N/A -   "
2.42, 73.59922, 0.004204002, NaN, NaN, NaN, 0.0335714, "- N/A -   "
2.43, 73.83511, 0.00422066, NaN, NaN, NaN, 0.0335714, "- N/A -   "
2.44, 74.189, 0.0042401, NaN, NaN, NaN, 0.0323506, "- N/A -   "
2.45, 74.42485, 0.004253984, NaN, NaN, NaN, 0.0335714, "- N/A -   "
2.46, 74.66075, 0.004273421, NaN, NaN, NaN, 0.0323506, "- N/A -   "
2.47, 74.8966, 0.00429008, NaN, NaN, NaN, 0.0323506, "- N/A -   "
2.48, 75.25049, 0.004306742, NaN, NaN, NaN, 0.0323506, "- N/A -   "
2.49, 75.48638, 0.004323403, NaN, NaN, NaN, 0.0323506, "- N/A -   "
2.5, 75.7223, 0.00434006, NaN, NaN, NaN, 0.0323506, "- N/A -   "
2.51, 76.07612, 0.00435672, NaN, NaN, NaN, 0.0323506, "- N/A -   "
2.52, 76.19407, 0.004373384, NaN, NaN, NaN, 0.0323506, "- N/A -   "
2.53, 76.5479, 0.00439004, NaN, NaN, NaN, 0.0323506, "- N/A -   "
2.54, 76.90175, 0.00440393, NaN, NaN, NaN, 0.0335714, "- N/A -   "
2.55, 77.0197, 0.00441781, NaN, NaN, NaN, 0.0347922, "- N/A -   "
2.56, 77.25559, 0.004434473, NaN, NaN, NaN, 0.0347922, "- N/A -   "
2.57, 77.49149, 0.00445113, NaN, NaN, NaN, 0.0347922, "- N/A -   "
2.58, 77.72738, 0.00446779, NaN, NaN, NaN, 0.0347922, "- N/A -   "
2.59, 77.96328, 0.004484454, NaN, NaN, NaN, 0.0347922, "- N/A -   "
2.6, 78.31712, 0.00450111, NaN, NaN, NaN, 0.0347922, "- N/A -   "
2.61, 78.67096, 0.00451778, NaN, NaN, NaN, 0.0347922, "- N/A -   "
2.62, 78.90686, 0.00453721, NaN, NaN, NaN, 0.0335714, "- N/A -   "
2.63, 79.14275, 0.004553873, NaN, NaN, NaN, 0.0335714, "- N/A -   "
2.64, 79.4966, 0.00457331, NaN, NaN, NaN, 0.0323506, "- N/A -   "
2.65, 79.85043, 0.00459275, NaN, NaN, NaN, 0.0323506, "- N/A -   "
2.66, 80.0863, 0.004609408, NaN, NaN, NaN, 0.03112983, "- N/A -   "
2.67, 80.32223, 0.004623292, NaN, NaN, NaN, 0.0323506, "- N/A -   "
2.68, 80.67606, 0.00463995, NaN, NaN, NaN, 0.0323506, "- N/A -   "
2.69, 80.912, 0.004656613, NaN, NaN, NaN, 0.0323506, "- N/A -   "
2.7, 81.14786, 0.00467327, NaN, NaN, NaN, 0.0323506, "- N/A -   "
2.71, 81.38376, 0.004687157, NaN, NaN, NaN, 0.0335714, "- N/A -   "
2.72, 81.61965, 0.004701041, NaN, NaN, NaN, 0.0347922, "- N/A -   "
2.73, 81.97349, 0.00471492, NaN, NaN, NaN, 0.03601294, "- N/A -   "
2.74, 82.09144, 0.004728808, NaN, NaN, NaN, 0.0372337, "- N/A -   "
2.75, 82.20939, 0.004742692, NaN, NaN, NaN, 0.0384545, "- N/A -   "
2.76, 82.44528, 0.004759353, NaN, NaN, NaN, 0.0396753, "- N/A -   "
2.77, 82.79912, 0.00477324, NaN, NaN, NaN, 0.0396753, "- N/A -   "
2.78, 83.03502, 0.0047899, NaN, NaN, NaN, 0.0396753, "- N/A -   "
2.79, 83.38886, 0.004803781, NaN, NaN, NaN, 0.04089605, "- N/A -   "
2.8, 83.50681, 0.00482044, NaN, NaN, NaN, 0.04089605, "- N/A -   "
2.81, 83.86065, 0.004837102, NaN, NaN, NaN, 0.04089605, "- N/A -   "
2.82, 84.09654, 0.00485099, NaN, NaN, NaN, 0.04211683, "- N/A -   "
2.83, 84.33244, 0.004867646, NaN, NaN, NaN, 0.04211683, "- N/A -   "
2.84, 84.56834, 0.00488153, NaN, NaN, NaN, 0.0433376, "- N/A -   "
2.85, 84.80424, 0.00489819, NaN, NaN, NaN, 0.0433376, "- N/A -   "
2.86, 85.15807, 0.004914851, NaN, NaN, NaN, 0.0445584, "- N/A -   "
2.87, 85.39397, 0.00493151, NaN, NaN, NaN, 0.0445584, "- N/A -   "
2.88, 85.62987, 0.004945395, NaN, NaN, NaN, 0.0445584, "- N/A -   "
2.89, 85.9837, 0.00496206, NaN, NaN, NaN, 0.0445584, "- N/A -   "
2.9, 86.2196, 0.004978716, NaN, NaN, NaN, 0.0445584, "- N/A -   "
2.91, 86.4555, 0.00499538, NaN, NaN, NaN, 0.0445584, "- N/A -   "
2.92, 86.80934, 0.005012037, NaN, NaN, NaN, 0.0445584, "- N/A -   "
2.93, 87.04523, 0.005028697, NaN, NaN, NaN, 0.0445584, "- N/A -   "
2.94, 87.39908, 0.00504814, NaN, NaN, NaN, 0.0433376, "- N/A -   "
2.95, 87.75292, 0.005067572, NaN, NaN, NaN, 0.04211683, "- N/A -   "
2.96, 88.10676, 0.005087009, NaN, NaN, NaN, 0.04089605, "- N/A -   "
2.97, 88.4606, 0.00510645, NaN, NaN, NaN, 0.04089605, "- N/A -   "
2.98, 88.8144, 0.005125884, NaN, NaN, NaN, 0.0384545, "- N/A -   "
2.99, 89.16828, 0.005145321, NaN, NaN, NaN, 0.0372337, "- N/A -   "
3, 89.40418, 0.00516198, NaN, NaN, NaN, 0.0372337, "- N/A -   "
3.01, 89.758, 0.005181419, NaN, NaN, NaN, 0.03601294, "- N/A -   "
3.02, 89.99392, 0.005198079, NaN, NaN, NaN, 0.03601294, "- N/A -   "
3.03, 90.22981, 0.00521752, NaN, NaN, NaN, 0.0347922, "- N/A -   "
3.04, 90.70161, 0.00523695, NaN, NaN, NaN, 0.0335714, "- N/A -   "
3.05, 90.9375, 0.005256391, NaN, NaN, NaN, 0.0323506, "- N/A -   "
3.06, 91.2913, 0.00527305, NaN, NaN, NaN, 0.0323506, "- N/A -   "
3.07, 91.64519, 0.005292489, NaN, NaN, NaN, 0.03112983, "- N/A -   "
3.08, 91.88108, 0.00531193, NaN, NaN, NaN, 0.0299091, "- N/A -   "
3.09, 92.35287, 0.005328587, NaN, NaN, NaN, 0.0299091, "- N/A -   "
3.1, 92.47082, 0.005345247, NaN, NaN, NaN, 0.0299091, "- N/A -   "
3.11, 92.70671, 0.00536191, NaN, NaN, NaN, 0.0299091, "- N/A -   "
3.12, 92.94261, 0.00537579, NaN, NaN, NaN, 0.03112983, "- N/A -   "
3.13, 93.2965, 0.00539245, NaN, NaN, NaN, 0.03112983, "- N/A -   "
3.14, 93.53234, 0.00540634, NaN, NaN, NaN, 0.0323506, "- N/A -   "
3.15, 93.76824, 0.005423, NaN, NaN, NaN, 0.0323506, "- N/A -   "
3.16, 94.0041, 0.005439657, NaN, NaN, NaN, 0.0323506, "- N/A -   "
3.17, 94.1221, 0.00545632, NaN, NaN, NaN, 0.0323506, "- N/A -   "
3.18, 94.59387, 0.00547298, NaN, NaN, NaN, 0.0323506, "- N/A -   "
3.19, 94.8298, 0.00549242, NaN, NaN, NaN, 0.03112983, "- N/A -   "
3.2, 95.18361, 0.00551185, NaN, NaN, NaN, 0.0299091, "- N/A -   "
3.21, 95.5374, 0.00553129, NaN, NaN, NaN, 0.0286883, "- N/A -   "
3.22, 95.7733, 0.00554795, NaN, NaN, NaN, 0.0286883, "- N/A -   "
3.23, 96.24514, 0.00556739, NaN, NaN, NaN, 0.0286883, "- N/A -   "
3.24, 96.481, 0.00558405, NaN, NaN, NaN, 0.0286883, "- N/A -   "
3.25, 96.71693, 0.00560071, NaN, NaN, NaN, 0.0286883, "- N/A -   "
3.26, 96.95282, 0.005614592, NaN, NaN, NaN, 0.0286883, "- N/A -   "
3.27, 97.07077, 0.005628476, NaN, NaN, NaN, 0.0299091, "- N/A -   "
3.28, 97.4246, 0.00564514, NaN, NaN, NaN, 0.0299091, "- N/A -   "
3.29, 97.6605, 0.005661797, NaN, NaN, NaN, 0.0299091, "- N/A -   "
3.3, 97.8964, 0.00567846, NaN, NaN, NaN, 0.0299091, "- N/A -   "
3.31, 98.13229, 0.00569234, NaN, NaN, NaN, 0.03112983, "- N/A -   "
3.32, 98.4861, 0.005709002, NaN, NaN, NaN, 0.03112983, "- N/A -   "
3.33, 98.72203, 0.00572566, NaN, NaN, NaN, 0.03112983, "- N/A -   "
3.34, 98.9579, 0.005739546, NaN, NaN, NaN, 0.0323506, "- N/A -   "
3.35, 99.1938, 0.005756207, NaN, NaN, NaN, 0.0335714, "- N/A -   "
3.36, 99.42972, 0.00577009, NaN, NaN, NaN, 0.0335714, "- N/A -   "
3.37, 99.7836, 0.005786751, NaN, NaN, NaN, 0.0335714, "- N/A -   "
3.38, 100.019, 0.00580063, NaN, NaN, NaN, 0.0347922, "- N/A -   "
3.39, 100.255, 0.005817295, NaN, NaN, NaN, 0.0347922, "- N/A -   "
3.4, 100.3733, 0.00583118, NaN, NaN, NaN, 0.03601294, "- N/A -   "
3.41, 100.6092, 0.005845063, NaN, NaN, NaN, 0.0372337, "- N/A -   "
3.42, 100.845, 0.00585895, NaN, NaN, NaN, 0.0384545, "- N/A -   "
3.43, 101.081, 0.00587283, NaN, NaN, NaN, 0.0396753, "- N/A -   "
3.44, 101.317, 0.005886714, NaN, NaN, NaN, 0.04089605, "- N/A -   "
3.45, 101.435, 0.00590337, NaN, NaN, NaN, 0.04089605, "- N/A -   "
3.46, 101.789, 0.005917258, NaN, NaN, NaN, 0.04211683, "- N/A -   "
3.47, 102.025, 0.005931142, NaN, NaN, NaN, 0.0433376, "- N/A -   "
3.48, 102.26, 0.005945026, NaN, NaN, NaN, 0.0445584, "- N/A -   "
3.49, 102.496, 0.005961686, NaN, NaN, NaN, 0.0445584, "- N/A -   "
3.5, 102.732, 0.00597557, NaN, NaN, NaN, 0.04577916, "- N/A -   "
3.51, 103.086, 0.00599223, NaN, NaN, NaN, 0.04577916, "- N/A -   "
3.52, 103.44, 0.006008891, NaN, NaN, NaN, 0.04577916, "- N/A -   "
3.53, 103.676, 0.006025552, NaN, NaN, NaN, 0.04699994, "- N/A -   "
3.54, 103.912, 0.006042212, NaN, NaN, NaN, 0.04699994, "- N/A -   "
3.55, 104.148, 0.00605887, NaN, NaN, NaN, 0.04699994, "- N/A -   "
3.56, 104.501, 0.00607831, NaN, NaN, NaN, 0.04577916, "- N/A -   "
3.57, 104.855, 0.00609497, NaN, NaN, NaN, 0.04577916, "- N/A -   "
3.58, 105.091, 0.006114408, NaN, NaN, NaN, 0.0445584, "- N/A -   "
3.59, 105.445, 0.006133845, NaN, NaN, NaN, 0.0433376, "- N/A -   "
3.6, 105.799, 0.00615328, NaN, NaN, NaN, 0.04211683, "- N/A -   "
3.61, 106.153, 0.006172719, NaN, NaN, NaN, 0.04089605, "- N/A -   "
3.62, 106.389, 0.006192157, NaN, NaN, NaN, 0.0396753, "- N/A -   "
3.63, 106.625, 0.006208817, NaN, NaN, NaN, 0.0396753, "- N/A -   "
3.64, 106.978, 0.006225478, NaN, NaN, NaN, 0.0396753, "- N/A -   "
3.65, 107.3322, 0.006244915, NaN, NaN, NaN, 0.0384545, "- N/A -   "
3.66, 107.568, 0.00626435, NaN, NaN, NaN, 0.0372337, "- N/A -   "
3.67, 107.922, 0.00628379, NaN, NaN, NaN, 0.03601294, "- N/A -   "
3.68, 108.158, 0.00630045, NaN, NaN, NaN, 0.03601294, "- N/A -   "
3.69, 108.394, 0.00631711, NaN, NaN, NaN, 0.03601294, "- N/A -   "
3.7, 108.63, 0.006333771, NaN, NaN, NaN, 0.03601294, "- N/A -   "
3.71, 108.983, 0.00635321, NaN, NaN, NaN, 0.0347922, "- N/A -   "
3.72, 109.219, 0.00636987, NaN, NaN, NaN, 0.03601294, "- N/A -   "
3.73, 109.5732, 0.00638375, NaN, NaN, NaN, 0.03601294, "- N/A -   "
3.74, 109.8091, 0.00640319, NaN, NaN, NaN, 0.0347922, "- N/A -   "
3.75, 110.045, 0.00641985, NaN, NaN, NaN, 0.0347922, "- N/A -   "
3.76, 110.399, 0.006439287, NaN, NaN, NaN, 0.0335714, "- N/A -   "
3.77, 110.635, 0.006455948, NaN, NaN, NaN, 0.0335714, "- N/A -   "
3.78, 110.871, 0.00647261, NaN, NaN, NaN, 0.0335714, "- N/A -   "
3.79, 111.224, 0.006492046, NaN, NaN, NaN, 0.0323506, "- N/A -   "
3.8, 111.46, 0.006508706, NaN, NaN, NaN, 0.0323506, "- N/A -   "
3.81, 111.696, 0.006528144, NaN, NaN, NaN, 0.0323506, "- N/A -   "
3.82, 112.0501, 0.006544804, NaN, NaN, NaN, 0.0323506, "- N/A -   "
3.83, 112.286, 0.006561465, NaN, NaN, NaN, 0.03112983, "- N/A -   "
3.84, 112.522, 0.006578125, NaN, NaN, NaN, 0.03112983, "- N/A -   "
3.85, 112.876, 0.006594786, NaN, NaN, NaN, 0.03112983, "- N/A -   "
3.86, 113.112, 0.006614223, NaN, NaN, NaN, 0.0299091, "- N/A -   "
3.87, 113.348, 0.00663088, NaN, NaN, NaN, 0.0299091, "- N/A -   "
3.88, 113.583, 0.006647544, NaN, NaN, NaN, 0.0299091, "- N/A -   "
3.89, 113.937, 0.0066642, NaN, NaN, NaN, 0.0299091, "- N/A -   "
3.9, 114.055, 0.00668087, NaN, NaN, NaN, 0.0299091, "- N/A -   "
3.909, 114.409, 0.00669753, NaN, NaN, NaN, 0.0299091, "- N/A -   "
3.92, 114.645, 0.006714186, NaN, NaN, NaN, 0.03112983, "- N/A -   "
3.929, 114.881, 0.00672807, NaN, NaN, NaN, 0.03112983, "- N/A -   "
3.94, 115.117, 0.00674195, NaN, NaN, NaN, 0.0323506, "- N/A -   "
3.949, 115.353, 0.006758614, NaN, NaN, NaN, 0.0323506, "- N/A -   "
3.96, 115.589, 0.00677527, NaN, NaN, NaN, 0.0323506, "- N/A -   "
3.969, 115.824, 0.006789158, NaN, NaN, NaN, 0.0335714, "- N/A -   "
3.98, 116.06, 0.00680304, NaN, NaN, NaN, 0.0347922, "- N/A -   "
3.989, 116.296, 0.006819702, NaN, NaN, NaN, 0.0347922, "- N/A -   "
4, 116.5321, 0.006836363, NaN, NaN, NaN, 0.0347922, "- N/A -   "
4.01, 116.886, 0.00685302, NaN, NaN, NaN, 0.03601294, "- N/A -   "
4.02, 117.004, 0.00686691, NaN, NaN, NaN, 0.03601294, "- N/A -   "
4.03, 117.24, 0.00688079, NaN, NaN, NaN, 0.0372337, "- N/A -   "
4.04, 117.476, 0.006894675, NaN, NaN, NaN, 0.0384545, "- N/A -   "
4.05, 117.594, 0.00691134, NaN, NaN, NaN, 0.0384545, "- N/A -   "
4.06, 117.947, 0.006928, NaN, NaN, NaN, 0.0384545, "- N/A -   "
4.07, 118.183, 0.00694188, NaN, NaN, NaN, 0.0396753, "- N/A -   "
4.08, 118.419, 0.00695854, NaN, NaN, NaN, 0.0396753, "- N/A -   "
4.09, 118.655, 0.0069752, NaN, NaN, NaN, 0.0396753, "- N/A -   "
4.1, 118.891, 0.00698908, NaN, NaN, NaN, 0.04089605, "- N/A -   "
4.11, 119.009, 0.00700297, NaN, NaN, NaN, 0.04211683, "- N/A -   "
4.12, 119.245, 0.007016852, NaN, NaN, NaN, 0.0433376, "- N/A -   "
4.13, 119.599, 0.00703074, NaN, NaN, NaN, 0.0445584, "- N/A -   "
4.14, 119.717, 0.007047396, NaN, NaN, NaN, 0.0445584, "- N/A -   "
4.15, 120.071, 0.00706128, NaN, NaN, NaN, 0.04577916, "- N/A -   "
4.16, 120.306, 0.00707794, NaN, NaN, NaN, 0.04577916, "- N/A -   "
4.17, 120.542, 0.007094601, NaN, NaN, NaN, 0.04577916, "- N/A -   "
4.18, 120.896, 0.00711404, NaN, NaN, NaN, 0.0445584, "- N/A -   "
4.19, 121.014, 0.0071307, NaN, NaN, NaN, 0.0445584, "- N/A -   "
4.2, 121.368, 0.00714736, NaN, NaN, NaN, 0.0445584, "- N/A -   "
4.21, 121.722, 0.00716402, NaN, NaN, NaN, 0.0445584, "- N/A -   "
4.22, 121.958, 0.00718068, NaN, NaN, NaN, 0.0445584, "- N/A -   "
4.23, 122.194, 0.00719734, NaN, NaN, NaN, 0.0445584, "- N/A -   "
4.24, 122.547, 0.007214, NaN, NaN, NaN, 0.0445584, "- N/A -   "
4.25, 122.783, 0.00723344, NaN, NaN, NaN, 0.0433376, "- N/A -   "
4.26, 123.019, 0.0072501, NaN, NaN, NaN, 0.0433376, "- N/A -   "
4.27, 123.373, 0.00726676, NaN, NaN, NaN, 0.0433376, "- N/A -   "
4.28, 123.609, 0.00728342, NaN, NaN, NaN, 0.0433376, "- N/A -   "
4.29, 123.963, 0.00730286, NaN, NaN, NaN, 0.0433376, "- N/A -   "
4.3, 124.199, 0.007319518, NaN, NaN, NaN, 0.04211683, "- N/A -   "
4.31, 124.435, 0.007336179, NaN, NaN, NaN, 0.04211683, "- N/A -   "
4.32, 124.788, 0.00735562, NaN, NaN, NaN, 0.04089605, "- N/A -   "
4.33, 125.142, 0.00737505, NaN, NaN, NaN, 0.0396753, "- N/A -   "
4.34, 125.496, 0.007397267, NaN, NaN, NaN, 0.0372337, "- N/A -   "
4.35, 125.732, 0.00741393, NaN, NaN, NaN, 0.0372337, "- N/A -   "
4.36, 126.086, 0.007436142, NaN, NaN, NaN, 0.0347922, "- N/A -   "
4.37, 126.44, 0.00745558, NaN, NaN, NaN, 0.0335714, "- N/A -   "
4.38, 126.794, 0.00747502, NaN, NaN, NaN, 0.0323506, "- N/A -   "
4.39, 127.147, 0.00749445, NaN, NaN, NaN, 0.0323506, "- N/A -   "
4.4, 127.383, 0.007511114, NaN, NaN, NaN, 0.03112983, "- N/A -   "
4.41, 127.737, 0.00752777, NaN, NaN, NaN, 0.03112983, "- N/A -   "
4.42, 127.973, 0.007547212, NaN, NaN, NaN, 0.0299091, "- N/A -   "
4.43, 128.209, 0.007563872, NaN, NaN, NaN, 0.0299091, "- N/A -   "
4.44, 128.4448, 0.00758053, NaN, NaN, NaN, 0.0299091, "- N/A -   "
4.45, 128.6807, 0.007597193, NaN, NaN, NaN, 0.0299091, "- N/A -   "
4.46, 129.035, 0.00761385, NaN, NaN, NaN, 0.0299091, "- N/A -   "
4.47, 129.27, 0.007630514, NaN, NaN, NaN, 0.0299091, "- N/A -   "
4.48, 129.624, 0.007647175, NaN, NaN, NaN, 0.0299091, "- N/A -   "
4.49, 129.86, 0.007663835, NaN, NaN, NaN, 0.0299091, "- N/A -   "
4.5, 130.096, 0.0076805, NaN, NaN, NaN, 0.0299091, "- N/A -   "
4.51, 130.332, 0.00769438, NaN, NaN, NaN, 0.03112983, "- N/A -   "
4.52, 130.568, 0.00771104, NaN, NaN, NaN, 0.03112983, "- N/A -   "
4.53, 130.922, 0.0077277, NaN, NaN, NaN, 0.03112983, "- N/A -   "
4.54, 131.04, 0.00774436, NaN, NaN, NaN, 0.03112983, "- N/A -   "
4.55, 131.393, 0.00776102, NaN, NaN, NaN, 0.03112983, "- N/A -   "
4.56, 131.511, 0.007777682, NaN, NaN, NaN, 0.03112983, "- N/A -   "
4.57, 131.747, 0.007794343, NaN, NaN, NaN, 0.03112983, "- N/A -   "
4.58, 132.219, 0.00781378, NaN, NaN, NaN, 0.03112983, "- N/A -   "
4.59, 132.455, 0.007827664, NaN, NaN, NaN, 0.03112983, "- N/A -   "
4.6, 132.6909, 0.007844324, NaN, NaN, NaN, 0.03112983, "- N/A -   "
4.61, 132.809, 0.007858207, NaN, NaN, NaN, 0.0323506, "- N/A -   "
4.62, 133.163, 0.007872092, NaN, NaN, NaN, 0.0335714, "- N/A -   "
4.63, 133.281, 0.007888752, NaN, NaN, NaN, 0.0335714, "- N/A -   "
4.64, 133.634, 0.007902636, NaN, NaN, NaN, 0.0347922, "- N/A -   "
4.65, 133.87, 0.007919297, NaN, NaN, NaN, 0.0347922, "- N/A -   "
4.66, 134.106, 0.00793318, NaN, NaN, NaN, 0.03601294, "- N/A -   "
4.67, 134.342, 0.007949841, NaN, NaN, NaN, 0.03601294, "- N/A -   "
4.68, 134.696, 0.007966501, NaN, NaN, NaN, 0.03601294, "- N/A -   "
4.69, 134.932, 0.007983162, NaN, NaN, NaN, 0.03601294, "- N/A -   "
4.7, 135.05, 0.007997045, NaN, NaN, NaN, 0.0372337, "- N/A -   "
4.71, 135.286, 0.008013706, NaN, NaN, NaN, 0.0372337, "- N/A -   "
4.72, 135.64, 0.008030366, NaN, NaN, NaN, 0.0372337, "- N/A -   "
4.73, 135.993, 0.008047027, NaN, NaN, NaN, 0.0372337, "- N/A -   "
4.74, 136.229, 0.008063687, NaN, NaN, NaN, 0.0372337, "- N/A -   "
4.75, 136.465, 0.008080348, NaN, NaN, NaN, 0.0372337, "- N/A -   "
4.76, 136.701, 0.008094232, NaN, NaN, NaN, 0.0384545, "- N/A -   "
4.77, 136.819, 0.008108115, NaN, NaN, NaN, 0.0396753, "- N/A -   "
4.78, 137.055, 0.008121999, NaN, NaN, NaN, 0.04089605, "- N/A -   "
4.79, 137.4088, 0.00813866, NaN, NaN, NaN, 0.04089605, "- N/A -   "
4.8, 137.527, 0.00815532, NaN, NaN, NaN, 0.04089605, "- N/A -   "
4.81, 137.8806, 0.008169204, NaN, NaN, NaN, 0.04211683, "- N/A -   "
4.82, 137.999, 0.008183088, NaN, NaN, NaN, 0.0433376, "- N/A -   "
4.83, 138.234, 0.008199749, NaN, NaN, NaN, 0.0433376, "- N/A -   "
4.84, 138.588, 0.008216409, NaN, NaN, NaN, 0.0433376, "- N/A -   "
4.85, 138.824, 0.008233069, NaN, NaN, NaN, 0.0433376, "- N/A -   "
4.86, 139.178, 0.008246954, NaN, NaN, NaN, 0.0445584, "- N/A -   "
4.87, 139.414, 0.008263613, NaN, NaN, NaN, 0.0445584, "- N/A -   "
4.88, 139.65, 0.008280274, NaN, NaN, NaN, 0.0445584, "- N/A -   "
4.89, 140.004, 0.008296934, NaN, NaN, NaN, 0.0445584, "- N/A -   "
4.9, 140.1216, 0.008313595, NaN, NaN, NaN, 0.0445584, "- N/A -   "
4.91, 140.593, 0.008330256, NaN, NaN, NaN, 0.0445584, "- N/A -   "
4.92, 140.829, 0.008346916, NaN, NaN, NaN, 0.0445584, "- N/A -   "
4.93, 141.065, 0.008366354, NaN, NaN, NaN, 0.0433376, "- N/A -   "
4.94, 141.419, 0.008383014, NaN, NaN, NaN, 0.0433376, "- N/A -   "
4.95, 141.773, 0.008402451, NaN, NaN, NaN, 0.04211683, "- N/A -   "
4.96, 142.245, 0.008424665, NaN, NaN, NaN, 0.0396753, "- N/A -   "
4.97, 142.5985, 0.0084441, NaN, NaN, NaN, 0.0384545, "- N/A -   "
4.98, 142.952, 0.008463539, NaN, NaN, NaN, 0.0372337, "- N/A -   "
4.99, 143.306, 0.008482977, NaN, NaN, NaN, 0.03601294, "- N/A -   "
5, 143.424, 0.008499637, NaN, NaN, NaN, 0.03601294, "- N/A -   "
5.01, 143.778, 0.008519075, NaN, NaN, NaN, 0.0347922, "- N/A -   "
5.02, 144.132, 0.00853851, NaN, NaN, NaN, 0.0335714, "- N/A -   "
5.03, 144.368, 0.008555172, NaN, NaN, NaN, 0.0335714, "- N/A -   "
5.04, 144.722, 0.00857461, NaN, NaN, NaN, 0.0323506, "- N/A -   "
5.05, 144.957, 0.008594047, NaN, NaN, NaN, 0.0323506, "- N/A -   "
5.06, 145.311, 0.008610708, NaN, NaN, NaN, 0.03112983, "- N/A -   "
5.07, 145.547, 0.008627368, NaN, NaN, NaN, 0.03112983, "- N/A -   "
5.08, 145.901, 0.008646806, NaN, NaN, NaN, 0.0299091, "- N/A -   "
5.09, 146.137, 0.008663465, NaN, NaN, NaN, 0.0299091, "- N/A -   "
5.1, 146.3728, 0.008677349, NaN, NaN, NaN, 0.03112983, "- N/A -   "
5.11, 146.6087, 0.008694011, NaN, NaN, NaN, 0.03112983, "- N/A -   "
5.12, 146.727, 0.008707894, NaN, NaN, NaN, 0.0323506, "- N/A -   "
5.13, 147.0805, 0.008721777, NaN, NaN, NaN, 0.0335714, "- N/A -   "
5.14, 147.316, 0.008735661, NaN, NaN, NaN, 0.0347922, "- N/A -   "
5.15, 147.552, 0.008752322, NaN, NaN, NaN, 0.0347922, "- N/A -   "
5.16, 147.788, 0.008766206, NaN, NaN, NaN, 0.03601294, "- N/A -   "
5.17, 148.024, 0.008785643, NaN, NaN, NaN, 0.0347922, "- N/A -   "
5.18, 148.26, 0.008799527, NaN, NaN, NaN, 0.03601294, "- N/A -   "
5.19, 148.6138, 0.008813411, NaN, NaN, NaN, 0.0372337, "- N/A -   "
5.2, 148.8497, 0.00883007, NaN, NaN, NaN, 0.0372337, "- N/A -   "
5.21, 149.0856, 0.008849508, NaN, NaN, NaN, 0.03601294, "- N/A -   "
5.22, 149.3215, 0.008863391, NaN, NaN, NaN, 0.0372337, "- N/A -   "
5.23, 149.675, 0.00888283, NaN, NaN, NaN, 0.03601294, "- N/A -   "
5.24, 149.911, 0.008899489, NaN, NaN, NaN, 0.03601294, "- N/A -   "
5.25, 150.265, 0.008918927, NaN, NaN, NaN, 0.03601294, "- N/A -   "
5.26, 150.619, 0.00893559, NaN, NaN, NaN, 0.0347922, "- N/A -   "
5.27, 150.855, 0.008952248, NaN, NaN, NaN, 0.0347922, "- N/A -   "
5.28, 151.209, 0.008971686, NaN, NaN, NaN, 0.0335714, "- N/A -   "
5.29, 151.5625, 0.008988346, NaN, NaN, NaN, 0.0335714, "- N/A -   "
5.3, 151.798, 0.009007783, NaN, NaN, NaN, 0.0323506, "- N/A -   "
5.31, 152.27, 0.009024444, NaN, NaN, NaN, 0.0323506, "- N/A -   "
5.32, 152.388, 0.009041104, NaN, NaN, NaN, 0.0323506, "- N/A -   "
5.33, 152.742, 0.009054988, NaN, NaN, NaN, 0.0335714, "- N/A -   "
5.34, 152.978, 0.009071649, NaN, NaN, NaN, 0.0335714, "- N/A -   "
5.35, 153.214, 0.009088309, NaN, NaN, NaN, 0.0347922, "- N/A -   "
5.36, 153.332, 0.009102193, NaN, NaN, NaN, 0.0347922, "- N/A -   "
5.37, 153.686, 0.009118853, NaN, NaN, NaN, 0.0347922, "- N/A -   "
5.38, 153.921, 0.009132737, NaN, NaN, NaN, 0.03601294, "- N/A -   "
5.39, 154.157, 0.009149398, NaN, NaN, NaN, 0.03601294, "- N/A -   "
5.4, 154.511, 0.009163281, NaN, NaN, NaN, 0.0372337, "- N/A -   "
5.41, 154.629, 0.009179941, NaN, NaN, NaN, 0.0372337, "- N/A -   "
5.42, 154.865, 0.009193826, NaN, NaN, NaN, 0.0384545, "- N/A -   "
5.43, 155.101, 0.009210486, NaN, NaN, NaN, 0.0384545, "- N/A -   "
5.44, 155.337, 0.00922437, NaN, NaN, NaN, 0.0396753, "- N/A -   "
5.45, 155.691, 0.00924103, NaN, NaN, NaN, 0.0396753, "- N/A -   "
5.46, 156.0445, 0.009254914, NaN, NaN, NaN, 0.04089605, "- N/A -   "
5.47, 156.2804, 0.009271575, NaN, NaN, NaN, 0.04089605, "- N/A -   "
5.48, 156.5163, 0.009285458, NaN, NaN, NaN, 0.04211683, "- N/A -   "
5.49, 156.752, 0.009302119, NaN, NaN, NaN, 0.04211683, "- N/A -   "
5.5, 156.988, 0.009318779, NaN, NaN, NaN, 0.04211683, "- N/A -   "
5.51, 157.342, 0.00933544, NaN, NaN, NaN, 0.04211683, "- N/A -   "
5.52, 157.578, 0.0093521, NaN, NaN, NaN, 0.04211683, "- N/A -   "
5.53, 157.932, 0.009371538, NaN, NaN, NaN, 0.04089605, "- N/A -   "
5.54, 158.168, 0.009388198, NaN, NaN, NaN, 0.04089605, "- N/A -   "
5.55, 158.521, 0.009404859, NaN, NaN, NaN, 0.04089605, "- N/A -   "
5.56, 158.875, 0.009421519, NaN, NaN, NaN, 0.04089605, "- N/A -   "
5.57, 159.111, 0.009438179, NaN, NaN, NaN, 0.04089605, "- N/A -   "
5.58, 159.465, 0.00945484, NaN, NaN, NaN, 0.04089605, "- N/A -   "
5.59, 159.701, 0.009471501, NaN, NaN, NaN, 0.04089605, "- N/A -   "
5.6, 160.055, 0.009488161, NaN, NaN, NaN, 0.04089605, "- N/A -   "
5.61, 160.2906, 0.009507598, NaN, NaN, NaN, 0.0396753, "- N/A -   "
5.62, 160.644, 0.009527036, NaN, NaN, NaN, 0.0384545, "- N/A -   "
5.63, 160.88, 0.009543696, NaN, NaN, NaN, 0.0384545, "- N/A -   "
5.64, 161.234, 0.009563133, NaN, NaN, NaN, 0.0384545, "- N/A -   "
5.65, 161.4701, 0.009582571, NaN, NaN, NaN, 0.0372337, "- N/A -   "
5.66, 161.942, 0.009599231, NaN, NaN, NaN, 0.03601294, "- N/A -   "
5.67, 162.178, 0.009615892, NaN, NaN, NaN, 0.03601294, "- N/A -   "
5.68, 162.414, 0.009632552, NaN, NaN, NaN, 0.03601294, "- N/A -   "
5.69, 162.65, 0.00964921, NaN, NaN, NaN, 0.03601294, "- N/A -   "
5.7, 163.0034, 0.009663098, NaN, NaN, NaN, 0.0372337, "- N/A -   "
5.71, 163.357, 0.009679758, NaN, NaN, NaN, 0.0372337, "- N/A -   "
5.72, 163.593, 0.009699196, NaN, NaN, NaN, 0.0372337, "- N/A -   "
5.73, 163.947, 0.009715856, NaN, NaN, NaN, 0.03601294, "- N/A -   "
5.74, 164.183, 0.009729738, NaN, NaN, NaN, 0.0372337, "- N/A -   "
5.75, 164.419, 0.009749176, NaN, NaN, NaN, 0.03601294, "- N/A -   "
5.76, 164.655, 0.009763059, NaN, NaN, NaN, 0.0372337, "- N/A -   "
5.77, 164.891, 0.009779719, NaN, NaN, NaN, 0.0372337, "- N/A -   "
5.78, 165.2444, 0.009796382, NaN, NaN, NaN, 0.0372337, "- N/A -   "
5.79, 165.4803, 0.009813041, NaN, NaN, NaN, 0.0372337, "- N/A -   "
5.8, 165.834, 0.009829702, NaN, NaN, NaN, 0.0372337, "- N/A -   "
5.81, 166.07, 0.009846362, NaN, NaN, NaN, 0.0372337, "- N/A -   "
5.82, 166.424, 0.0098658, NaN, NaN, NaN, 0.03601294, "- N/A -   "
5.83, 166.778, 0.009885238, NaN, NaN, NaN, 0.03601294, "- N/A -   "
5.84, 167.132, 0.009901898, NaN, NaN, NaN, 0.0347922, "- N/A -   "
5.85, 167.485, 0.009918558, NaN, NaN, NaN, 0.0347922, "- N/A -   "
5.86, 167.7213, 0.009937996, NaN, NaN, NaN, 0.0335714, "- N/A -   "
5.87, 168.075, 0.009951878, NaN, NaN, NaN, 0.0347922, "- N/A -   "
5.88, 168.311, 0.009971316, NaN, NaN, NaN, 0.0335714, "- N/A -   "
5.89, 168.665, 0.009987976, NaN, NaN, NaN, 0.0335714, "- N/A -   "
5.9, 168.783, 0.0100046, NaN, NaN, NaN, 0.0335714, "- N/A -   "
5.91, 169.137, 0.0100241, NaN, NaN, NaN, 0.0323506, "- N/A -   "
5.92, 169.491, 0.0100435, NaN, NaN, NaN, 0.03112983, "- N/A -   "
5.93, 169.844, 0.0100602, NaN, NaN, NaN, 0.03112983, "- N/A -   "
5.94, 170.1982, 0.01007961, NaN, NaN, NaN, 0.0299091, "- N/A -   "
5.95, 170.4341, 0.0100963, NaN, NaN, NaN, 0.0299091, "- N/A -   "
[...]
23.3, 839.3637, 0.03898837, NaN, NaN, NaN, 0.04089605, "- N/A -   "
23.32, 840.192, 0.0390189, NaN, NaN, NaN, 0.04211683, "- N/A -   "
23.34, 841.02, 0.0390495, NaN, NaN, NaN, 0.0433376, "- N/A -   "
23.36, 841.7294, 0.0390772, NaN, NaN, NaN, 0.04577916, "- N/A -   "
23.38, 842.6756, 0.0391133, NaN, NaN, NaN, 0.0445584, "- N/A -   "
23.4, 843.6219, 0.0391522, NaN, NaN, NaN, 0.04211683, "- N/A -   "
23.42, 844.4498, 0.03918552, NaN, NaN, NaN, 0.04211683, "- N/A -   "
23.44, 845.5143, 0.0392244, NaN, NaN, NaN, 0.0396753, "- N/A -   "
23.46, 846.579, 0.0392633, NaN, NaN, NaN, 0.0372337, "- N/A -   "
23.48, 847.6434, 0.0393021, NaN, NaN, NaN, 0.0347922, "- N/A -   "
23.5, 848.708, 0.039341, NaN, NaN, NaN, 0.0323506, "- N/A -   "
23.52, 849.6542, 0.0393771, NaN, NaN, NaN, 0.03112983, "- N/A -   "
23.54, 850.6004, 0.0394132, NaN, NaN, NaN, 0.0299091, "- N/A -   "
23.56, 851.5467, 0.0394465, NaN, NaN, NaN, 0.0299091, "- N/A -   "
23.58, 852.375, 0.0394799, NaN, NaN, NaN, 0.03112983, "- N/A -   "
23.6, 852.966, 0.0395104, NaN, NaN, NaN, 0.0323506, "- N/A -   "
23.62, 853.794, 0.0395382, NaN, NaN, NaN, 0.0335714, "- N/A -   "
23.64, 854.622, 0.03957149, NaN, NaN, NaN, 0.0335714, "- N/A -   "
23.66, 855.5682, 0.03960759, NaN, NaN, NaN, 0.0323506, "- N/A -   "
23.68, 856.514, 0.0396437, NaN, NaN, NaN, 0.03112983, "- N/A -   "
23.7, 857.579, 0.03968256, NaN, NaN, NaN, 0.0286883, "- N/A -   "
23.72, 858.4069, 0.03971588, NaN, NaN, NaN, 0.0286883, "- N/A -   "
23.74, 859.2349, 0.0397464, NaN, NaN, NaN, 0.0299091, "- N/A -   "
23.76, 860.063, 0.0397742, NaN, NaN, NaN, 0.0323506, "- N/A -   "
23.78, 860.8908, 0.0398075, NaN, NaN, NaN, 0.0335714, "- N/A -   "
23.8, 861.7188, 0.0398381, NaN, NaN, NaN, 0.0335714, "- N/A -   "
23.82, 862.4285, 0.0398686, NaN, NaN, NaN, 0.0347922, "- N/A -   "
23.84, 863.2565, 0.0398991, NaN, NaN, NaN, 0.03601294, "- N/A -   "
23.86, 864.0844, 0.0399269, NaN, NaN, NaN, 0.0384545, "- N/A -   "
23.88, 864.7941, 0.0399575, NaN, NaN, NaN, 0.0396753, "- N/A -   "
23.9, 865.3855, 0.0399852, NaN, NaN, NaN, 0.04211683, "- N/A -   "
23.92, 866.213, 0.04001577, NaN, NaN, NaN, 0.0433376, "- N/A -   "
23.94, 867.041, 0.0400463, NaN, NaN, NaN, 0.0445584, "- N/A -   "
23.96, 867.751, 0.04007686, NaN, NaN, NaN, 0.04577916, "- N/A -   "
23.98, 868.5791, 0.0401074, NaN, NaN, NaN, 0.04699994, "- N/A -   "
24, 869.5254, 0.0401407, NaN, NaN, NaN, 0.04699994, "- N/A -   "
24.02, 870.4716, 0.04017682, NaN, NaN, NaN, 0.04577916, "- N/A -   "
24.04, 871.4178, 0.0402129, NaN, NaN, NaN, 0.0445584, "- N/A -   "
24.06, 872.482, 0.0402518, NaN, NaN, NaN, 0.04211683, "- N/A -   "
24.08, 873.4286, 0.0402934, NaN, NaN, NaN, 0.0384545, "- N/A -   "
24.1, 874.4931, 0.0403295, NaN, NaN, NaN, 0.0372337, "- N/A -   "
24.12, 875.4394, 0.04036564, NaN, NaN, NaN, 0.03601294, "- N/A -   "
24.14, 876.3856, 0.0404017, NaN, NaN, NaN, 0.0347922, "- N/A -   "
24.16, 877.214, 0.04043506, NaN, NaN, NaN, 0.03601294, "- N/A -   "
24.18, 878.042, 0.0404656, NaN, NaN, NaN, 0.03601294, "- N/A -   "
24.2, 878.8695, 0.0404989, NaN, NaN, NaN, 0.03601294, "- N/A -   "
24.22, 879.697, 0.0405322, NaN, NaN, NaN, 0.03601294, "- N/A -   "
24.24, 880.644, 0.0405656, NaN, NaN, NaN, 0.03601294, "- N/A -   "
24.26, 881.708, 0.0406044, NaN, NaN, NaN, 0.0335714, "- N/A -   "
24.28, 882.655, 0.0406433, NaN, NaN, NaN, 0.03112983, "- N/A -   "
24.3, 883.719, 0.0406794, NaN, NaN, NaN, 0.0299091, "- N/A -   "
24.32, 884.547, 0.0407127, NaN, NaN, NaN, 0.0299091, "- N/A -   "
24.34, 885.375, 0.0407433, NaN, NaN, NaN, 0.03112983, "- N/A -   "
24.36, 886.203, 0.0407766, NaN, NaN, NaN, 0.03112983, "- N/A -   "
24.38, 887.0309, 0.04080992, NaN, NaN, NaN, 0.03112983, "- N/A -   "
24.4, 887.9772, 0.0408432, NaN, NaN, NaN, 0.03112983, "- N/A -   "
24.42, 888.8051, 0.0408766, NaN, NaN, NaN, 0.03112983, "- N/A -   "
24.44, 889.633, 0.0409071, NaN, NaN, NaN, 0.0323506, "- N/A -   "
24.46, 890.3427, 0.0409404, NaN, NaN, NaN, 0.0335714, "- N/A -   "
24.48, 891.1707, 0.0409682, NaN, NaN, NaN, 0.0347922, "- N/A -   "
24.5, 891.88, 0.0409987, NaN, NaN, NaN, 0.03601294, "- N/A -   "
24.52, 892.7084, 0.0410293, NaN, NaN, NaN, 0.0372337, "- N/A -   "
24.54, 893.4181, 0.0410571, NaN, NaN, NaN, 0.0396753, "- N/A -   "
24.56, 894.009, 0.0410876, NaN, NaN, NaN, 0.04089605, "- N/A -   "
24.58, 894.8374, 0.04111814, NaN, NaN, NaN, 0.04211683, "- N/A -   "
24.6, 895.7837, 0.04114868, NaN, NaN, NaN, 0.0433376, "- N/A -   "
24.62, 896.612, 0.041182, NaN, NaN, NaN, 0.0433376, "- N/A -   "
24.64, 897.558, 0.0412153, NaN, NaN, NaN, 0.0433376, "- N/A -   "
24.66, 898.504, 0.0412514, NaN, NaN, NaN, 0.04211683, "- N/A -   "
24.68, 899.2138, 0.0412847, NaN, NaN, NaN, 0.04211683, "- N/A -   "
24.7, 900.0418, 0.0413181, NaN, NaN, NaN, 0.04211683, "- N/A -   "
24.72, 900.9881, 0.04134861, NaN, NaN, NaN, 0.0433376, "- N/A -   "
24.74, 902.053, 0.0413847, NaN, NaN, NaN, 0.04211683, "- N/A -   "
24.76, 902.8805, 0.0414208, NaN, NaN, NaN, 0.04089605, "- N/A -   "
24.78, 903.7085, 0.0414569, NaN, NaN, NaN, 0.0396753, "- N/A -   "
24.8, 904.8913, 0.0414958, NaN, NaN, NaN, 0.0372337, "- N/A -   "
24.82, 905.8375, 0.0415347, NaN, NaN, NaN, 0.0347922, "- N/A -   "
24.84, 906.9021, 0.0415763, NaN, NaN, NaN, 0.0323506, "- N/A -   "
24.86, 907.9666, 0.0416124, NaN, NaN, NaN, 0.0299091, "- N/A -   "
24.88, 909.0312, 0.0416513, NaN, NaN, NaN, 0.0274675, "- N/A -   "
24.9, 909.977, 0.0416846, NaN, NaN, NaN, 0.0274675, "- N/A -   "
24.92, 910.8053, 0.0417179, NaN, NaN, NaN, 0.0274675, "- N/A -   "
24.94, 911.633, 0.0417512, NaN, NaN, NaN, 0.0274675, "- N/A -   "
24.96, 912.4613, 0.0417846, NaN, NaN, NaN, 0.0274675, "- N/A -   "
24.98, 913.289, 0.0418151, NaN, NaN, NaN, 0.0286883, "- N/A -   "
25, 914.117, 0.04184565, NaN, NaN, NaN, 0.0299091, "- N/A -   "
25.02, 914.8269, 0.0418762, NaN, NaN, NaN, 0.03112983, "- N/A -   "
25.04, 915.655, 0.04190396, NaN, NaN, NaN, 0.0335714, "- N/A -   "
25.06, 916.483, 0.0419345, NaN, NaN, NaN, 0.0347922, "- N/A -   "
25.08, 917.1925, 0.04196505, NaN, NaN, NaN, 0.03601294, "- N/A -   "
25.1, 918.139, 0.04199837, NaN, NaN, NaN, 0.03601294, "- N/A -   "
25.12, 918.848, 0.0420317, NaN, NaN, NaN, 0.03601294, "- N/A -   "
25.14, 919.795, 0.042065, NaN, NaN, NaN, 0.03601294, "- N/A -   "
25.16, 920.6227, 0.0420983, NaN, NaN, NaN, 0.03601294, "- N/A -   "
25.18, 921.569, 0.0421317, NaN, NaN, NaN, 0.03601294, "- N/A -   "
25.2, 922.3969, 0.042165, NaN, NaN, NaN, 0.03601294, "- N/A -   "
25.22, 923.225, 0.0421955, NaN, NaN, NaN, 0.0372337, "- N/A -   "
25.24, 923.9345, 0.0422233, NaN, NaN, NaN, 0.0396753, "- N/A -   "
25.26, 924.7625, 0.0422511, NaN, NaN, NaN, 0.04211683, "- N/A -   "
25.28, 925.3539, 0.0422816, NaN, NaN, NaN, 0.0433376, "- N/A -   "
25.3, 926.1818, 0.04231492, NaN, NaN, NaN, 0.0433376, "- N/A -   "
25.32, 927.1281, 0.0423482, NaN, NaN, NaN, 0.0433376, "- N/A -   "
25.34, 927.956, 0.0423788, NaN, NaN, NaN, 0.0445584, "- N/A -   "
25.36, 928.784, 0.0424093, NaN, NaN, NaN, 0.04577916, "- N/A -   "
25.38, 929.7303, 0.0424454, NaN, NaN, NaN, 0.0445584, "- N/A -   "
25.4, 930.7948, 0.0424815, NaN, NaN, NaN, 0.0433376, "- N/A -   "
25.42, 931.741, 0.04251762, NaN, NaN, NaN, 0.04211683, "- N/A -   "
25.44, 932.6873, 0.0425565, NaN, NaN, NaN, 0.0396753, "- N/A -   "
25.46, 933.8701, 0.04259815, NaN, NaN, NaN, 0.03601294, "- N/A -   "
25.48, 934.9347, 0.042637, NaN, NaN, NaN, 0.0335714, "- N/A -   "
25.5, 935.8809, 0.0426759, NaN, NaN, NaN, 0.03112983, "- N/A -   "
25.52, 936.8271, 0.04270922, NaN, NaN, NaN, 0.03112983, "- N/A -   "
25.54, 937.7734, 0.0427425, NaN, NaN, NaN, 0.03112983, "- N/A -   "
25.56, 938.4831, 0.0427731, NaN, NaN, NaN, 0.0323506, "- N/A -   "
25.58, 939.193, 0.0428036, NaN, NaN, NaN, 0.0335714, "- N/A -   "
25.6, 940.021, 0.0428342, NaN, NaN, NaN, 0.0347922, "- N/A -   "
25.62, 940.8487, 0.0428647, NaN, NaN, NaN, 0.03601294, "- N/A -   "
25.64, 941.677, 0.04289526, NaN, NaN, NaN, 0.0372337, "- N/A -   "
25.66, 942.6229, 0.04292858, NaN, NaN, NaN, 0.0372337, "- N/A -   "
25.68, 943.3326, 0.0429619, NaN, NaN, NaN, 0.0372337, "- N/A -   "
25.7, 944.2788, 0.042998, NaN, NaN, NaN, 0.03601294, "- N/A -   "
25.72, 945.2251, 0.0430341, NaN, NaN, NaN, 0.0347922, "- N/A -   "
25.74, 946.2896, 0.043073, NaN, NaN, NaN, 0.0323506, "- N/A -   "
25.76, 947.236, 0.0431063, NaN, NaN, NaN, 0.0323506, "- N/A -   "
25.78, 948.1821, 0.0431396, NaN, NaN, NaN, 0.0323506, "- N/A -   "
25.8, 949.0101, 0.0431757, NaN, NaN, NaN, 0.03112983, "- N/A -   "
25.82, 949.9563, 0.04320903, NaN, NaN, NaN, 0.0323506, "- N/A -   "
25.84, 950.7843, 0.04323958, NaN, NaN, NaN, 0.0323506, "- N/A -   "
25.86, 951.494, 0.0432673, NaN, NaN, NaN, 0.0347922, "- N/A -   "
25.88, 952.2036, 0.0432979, NaN, NaN, NaN, 0.03601294, "- N/A -   "
25.9, 952.913, 0.0433284, NaN, NaN, NaN, 0.0372337, "- N/A -   "
25.92, 953.741, 0.0433562, NaN, NaN, NaN, 0.0396753, "- N/A -   "
25.94, 954.451, 0.04338397, NaN, NaN, NaN, 0.04211683, "- N/A -   "
25.96, 955.279, 0.0434173, NaN, NaN, NaN, 0.04211683, "- N/A -   "
25.98, 956.4618, 0.0434562, NaN, NaN, NaN, 0.0396753, "- N/A -   "
26, 957.29, 0.04349226, NaN, NaN, NaN, 0.0384545, "- N/A -   "
26.02, 958.236, 0.0435256, NaN, NaN, NaN, 0.0384545, "- N/A -   "
26.04, 959.182, 0.0435589, NaN, NaN, NaN, 0.0384545, "- N/A -   "
26.06, 960.0102, 0.0435922, NaN, NaN, NaN, 0.0384545, "- N/A -   "
26.08, 960.9565, 0.0436283, NaN, NaN, NaN, 0.0372337, "- N/A -   "
26.1, 961.7844, 0.0436616, NaN, NaN, NaN, 0.0372337, "- N/A -   "
26.12, 962.731, 0.0436922, NaN, NaN, NaN, 0.0384545, "- N/A -   "
26.14, 963.677, 0.0437283, NaN, NaN, NaN, 0.0372337, "- N/A -   "
26.16, 964.5049, 0.0437616, NaN, NaN, NaN, 0.0384545, "- N/A -   "
26.18, 965.4511, 0.0437977, NaN, NaN, NaN, 0.0372337, "- N/A -   "
26.2, 966.2791, 0.043831, NaN, NaN, NaN, 0.0372337, "- N/A -   "
26.22, 967.225, 0.04386435, NaN, NaN, NaN, 0.0372337, "- N/A -   "
26.24, 968.0533, 0.04389767, NaN, NaN, NaN, 0.0372337, "- N/A -   "
26.26, 968.8813, 0.04393099, NaN, NaN, NaN, 0.0372337, "- N/A -   "
26.28, 969.8275, 0.0439671, NaN, NaN, NaN, 0.03601294, "- N/A -   "
26.3, 970.892, 0.0440032, NaN, NaN, NaN, 0.0347922, "- N/A -   "
26.32, 971.72, 0.0440393, NaN, NaN, NaN, 0.0335714, "- N/A -   "
26.34, 972.6662, 0.0440726, NaN, NaN, NaN, 0.0335714, "- N/A -   "
26.36, 973.4942, 0.0441059, NaN, NaN, NaN, 0.0347922, "- N/A -   "
26.38, 974.2039, 0.04413647, NaN, NaN, NaN, 0.0347922, "- N/A -   "
26.4, 975.15, 0.0441698, NaN, NaN, NaN, 0.0347922, "- N/A -   "
26.42, 976.0964, 0.04420311, NaN, NaN, NaN, 0.0347922, "- N/A -   "
26.44, 976.9244, 0.0442364, NaN, NaN, NaN, 0.0347922, "- N/A -   "
26.46, 977.8706, 0.04427253, NaN, NaN, NaN, 0.0335714, "- N/A -   "
26.48, 978.817, 0.0443059, NaN, NaN, NaN, 0.0335714, "- N/A -   "
26.5, 979.645, 0.0443392, NaN, NaN, NaN, 0.0335714, "- N/A -   "
26.52, 980.7093, 0.04437527, NaN, NaN, NaN, 0.0323506, "- N/A -   "
26.54, 981.5373, 0.04441137, NaN, NaN, NaN, 0.03112983, "- N/A -   "
26.56, 982.4836, 0.0444447, NaN, NaN, NaN, 0.03112983, "- N/A -   "
26.58, 983.3115, 0.04447801, NaN, NaN, NaN, 0.03112983, "- N/A -   "
26.6, 984.139, 0.0445058, NaN, NaN, NaN, 0.0335714, "- N/A -   "
26.62, 984.8492, 0.0445363, NaN, NaN, NaN, 0.0347922, "- N/A -   "
26.64, 985.6771, 0.0445669, NaN, NaN, NaN, 0.03601294, "- N/A -   "
26.66, 986.505, 0.04459741, NaN, NaN, NaN, 0.0372337, "- N/A -   "
26.68, 987.2148, 0.044628, NaN, NaN, NaN, 0.0384545, "- N/A -   "
26.7, 988.0427, 0.04465572, NaN, NaN, NaN, 0.04089605, "- N/A -   "
26.72, 988.752, 0.0446863, NaN, NaN, NaN, 0.04211683, "- N/A -   "
26.74, 989.462, 0.044714, NaN, NaN, NaN, 0.0445584, "- N/A -   "
26.76, 990.1718, 0.0447446, NaN, NaN, NaN, 0.04577916, "- N/A -   "
26.78, 991.118, 0.04477512, NaN, NaN, NaN, 0.04699994, "- N/A -   "
26.8, 991.946, 0.04480844, NaN, NaN, NaN, 0.04699994, "- N/A -   "
26.82, 992.8923, 0.0448445, NaN, NaN, NaN, 0.04577916, "- N/A -   "
26.84, 993.8385, 0.0448806, NaN, NaN, NaN, 0.0445584, "- N/A -   "
26.86, 994.9031, 0.0449195, NaN, NaN, NaN, 0.0433376, "- N/A -   "
26.88, 995.8493, 0.04495561, NaN, NaN, NaN, 0.04089605, "- N/A -   "
26.9, 996.914, 0.04499171, NaN, NaN, NaN, 0.0396753, "- N/A -   "
26.92, 997.7418, 0.0450278, NaN, NaN, NaN, 0.0384545, "- N/A -   "
26.94, 998.688, 0.0450611, NaN, NaN, NaN, 0.0384545, "- N/A -   "
26.96, 999.3977, 0.0450889, NaN, NaN, NaN, 0.04089605, "- N/A -   "
26.98, 1000.23, 0.04511944, NaN, NaN, NaN, 0.04211683, "- N/A -   "
27, 1001.17, 0.0451555, NaN, NaN, NaN, 0.04089605, "- N/A -   "
27.02, 1002.12, 0.0451916, NaN, NaN, NaN, 0.0396753, "- N/A -   "
27.04, 1003.3, 0.04523051, NaN, NaN, NaN, 0.0372337, "- N/A -   "
27.06, 1004.25, 0.04526661, NaN, NaN, NaN, 0.03601294, "- N/A -   "
27.08, 1005.31, 0.04530548, NaN, NaN, NaN, 0.0335714, "- N/A -   "
27.1, 1006.38, 0.0453444, NaN, NaN, NaN, 0.03112983, "- N/A -   "
27.12, 1007.32, 0.04538323, NaN, NaN, NaN, 0.0286883, "- N/A -   "
27.14, 1008.39, 0.0454193, NaN, NaN, NaN, 0.0274675, "- N/A -   "
27.16, 1009.1, 0.04545265, NaN, NaN, NaN, 0.0274675, "- N/A -   "
27.18, 1010.04, 0.04548042, NaN, NaN, NaN, 0.0299091, "- N/A -   "
27.2, 1010.75, 0.0455137, NaN, NaN, NaN, 0.0299091, "- N/A -   "
27.22, 1011.46, 0.0455415, NaN, NaN, NaN, 0.0323506, "- N/A -   "
27.24, 1012.41, 0.0455748, NaN, NaN, NaN, 0.0323506, "- N/A -   "
27.26, 1013.12, 0.0456054, NaN, NaN, NaN, 0.0335714, "- N/A -   "
27.28, 1013.954, 0.0456331, NaN, NaN, NaN, 0.03601294, "- N/A -   "
27.3, 1014.55, 0.0456609, NaN, NaN, NaN, 0.0384545, "- N/A -   "
27.32, 1015.385, 0.0456887, NaN, NaN, NaN, 0.04089605, "- N/A -   "
27.34, 1015.98, 0.0457192, NaN, NaN, NaN, 0.04211683, "- N/A -   "
27.36, 1016.94, 0.045747, NaN, NaN, NaN, 0.0445584, "- N/A -   "
27.38, 1017.89, 0.04578031, NaN, NaN, NaN, 0.0445584, "- N/A -   "
27.4, 1018.6, 0.0458109, NaN, NaN, NaN, 0.04577916, "- N/A -   "
27.42, 1019.32, 0.0458414, NaN, NaN, NaN, 0.04699994, "- N/A -   "
27.44, 1020.39, 0.04587749, NaN, NaN, NaN, 0.04699994, "- N/A -   "
27.46, 1021.47, 0.04591359, NaN, NaN, NaN, 0.0445584, "- N/A -   "
27.48, 1022.42, 0.0459525, NaN, NaN, NaN, 0.04211683, "- N/A -   "
27.5, 1023.49, 0.04599134, NaN, NaN, NaN, 0.0396753, "- N/A -   "
27.52, 1024.45, 0.0460274, NaN, NaN, NaN, 0.0384545, "- N/A -   "
27.54, 1025.52, 0.0460635, NaN, NaN, NaN, 0.0372337, "- N/A -   "
27.56, 1026.48, 0.0460996, NaN, NaN, NaN, 0.03601294, "- N/A -   "
27.58, 1027.43, 0.04613573, NaN, NaN, NaN, 0.0347922, "- N/A -   "
27.6, 1028.38, 0.04617183, NaN, NaN, NaN, 0.0335714, "- N/A -   "
27.62, 1029.34, 0.0462079, NaN, NaN, NaN, 0.0323506, "- N/A -   "
27.64, 1030.29, 0.04624125, NaN, NaN, NaN, 0.0323506, "- N/A -   "
27.66, 1031.13, 0.0462773, NaN, NaN, NaN, 0.03112983, "- N/A -   "
27.68, 1032.2, 0.0463134, NaN, NaN, NaN, 0.0299091, "- N/A -   "
27.7, 1033.27, 0.04634954, NaN, NaN, NaN, 0.0286883, "- N/A -   "
27.72, 1034.23, 0.04638564, NaN, NaN, NaN, 0.0274675, "- N/A -   "
27.74, 1035.06, 0.04641896, NaN, NaN, NaN, 0.0274675, "- N/A -   "
27.76, 1035.9, 0.0464495, NaN, NaN, NaN, 0.0286883, "- N/A -   "
27.78, 1036.73, 0.0464828, NaN, NaN, NaN, 0.0286883, "- N/A -   "
27.8, 1037.69, 0.0465161, NaN, NaN, NaN, 0.0286883, "- N/A -   "
27.82, 1038.52, 0.0465495, NaN, NaN, NaN, 0.0286883, "- N/A -   "
27.84, 1039.24, 0.0465772, NaN, NaN, NaN, 0.03112983, "- N/A -   "
27.86, 1039.95, 0.0466078, NaN, NaN, NaN, 0.0323506, "- N/A -   "
27.88, 1040.67, 0.04663555, NaN, NaN, NaN, 0.0347922, "- N/A -   "
27.9, 1041.382, 0.0466633, NaN, NaN, NaN, 0.0372337, "- N/A -   "
27.92, 1042.22, 0.0466911, NaN, NaN, NaN, 0.0396753, "- N/A -   "
27.94, 1042.93, 0.0467244, NaN, NaN, NaN, 0.0396753, "- N/A -   "
27.96, 1043.767, 0.04675217, NaN, NaN, NaN, 0.04211683, "- N/A -   "
27.98, 1044.48, 0.0467827, NaN, NaN, NaN, 0.0433376, "- N/A -   "
28, 1045.32, 0.04681326, NaN, NaN, NaN, 0.0445584, "- N/A -   "
28.02, 1046.27, 0.04684658, NaN, NaN, NaN, 0.04577916, "- N/A -   "
28.04, 1047.23, 0.0468771, NaN, NaN, NaN, 0.04577916, "- N/A -   "
28.06, 1048.06, 0.0469104, NaN, NaN, NaN, 0.04577916, "- N/A -   "
28.08, 1048.89, 0.0469438, NaN, NaN, NaN, 0.04577916, "- N/A -   "
28.1, 1049.85, 0.0469771, NaN, NaN, NaN, 0.04577916, "- N/A -   "
28.12, 1050.68, 0.04701041, NaN, NaN, NaN, 0.04577916, "- N/A -   "
28.14, 1051.76, 0.04704651, NaN, NaN, NaN, 0.0445584, "- N/A -   "
28.16, 1052.71, 0.0470826, NaN, NaN, NaN, 0.0433376, "- N/A -   "
28.18, 1053.78, 0.0471187, NaN, NaN, NaN, 0.04211683, "- N/A -   "
28.2, 1054.74, 0.0471576, NaN, NaN, NaN, 0.0396753, "- N/A -   "
28.22, 1055.69, 0.0471964, NaN, NaN, NaN, 0.0372337, "- N/A -   "
28.24, 1056.77, 0.0472353, NaN, NaN, NaN, 0.0347922, "- N/A -   "
28.26, 1057.958, 0.047277, NaN, NaN, NaN, 0.03112983, "- N/A -   "
28.28, 1059.03, 0.0473186, NaN, NaN, NaN, 0.0286883, "- N/A -   "
28.3, 1059.99, 0.04734917, NaN, NaN, NaN, 0.0286883, "- N/A -   "
28.32, 1060.7, 0.0473797, NaN, NaN, NaN, 0.0299091, "- N/A -   "
28.34, 1061.42, 0.04740748, NaN, NaN, NaN, 0.0323506, "- N/A -   "
28.36, 1062.13, 0.047438, NaN, NaN, NaN, 0.0335714, "- N/A -   "
28.38, 1063.09, 0.0474741, NaN, NaN, NaN, 0.0323506, "- N/A -   "
28.4, 1064.04, 0.0475074, NaN, NaN, NaN, 0.0323506, "- N/A -   "
28.42, 1064.99, 0.04754077, NaN, NaN, NaN, 0.0323506, "- N/A -   "
28.44, 1065.83, 0.0475741, NaN, NaN, NaN, 0.0323506, "- N/A -   "
28.46, 1066.78, 0.04760463, NaN, NaN, NaN, 0.0335714, "- N/A -   "
28.48, 1067.62, 0.0476352, NaN, NaN, NaN, 0.0347922, "- N/A -   "
28.5, 1068.33, 0.0476657, NaN, NaN, NaN, 0.03601294, "- N/A -   "
28.52, 1069.17, 0.04769904, NaN, NaN, NaN, 0.03601294, "- N/A -   "
28.54, 1070, 0.04772681, NaN, NaN, NaN, 0.0384545, "- N/A -   "
28.56, 1070.718, 0.0477574, NaN, NaN, NaN, 0.0396753, "- N/A -   "
28.58, 1071.672, 0.0477907, NaN, NaN, NaN, 0.0396753, "- N/A -   "
28.6, 1072.39, 0.04782122, NaN, NaN, NaN, 0.04089605, "- N/A -   "
28.62, 1073.34, 0.04785454, NaN, NaN, NaN, 0.04089605, "- N/A -   "
28.64, 1074.18, 0.04788786, NaN, NaN, NaN, 0.04089605, "- N/A -   "
28.66, 1075.011, 0.0479184, NaN, NaN, NaN, 0.04211683, "- N/A -   "
28.68, 1075.97, 0.04794895, NaN, NaN, NaN, 0.0433376, "- N/A -   "
28.7, 1076.8, 0.04798227, NaN, NaN, NaN, 0.0433376, "- N/A -   "
28.72, 1077.75, 0.04801559, NaN, NaN, NaN, 0.0433376, "- N/A -   "
28.74, 1078.47, 0.0480461, NaN, NaN, NaN, 0.0445584, "- N/A -   "
28.76, 1079.42, 0.0480822, NaN, NaN, NaN, 0.0433376, "- N/A -   "
28.78, 1080.38, 0.04811833, NaN, NaN, NaN, 0.0433376, "- N/A -   "
28.8, 1081.33, 0.04815165, NaN, NaN, NaN, 0.04211683, "- N/A -   "
28.82, 1082.4, 0.0481933, NaN, NaN, NaN, 0.0384545, "- N/A -   "
28.84, 1083.6, 0.04823218, NaN, NaN, NaN, 0.03601294, "- N/A -   "
28.86, 1084.67, 0.0482738, NaN, NaN, NaN, 0.0323506, "- N/A -   "
28.88, 1085.62, 0.0483099, NaN, NaN, NaN, 0.03112983, "- N/A -   "
28.9, 1086.7, 0.048346, NaN, NaN, NaN, 0.0299091, "- N/A -   "
28.92, 1087.53, 0.0483793, NaN, NaN, NaN, 0.0299091, "- N/A -   "
28.94, 1088.37, 0.04841267, NaN, NaN, NaN, 0.0299091, "- N/A -   "
28.96, 1089.32, 0.0484488, NaN, NaN, NaN, 0.0286883, "- N/A -   "
28.98, 1090.04, 0.04847931, NaN, NaN, NaN, 0.0299091, "- N/A -   "
29, 1090.87, 0.04850985, NaN, NaN, NaN, 0.03112983, "- N/A -   "
29.02, 1091.71, 0.0485404, NaN, NaN, NaN, 0.0323506, "- N/A -   "
29.04, 1092.42, 0.0485682, NaN, NaN, NaN, 0.0347922, "- N/A -   "
29.06, 1093.38, 0.04859871, NaN, NaN, NaN, 0.03601294, "- N/A -   "
29.08, 1094.21, 0.04863203, NaN, NaN, NaN, 0.03601294, "- N/A -   "
29.1, 1095.16, 0.0486681, NaN, NaN, NaN, 0.0347922, "- N/A -   "
29.12, 1096.12, 0.0487014, NaN, NaN, NaN, 0.0347922, "- N/A -   "
29.14, 1097.19, 0.0487403, NaN, NaN, NaN, 0.0323506, "- N/A -   "
29.16, 1097.91, 0.0487736, NaN, NaN, NaN, 0.0335714, "- N/A -   "
29.18, 1098.98, 0.048807, NaN, NaN, NaN, 0.0323506, "- N/A -   "
29.2, 1099.93, 0.0488403, NaN, NaN, NaN, 0.0323506, "- N/A -   "
29.22, 1100.65, 0.04887083, NaN, NaN, NaN, 0.0335714, "- N/A -   "
29.24, 1101.485, 0.0489014, NaN, NaN, NaN, 0.0347922, "- N/A -   "
29.251, 1101.96, 0.0489208, NaN, NaN, NaN, 0.0347922, "- N/A -   "