File: 2_Tensile_Data/Hamel_ForceTest_Bolt5_Test6.csv
Time, Load (lb), Position (in), AxialStrain (in), TransverseStrain (in), Auxiliary (), Control Out (V), Stress (psi)
0.0, 8.138375, 0.0, NaN, NaN, NaN, -0.007935055, "- N/A -   "
0.01, 8.020428, -2.776752E-6, NaN, NaN, NaN, 6.103888E-4, "- N/A -   "
0.02, 8.138375, 0.0, NaN, NaN, NaN, 0.006714277, "- N/A -   "
0.03, 8.138375, 0.0, NaN, NaN, NaN, 0.0177013, "- N/A -   "
0.04, 8.138375, 2.776752E-6, NaN, NaN, NaN, 0.03601294, "- N/A -   "
0.05, 8.138375, 8.330256E-6, NaN, NaN, NaN, 0.05188305, "- N/A -   "
0.06, 8.37427, 2.2214e-05, NaN, NaN, NaN, 0.06653238, "- N/A -   "
0.07, 8.728113, 4.16513e-05, NaN, NaN, NaN, 0.07751938, "- N/A -   "
0.08, 9.081955, 6.386529E-5, NaN, NaN, NaN, 0.08850638, "- N/A -   "
0.09, 9.435798, 8.885606E-5, NaN, NaN, NaN, 0.09705182, "- N/A -   "
0.1, 9.78964, 0.000113847, NaN, NaN, NaN, 0.104376, "- N/A -   "
0.11, 10.3794, 0.000141614, NaN, NaN, NaN, 0.105597, "- N/A -   "
0.12, 10.8512, 0.000172159, NaN, NaN, NaN, 0.100714, "- N/A -   "
0.13, 11.323, 0.000202703, NaN, NaN, NaN, 0.09461027, "- N/A -   "
0.14, 11.7947, 2.304704E-4, NaN, NaN, NaN, 0.0897272, "- N/A -   "
0.15, 12.14859, 2.582379E-4, NaN, NaN, NaN, 0.08362327, "- N/A -   "
0.16, 12.6204, 2.832287E-4, NaN, NaN, NaN, 0.08118171, "- N/A -   "
0.17, 13.09217, 0.000308219, NaN, NaN, NaN, 0.07751938, "- N/A -   "
0.18, 13.446, 0.000330433, NaN, NaN, NaN, 0.0750778, "- N/A -   "
0.19, 13.6819, 0.000349871, NaN, NaN, NaN, 0.07263627, "- N/A -   "
0.2, 14.1537, 0.000372085, NaN, NaN, NaN, 0.0701947, "- N/A -   "
0.21, 14.3896, 0.000394299, NaN, NaN, NaN, 0.06775316, "- N/A -   "
0.22, 14.8614, 4.13736E-4, NaN, NaN, NaN, 0.06653238, "- N/A -   "
0.23, 15.0973, 0.00043595, NaN, NaN, NaN, 0.0640908, "- N/A -   "
0.24, 15.4511, 0.000458164, NaN, NaN, NaN, 0.06287005, "- N/A -   "
0.25, 15.805, 4.776013E-4, NaN, NaN, NaN, 0.0604285, "- N/A -   "
0.26, 16.1588, 0.000499815, NaN, NaN, NaN, 0.0579869, "- N/A -   "
0.27, 16.5126, 5.192526E-4, NaN, NaN, NaN, 0.05676616, "- N/A -   "
0.28, 16.86649, 5.442434E-4, NaN, NaN, NaN, 0.0531038, "- N/A -   "
0.29, 17.3383, 5.664574E-4, NaN, NaN, NaN, 0.05066227, "- N/A -   "
0.3, 17.6921, 0.000591448, NaN, NaN, NaN, 0.0482207, "- N/A -   "
0.31, 18.046, 6.108854E-4, NaN, NaN, NaN, 0.04577916, "- N/A -   "
0.32, 18.3998, 6.330994E-4, NaN, NaN, NaN, 0.0433376, "- N/A -   "
0.33, 18.6357, 0.000655313, NaN, NaN, NaN, 0.04211683, "- N/A -   "
0.34, 18.9895, 6.719739E-4, NaN, NaN, NaN, 0.04089605, "- N/A -   "
0.35, 19.3434, 6.914112E-4, NaN, NaN, NaN, 0.04089605, "- N/A -   "
0.36, 19.57928, 0.000705295, NaN, NaN, NaN, 0.04089605, "- N/A -   "
0.37, 19.8152, 0.000724732, NaN, NaN, NaN, 0.04089605, "- N/A -   "
0.38, 20.169, 7.413927E-4, NaN, NaN, NaN, 0.0396753, "- N/A -   "
0.39, 20.4049, 7.6083E-4, NaN, NaN, NaN, 0.0396753, "- N/A -   "
0.4, 20.7588, 7.774905E-4, NaN, NaN, NaN, 0.0384545, "- N/A -   "
0.41, 21.1126, 7.969278E-4, NaN, NaN, NaN, 0.0384545, "- N/A -   "
0.42, 21.3485, 0.000813588, NaN, NaN, NaN, 0.0372337, "- N/A -   "
0.43, 21.5844, 0.000833026, NaN, NaN, NaN, 0.0372337, "- N/A -   "
0.44, 21.93823, 0.000849686, NaN, NaN, NaN, 0.03601294, "- N/A -   "
0.45, 22.1741, 8.691233E-4, NaN, NaN, NaN, 0.03601294, "- N/A -   "
0.46, 22.528, 8.857838E-4, NaN, NaN, NaN, 0.0347922, "- N/A -   "
0.47, 22.6459, 0.000902444, NaN, NaN, NaN, 0.0347922, "- N/A -   "
0.48, 23.1177, 0.000919105, NaN, NaN, NaN, 0.0347922, "- N/A -   "
0.49, 23.4715, 9.385421E-4, NaN, NaN, NaN, 0.0335714, "- N/A -   "
0.5, 23.7074, 0.000960756, NaN, NaN, NaN, 0.0323506, "- N/A -   "
0.51, 24.0613, 9.801934E-4, NaN, NaN, NaN, 0.03112983, "- N/A -   "
0.52, 24.4151, 9.968539E-4, NaN, NaN, NaN, 0.0299091, "- N/A -   "
0.53, 24.65102, 0.00101629, NaN, NaN, NaN, 0.0299091, "- N/A -   "
0.54, 25.0049, 0.00103295, NaN, NaN, NaN, 0.0299091, "- N/A -   "
0.55, 25.2408, 0.00104961, NaN, NaN, NaN, 0.0286883, "- N/A -   "
0.56, 25.4767, 0.00106627, NaN, NaN, NaN, 0.0299091, "- N/A -   "
0.57, 25.7125, 0.00108016, NaN, NaN, NaN, 0.0299091, "- N/A -   "
0.58, 25.9484, 0.001096817, NaN, NaN, NaN, 0.0299091, "- N/A -   "
0.59, 26.3023, 0.0011107, NaN, NaN, NaN, 0.03112983, "- N/A -   "
0.6, 26.5382, 0.00112736, NaN, NaN, NaN, 0.03112983, "- N/A -   "
0.61, 26.6561, 0.001141245, NaN, NaN, NaN, 0.0323506, "- N/A -   "
0.62, 26.892, 0.00115791, NaN, NaN, NaN, 0.0323506, "- N/A -   "
0.63, 27.2459, 0.00117179, NaN, NaN, NaN, 0.0347922, "- N/A -   "
0.64, 27.4818, 0.0011829, NaN, NaN, NaN, 0.03601294, "- N/A -   "
0.65, 27.5997, 0.00119956, NaN, NaN, NaN, 0.0372337, "- N/A -   "
0.66, 27.8356, 0.00121344, NaN, NaN, NaN, 0.0384545, "- N/A -   "
0.67, 28.0715, 0.00122732, NaN, NaN, NaN, 0.0384545, "- N/A -   "
0.68, 28.42534, 0.001241208, NaN, NaN, NaN, 0.0396753, "- N/A -   "
0.69, 28.54329, 0.00125509, NaN, NaN, NaN, 0.04089605, "- N/A -   "
0.7, 28.89713, 0.00127175, NaN, NaN, NaN, 0.04211683, "- N/A -   "
0.71, 29.0151, 0.00128286, NaN, NaN, NaN, 0.0433376, "- N/A -   "
0.72, 29.251, 0.001296743, NaN, NaN, NaN, 0.0445584, "- N/A -   "
0.73, 29.6048, 0.00131063, NaN, NaN, NaN, 0.04577916, "- N/A -   "
0.74, 29.84071, 0.00132729, NaN, NaN, NaN, 0.04699994, "- N/A -   "
0.75, 29.9587, 0.00134117, NaN, NaN, NaN, 0.04699994, "- N/A -   "
0.76, 30.3125, 0.00135505, NaN, NaN, NaN, 0.0482207, "- N/A -   "
0.77, 30.5484, 0.00137172, NaN, NaN, NaN, 0.0482207, "- N/A -   "
0.78, 31.0202, 0.00138838, NaN, NaN, NaN, 0.0482207, "- N/A -   "
0.79, 31.1381, 0.00140781, NaN, NaN, NaN, 0.0482207, "- N/A -   "
0.8, 31.6099, 0.00142725, NaN, NaN, NaN, 0.04699994, "- N/A -   "
0.81, 31.8458, 0.001443911, NaN, NaN, NaN, 0.04577916, "- N/A -   "
0.82, 32.1997, 0.00146057, NaN, NaN, NaN, 0.04577916, "- N/A -   "
0.83, 32.5535, 0.001477232, NaN, NaN, NaN, 0.04577916, "- N/A -   "
0.84, 32.9073, 0.001499446, NaN, NaN, NaN, 0.0445584, "- N/A -   "
0.85, 33.02529, 0.00151611, NaN, NaN, NaN, 0.0433376, "- N/A -   "
0.86, 33.3791, 0.00153554, NaN, NaN, NaN, 0.04211683, "- N/A -   "
0.87, 33.8509, 0.001554981, NaN, NaN, NaN, 0.04089605, "- N/A -   "
0.88, 34.2048, 0.00157442, NaN, NaN, NaN, 0.0396753, "- N/A -   "
0.89, 34.55861, 0.00159108, NaN, NaN, NaN, 0.0396753, "- N/A -   "
0.9, 34.6766, 0.00160774, NaN, NaN, NaN, 0.0396753, "- N/A -   "
0.91, 35.0304, 0.00162718, NaN, NaN, NaN, 0.0384545, "- N/A -   "
0.92, 35.3842, 0.00164384, NaN, NaN, NaN, 0.0384545, "- N/A -   "
0.93, 35.6201, 0.0016605, NaN, NaN, NaN, 0.0384545, "- N/A -   "
0.94, 35.97398, 0.001677158, NaN, NaN, NaN, 0.0384545, "- N/A -   "
0.95, 36.2099, 0.00169382, NaN, NaN, NaN, 0.0384545, "- N/A -   "
0.96, 36.5637, 0.00171603, NaN, NaN, NaN, 0.0372337, "- N/A -   "
0.97, 36.9176, 0.00173269, NaN, NaN, NaN, 0.03601294, "- N/A -   "
0.98, 37.15345, 0.00175213, NaN, NaN, NaN, 0.0347922, "- N/A -   "
0.99, 37.5073, 0.00176879, NaN, NaN, NaN, 0.0347922, "- N/A -   "
1, 37.8611, 0.00178545, NaN, NaN, NaN, 0.0347922, "- N/A -   "
1.01, 38.215, 0.00180489, NaN, NaN, NaN, 0.0347922, "- N/A -   "
1.02, 38.4509, 0.00182155, NaN, NaN, NaN, 0.0335714, "- N/A -   "
1.03, 38.8047, 0.00183821, NaN, NaN, NaN, 0.0335714, "- N/A -   "
1.04, 39.04061, 0.001857647, NaN, NaN, NaN, 0.0323506, "- N/A -   "
1.05, 39.5124, 0.00187431, NaN, NaN, NaN, 0.0323506, "- N/A -   "
1.06, 39.7483, 0.00189374, NaN, NaN, NaN, 0.0323506, "- N/A -   "
1.07, 39.98419, 0.001913182, NaN, NaN, NaN, 0.03112983, "- N/A -   "
1.08, 40.456, 0.00193262, NaN, NaN, NaN, 0.0299091, "- N/A -   "
1.09, 40.69188, 0.00194928, NaN, NaN, NaN, 0.0286883, "- N/A -   "
1.1, 40.9278, 0.00196594, NaN, NaN, NaN, 0.0286883, "- N/A -   "
1.11, 41.2816, 0.001982601, NaN, NaN, NaN, 0.0286883, "- N/A -   "
1.12, 41.6355, 0.002002038, NaN, NaN, NaN, 0.0286883, "- N/A -   "
1.13, 41.8714, 0.0020187, NaN, NaN, NaN, 0.0286883, "- N/A -   "
1.14, 42.2252, 0.00203536, NaN, NaN, NaN, 0.0286883, "- N/A -   "
1.15, 42.4611, 0.00205202, NaN, NaN, NaN, 0.0274675, "- N/A -   "
1.16, 42.8149, 0.00206868, NaN, NaN, NaN, 0.0274675, "- N/A -   "
1.17, 43.0508, 0.00208534, NaN, NaN, NaN, 0.0274675, "- N/A -   "
1.18, 43.2867, 0.00209922, NaN, NaN, NaN, 0.0286883, "- N/A -   "
1.19, 43.6406, 0.00211588, NaN, NaN, NaN, 0.0286883, "- N/A -   "
1.2, 43.87646, 0.00213255, NaN, NaN, NaN, 0.0286883, "- N/A -   "
1.21, 44.2303, 0.002149206, NaN, NaN, NaN, 0.0299091, "- N/A -   "
1.22, 44.4662, 0.00216309, NaN, NaN, NaN, 0.0299091, "- N/A -   "
1.23, 44.70209, 0.00217697, NaN, NaN, NaN, 0.03112983, "- N/A -   "
1.24, 44.93799, 0.00219086, NaN, NaN, NaN, 0.0323506, "- N/A -   "
1.25, 45.17388, 0.00220752, NaN, NaN, NaN, 0.0323506, "- N/A -   "
1.26, 45.5277, 0.0022214, NaN, NaN, NaN, 0.0335714, "- N/A -   "
1.27, 45.6457, 0.002238062, NaN, NaN, NaN, 0.0347922, "- N/A -   "
1.28, 45.9995, 0.00225195, NaN, NaN, NaN, 0.0347922, "- N/A -   "
1.29, 46.23541, 0.00226583, NaN, NaN, NaN, 0.03601294, "- N/A -   "
1.3, 46.4713, 0.00227971, NaN, NaN, NaN, 0.0372337, "- N/A -   "
1.31, 46.7072, 0.002293597, NaN, NaN, NaN, 0.0384545, "- N/A -   "
1.32, 46.8251, 0.00230748, NaN, NaN, NaN, 0.0396753, "- N/A -   "
1.33, 47.179, 0.00232136, NaN, NaN, NaN, 0.04089605, "- N/A -   "
1.34, 47.5328, 0.002338025, NaN, NaN, NaN, 0.04089605, "- N/A -   "
1.35, 47.7687, 0.00235191, NaN, NaN, NaN, 0.04211683, "- N/A -   "
1.36, 48.00462, 0.00236579, NaN, NaN, NaN, 0.0433376, "- N/A -   "
1.37, 48.3585, 0.002382453, NaN, NaN, NaN, 0.0445584, "- N/A -   "
1.38, 48.47641, 0.00239634, NaN, NaN, NaN, 0.0445584, "- N/A -   "
1.39, 48.83025, 0.002413, NaN, NaN, NaN, 0.0445584, "- N/A -   "
1.4, 49.0661, 0.002429658, NaN, NaN, NaN, 0.04577916, "- N/A -   "
1.41, 49.41999, 0.00244632, NaN, NaN, NaN, 0.04577916, "- N/A -   "
1.42, 49.5379, 0.0024602, NaN, NaN, NaN, 0.04577916, "- N/A -   "
1.43, 49.8918, 0.00247686, NaN, NaN, NaN, 0.04577916, "- N/A -   "
1.44, 50.1277, 0.002493523, NaN, NaN, NaN, 0.04699994, "- N/A -   "
1.45, 50.4815, 0.00251018, NaN, NaN, NaN, 0.04577916, "- N/A -   "
1.46, 50.7174, 0.00252684, NaN, NaN, NaN, 0.04577916, "- N/A -   "
1.47, 51.1892, 0.0025435, NaN, NaN, NaN, 0.04577916, "- N/A -   "
1.48, 51.4251, 0.00256017, NaN, NaN, NaN, 0.04577916, "- N/A -   "
1.49, 51.7789, 0.0025796, NaN, NaN, NaN, 0.04577916, "- N/A -   "
1.5, 52.01483, 0.002596263, NaN, NaN, NaN, 0.0445584, "- N/A -   "
1.51, 52.36868, 0.00261292, NaN, NaN, NaN, 0.0445584, "- N/A -   "
1.52, 52.6046, 0.00262958, NaN, NaN, NaN, 0.0445584, "- N/A -   "
1.53, 52.9584, 0.00264902, NaN, NaN, NaN, 0.0433376, "- N/A -   "
1.54, 53.3123, 0.00266568, NaN, NaN, NaN, 0.0433376, "- N/A -   "
1.55, 53.54815, 0.00268512, NaN, NaN, NaN, 0.04211683, "- N/A -   "
1.56, 53.784, 0.00270178, NaN, NaN, NaN, 0.04211683, "- N/A -   "
1.57, 54.13789, 0.00271844, NaN, NaN, NaN, 0.04211683, "- N/A -   "
1.58, 54.4917, 0.0027351, NaN, NaN, NaN, 0.04211683, "- N/A -   "
1.59, 54.8456, 0.00275454, NaN, NaN, NaN, 0.04089605, "- N/A -   "
1.6, 55.1994, 0.00277398, NaN, NaN, NaN, 0.0396753, "- N/A -   "
1.61, 55.55326, 0.00279341, NaN, NaN, NaN, 0.0384545, "- N/A -   "
1.62, 55.9071, 0.00281285, NaN, NaN, NaN, 0.0372337, "- N/A -   "
1.63, 56.2609, 0.00283229, NaN, NaN, NaN, 0.03601294, "- N/A -   "
1.64, 56.6148, 0.002854501, NaN, NaN, NaN, 0.0347922, "- N/A -   "
1.65, 56.85068, 0.00287394, NaN, NaN, NaN, 0.0323506, "- N/A -   "
1.66, 57.32247, 0.0028906, NaN, NaN, NaN, 0.0323506, "- N/A -   "
1.67, 57.5584, 0.00290726, NaN, NaN, NaN, 0.0323506, "- N/A -   "
1.68, 57.91221, 0.0029267, NaN, NaN, NaN, 0.0323506, "- N/A -   "
1.69, 58.1481, 0.002943357, NaN, NaN, NaN, 0.03112983, "- N/A -   "
1.7, 58.5019, 0.00296279, NaN, NaN, NaN, 0.03112983, "- N/A -   "
1.71, 58.8558, 0.00297945, NaN, NaN, NaN, 0.0299091, "- N/A -   "
1.72, 59.0917, 0.00299612, NaN, NaN, NaN, 0.0299091, "- N/A -   "
1.73, 59.3276, 0.003012776, NaN, NaN, NaN, 0.0299091, "- N/A -   "
1.74, 59.68142, 0.00302944, NaN, NaN, NaN, 0.0299091, "- N/A -   "
1.75, 59.9173, 0.0030461, NaN, NaN, NaN, 0.0299091, "- N/A -   "
1.76, 60.15321, 0.00306276, NaN, NaN, NaN, 0.0299091, "- N/A -   "
1.77, 60.5071, 0.00307942, NaN, NaN, NaN, 0.0299091, "- N/A -   "
1.78, 60.7429, 0.00309608, NaN, NaN, NaN, 0.03112983, "- N/A -   "
1.79, 60.97884, 0.003112739, NaN, NaN, NaN, 0.0299091, "- N/A -   "
1.8, 61.3327, 0.0031294, NaN, NaN, NaN, 0.0299091, "- N/A -   "
1.81, 61.56858, 0.00314606, NaN, NaN, NaN, 0.0299091, "- N/A -   "
1.82, 61.8045, 0.00315994, NaN, NaN, NaN, 0.03112983, "- N/A -   "
1.83, 62.1583, 0.0031766, NaN, NaN, NaN, 0.03112983, "- N/A -   "
1.84, 62.3942, 0.003190488, NaN, NaN, NaN, 0.0323506, "- N/A -   "
1.85, 62.7481, 0.00320715, NaN, NaN, NaN, 0.0323506, "- N/A -   "
1.86, 62.98395, 0.003223809, NaN, NaN, NaN, 0.0323506, "- N/A -   "
1.87, 63.33779, 0.00323769, NaN, NaN, NaN, 0.0335714, "- N/A -   "
1.88, 63.5737, 0.003254353, NaN, NaN, NaN, 0.0335714, "- N/A -   "
1.89, 63.6916, 0.00327101, NaN, NaN, NaN, 0.0347922, "- N/A -   "
1.9, 63.92753, 0.0032849, NaN, NaN, NaN, 0.0347922, "- N/A -   "
1.91, 64.28137, 0.003301558, NaN, NaN, NaN, 0.03601294, "- N/A -   "
1.92, 64.5173, 0.00331544, NaN, NaN, NaN, 0.03601294, "- N/A -   "
1.93, 64.87111, 0.0033321, NaN, NaN, NaN, 0.03601294, "- N/A -   "
1.94, 65.107, 0.00334876, NaN, NaN, NaN, 0.03601294, "- N/A -   "
1.95, 65.4608, 0.00336542, NaN, NaN, NaN, 0.03601294, "- N/A -   "
1.96, 65.5788, 0.00338208, NaN, NaN, NaN, 0.03601294, "- N/A -   "
1.97, 65.93263, 0.00339874, NaN, NaN, NaN, 0.03601294, "- N/A -   "
1.98, 66.2865, 0.0034154, NaN, NaN, NaN, 0.03601294, "- N/A -   "
1.99, 66.52237, 0.00343207, NaN, NaN, NaN, 0.0372337, "- N/A -   "
2, 66.75827, 0.00344595, NaN, NaN, NaN, 0.0372337, "- N/A -   "
2.01, 67.1121, 0.00346261, NaN, NaN, NaN, 0.0372337, "- N/A -   "
2.02, 67.34801, 0.00347649, NaN, NaN, NaN, 0.0384545, "- N/A -   "
2.03, 67.5839, 0.00349315, NaN, NaN, NaN, 0.0396753, "- N/A -   "
2.04, 67.9377, 0.00350704, NaN, NaN, NaN, 0.0396753, "- N/A -   "
2.05, 68.17364, 0.003523698, NaN, NaN, NaN, 0.0396753, "- N/A -   "
2.06, 68.40953, 0.00354036, NaN, NaN, NaN, 0.04089605, "- N/A -   "
2.07, 68.6454, 0.00355424, NaN, NaN, NaN, 0.04089605, "- N/A -   "
2.08, 68.8813, 0.00356813, NaN, NaN, NaN, 0.04211683, "- N/A -   "
2.09, 69.11722, 0.00358479, NaN, NaN, NaN, 0.04211683, "- N/A -   "
2.1, 69.35311, 0.00359867, NaN, NaN, NaN, 0.0433376, "- N/A -   "
2.11, 69.589, 0.003615331, NaN, NaN, NaN, 0.0433376, "- N/A -   "
2.12, 69.8249, 0.00362921, NaN, NaN, NaN, 0.0445584, "- N/A -   "
2.13, 70.0608, 0.0036431, NaN, NaN, NaN, 0.04577916, "- N/A -   "
2.14, 70.41464, 0.00366254, NaN, NaN, NaN, 0.04577916, "- N/A -   "
2.15, 70.7685, 0.00367642, NaN, NaN, NaN, 0.04577916, "- N/A -   "
2.16, 71.00438, 0.00369308, NaN, NaN, NaN, 0.04577916, "- N/A -   "
2.17, 71.24027, 0.00371252, NaN, NaN, NaN, 0.04577916, "- N/A -   "
2.18, 71.59412, 0.00372918, NaN, NaN, NaN, 0.04577916, "- N/A -   "
2.19, 71.94796, 0.003748615, NaN, NaN, NaN, 0.0445584, "- N/A -   "
2.2, 72.3018, 0.00376528, NaN, NaN, NaN, 0.0433376, "- N/A -   "
2.21, 72.65564, 0.00378749, NaN, NaN, NaN, 0.04089605, "- N/A -   "
2.22, 73.00948, 0.00380693, NaN, NaN, NaN, 0.0396753, "- N/A -   "
2.23, 73.36333, 0.003826364, NaN, NaN, NaN, 0.0384545, "- N/A -   "
2.24, 73.83511, 0.003848578, NaN, NaN, NaN, 0.03601294, "- N/A -   "
2.25, 74.071, 0.00386802, NaN, NaN, NaN, 0.03601294, "- N/A -   "
2.26, 74.42485, 0.00388745, NaN, NaN, NaN, 0.0335714, "- N/A -   "
2.27, 74.7787, 0.003904113, NaN, NaN, NaN, 0.0335714, "- N/A -   "
2.28, 75.0146, 0.00392355, NaN, NaN, NaN, 0.0323506, "- N/A -   "
2.29, 75.25049, 0.003940211, NaN, NaN, NaN, 0.0323506, "- N/A -   "
2.3, 75.7223, 0.00395965, NaN, NaN, NaN, 0.03112983, "- N/A -   "
2.31, 75.95817, 0.00397631, NaN, NaN, NaN, 0.03112983, "- N/A -   "
2.32, 76.31202, 0.003992969, NaN, NaN, NaN, 0.03112983, "- N/A -   "
2.33, 76.5479, 0.00401241, NaN, NaN, NaN, 0.03112983, "- N/A -   "
2.34, 76.90175, 0.00402907, NaN, NaN, NaN, 0.03112983, "- N/A -   "
2.35, 77.25559, 0.00404573, NaN, NaN, NaN, 0.0299091, "- N/A -   "
2.36, 77.49149, 0.004065165, NaN, NaN, NaN, 0.0299091, "- N/A -   "
2.37, 77.72738, 0.00407905, NaN, NaN, NaN, 0.03112983, "- N/A -   "
2.38, 77.96328, 0.004092932, NaN, NaN, NaN, 0.03112983, "- N/A -   "
2.39, 78.31712, 0.00410959, NaN, NaN, NaN, 0.03112983, "- N/A -   "
2.4, 78.55301, 0.004126253, NaN, NaN, NaN, 0.03112983, "- N/A -   "
2.41, 78.78891, 0.004140137, NaN, NaN, NaN, 0.0323506, "- N/A -   "
2.42, 79.0248, 0.0041568, NaN, NaN, NaN, 0.0323506, "- N/A -   "
2.43, 79.37865, 0.004173458, NaN, NaN, NaN, 0.0323506, "- N/A -   "
2.44, 79.4966, 0.004187342, NaN, NaN, NaN, 0.0335714, "- N/A -   "
2.45, 79.85043, 0.004204002, NaN, NaN, NaN, 0.0335714, "- N/A -   "
2.46, 80.0863, 0.00421789, NaN, NaN, NaN, 0.0347922, "- N/A -   "
2.47, 80.44018, 0.004234547, NaN, NaN, NaN, 0.03601294, "- N/A -   "
2.48, 80.67606, 0.004251207, NaN, NaN, NaN, 0.03601294, "- N/A -   "
2.49, 81.0299, 0.00426787, NaN, NaN, NaN, 0.0347922, "- N/A -   "
2.5, 81.38376, 0.004287305, NaN, NaN, NaN, 0.0335714, "- N/A -   "
2.51, 81.7376, 0.004306742, NaN, NaN, NaN, 0.0335714, "- N/A -   "
2.52, 81.97349, 0.004323403, NaN, NaN, NaN, 0.0323506, "- N/A -   "
2.53, 82.32734, 0.00434006, NaN, NaN, NaN, 0.0323506, "- N/A -   "
2.54, 82.56323, 0.00435672, NaN, NaN, NaN, 0.0323506, "- N/A -   "
2.55, 82.91707, 0.004376161, NaN, NaN, NaN, 0.0323506, "- N/A -   "
2.56, 83.15297, 0.00439004, NaN, NaN, NaN, 0.0323506, "- N/A -   "
2.57, 83.50681, 0.004409482, NaN, NaN, NaN, 0.03112983, "- N/A -   "
2.58, 83.74271, 0.004426142, NaN, NaN, NaN, 0.03112983, "- N/A -   "
2.59, 84.09654, 0.004442803, NaN, NaN, NaN, 0.0323506, "- N/A -   "
2.6, 84.33244, 0.00445946, NaN, NaN, NaN, 0.0323506, "- N/A -   "
2.61, 84.56834, 0.004473347, NaN, NaN, NaN, 0.0323506, "- N/A -   "
2.62, 84.92217, 0.004487231, NaN, NaN, NaN, 0.0335714, "- N/A -   "
2.63, 85.15807, 0.00450389, NaN, NaN, NaN, 0.0347922, "- N/A -   "
2.64, 85.51192, 0.00451778, NaN, NaN, NaN, 0.0347922, "- N/A -   "
2.65, 85.62987, 0.004534436, NaN, NaN, NaN, 0.0347922, "- N/A -   "
2.66, 85.9837, 0.0045511, NaN, NaN, NaN, 0.03601294, "- N/A -   "
2.67, 86.1017, 0.0045622, NaN, NaN, NaN, 0.0372337, "- N/A -   "
2.68, 86.4555, 0.004576087, NaN, NaN, NaN, 0.0384545, "- N/A -   "
2.69, 86.57345, 0.00458997, NaN, NaN, NaN, 0.0396753, "- N/A -   "
2.7, 86.80934, 0.00460663, NaN, NaN, NaN, 0.0396753, "- N/A -   "
2.71, 87.16318, 0.004620515, NaN, NaN, NaN, 0.04089605, "- N/A -   "
2.72, 87.39908, 0.004634399, NaN, NaN, NaN, 0.04211683, "- N/A -   "
2.73, 87.63497, 0.00465106, NaN, NaN, NaN, 0.04211683, "- N/A -   "
2.74, 87.8709, 0.004664943, NaN, NaN, NaN, 0.0433376, "- N/A -   "
2.75, 88.10676, 0.0046816, NaN, NaN, NaN, 0.0433376, "- N/A -   "
2.76, 88.4606, 0.004698264, NaN, NaN, NaN, 0.0433376, "- N/A -   "
2.77, 88.8144, 0.00471492, NaN, NaN, NaN, 0.0433376, "- N/A -   "
2.78, 89.05035, 0.00473159, NaN, NaN, NaN, 0.0433376, "- N/A -   "
2.79, 89.40418, 0.00475102, NaN, NaN, NaN, 0.0433376, "- N/A -   "
2.8, 89.6401, 0.004767683, NaN, NaN, NaN, 0.04211683, "- N/A -   "
2.81, 90.11186, 0.00478712, NaN, NaN, NaN, 0.04211683, "- N/A -   "
2.82, 90.4657, 0.00480378, NaN, NaN, NaN, 0.04089605, "- N/A -   "
2.83, 90.70161, 0.00482044, NaN, NaN, NaN, 0.04089605, "- N/A -   "
2.84, 90.9375, 0.004837102, NaN, NaN, NaN, 0.04211683, "- N/A -   "
2.85, 91.2913, 0.004853762, NaN, NaN, NaN, 0.04211683, "- N/A -   "
2.86, 91.52724, 0.004870423, NaN, NaN, NaN, 0.04211683, "- N/A -   "
2.87, 91.88108, 0.004887083, NaN, NaN, NaN, 0.04089605, "- N/A -   "
2.88, 92.23492, 0.004903744, NaN, NaN, NaN, 0.04089605, "- N/A -   "
2.89, 92.58876, 0.004923181, NaN, NaN, NaN, 0.0396753, "- N/A -   "
2.9, 92.70671, 0.004939841, NaN, NaN, NaN, 0.0396753, "- N/A -   "
2.91, 93.1785, 0.004959279, NaN, NaN, NaN, 0.0384545, "- N/A -   "
2.92, 93.53234, 0.004978716, NaN, NaN, NaN, 0.0384545, "- N/A -   "
2.93, 93.76824, 0.004998153, NaN, NaN, NaN, 0.0372337, "- N/A -   "
2.94, 94.1221, 0.005014814, NaN, NaN, NaN, 0.03601294, "- N/A -   "
2.95, 94.47592, 0.00503147, NaN, NaN, NaN, 0.03601294, "- N/A -   "
2.96, 94.7118, 0.00505091, NaN, NaN, NaN, 0.03601294, "- N/A -   "
2.97, 95.06567, 0.005067572, NaN, NaN, NaN, 0.0347922, "- N/A -   "
2.98, 95.18361, 0.005081456, NaN, NaN, NaN, 0.03601294, "- N/A -   "
2.99, 95.41951, 0.005098116, NaN, NaN, NaN, 0.03601294, "- N/A -   "
3, 95.7733, 0.005114777, NaN, NaN, NaN, 0.03601294, "- N/A -   "
3.01, 96.12719, 0.00513144, NaN, NaN, NaN, 0.03601294, "- N/A -   "
3.02, 96.481, 0.0051481, NaN, NaN, NaN, 0.03601294, "- N/A -   "
3.03, 96.71693, 0.005167535, NaN, NaN, NaN, 0.03601294, "- N/A -   "
3.04, 97.07077, 0.0051842, NaN, NaN, NaN, 0.03601294, "- N/A -   "
3.05, 97.18872, 0.00520086, NaN, NaN, NaN, 0.0347922, "- N/A -   "
3.06, 97.4246, 0.00521752, NaN, NaN, NaN, 0.0347922, "- N/A -   "
3.07, 97.8964, 0.005234177, NaN, NaN, NaN, 0.03601294, "- N/A -   "
3.08, 98.13229, 0.00525084, NaN, NaN, NaN, 0.0347922, "- N/A -   "
3.09, 98.3682, 0.0052675, NaN, NaN, NaN, 0.0347922, "- N/A -   "
3.1, 98.72203, 0.00528416, NaN, NaN, NaN, 0.0347922, "- N/A -   "
3.11, 98.9579, 0.005303596, NaN, NaN, NaN, 0.0347922, "- N/A -   "
3.12, 99.3118, 0.00532026, NaN, NaN, NaN, 0.0335714, "- N/A -   "
3.13, 99.54767, 0.00533692, NaN, NaN, NaN, 0.0335714, "- N/A -   "
3.14, 99.9015, 0.00535358, NaN, NaN, NaN, 0.0335714, "- N/A -   "
3.15, 100.137, 0.00537301, NaN, NaN, NaN, 0.0335714, "- N/A -   "
3.16, 100.491, 0.00538968, NaN, NaN, NaN, 0.0335714, "- N/A -   "
3.17, 100.727, 0.00540634, NaN, NaN, NaN, 0.0323506, "- N/A -   "
3.18, 101.081, 0.005423, NaN, NaN, NaN, 0.0335714, "- N/A -   "
3.19, 101.317, 0.005439657, NaN, NaN, NaN, 0.0323506, "- N/A -   "
3.2, 101.671, 0.00545632, NaN, NaN, NaN, 0.0323506, "- N/A -   "
3.21, 101.789, 0.00547298, NaN, NaN, NaN, 0.0323506, "- N/A -   "
3.22, 102.26, 0.00548964, NaN, NaN, NaN, 0.0323506, "- N/A -   "
3.23, 102.496, 0.0055063, NaN, NaN, NaN, 0.0323506, "- N/A -   "
3.24, 102.732, 0.00552296, NaN, NaN, NaN, 0.0323506, "- N/A -   "
3.25, 103.086, 0.00553962, NaN, NaN, NaN, 0.0323506, "- N/A -   "
3.26, 103.322, 0.00555906, NaN, NaN, NaN, 0.03112983, "- N/A -   "
3.27, 103.676, 0.00557572, NaN, NaN, NaN, 0.03112983, "- N/A -   "
3.28, 103.912, 0.00559238, NaN, NaN, NaN, 0.03112983, "- N/A -   "
3.29, 104.266, 0.00560904, NaN, NaN, NaN, 0.03112983, "- N/A -   "
3.3, 104.384, 0.00562292, NaN, NaN, NaN, 0.0323506, "- N/A -   "
3.31, 104.737, 0.00563681, NaN, NaN, NaN, 0.0335714, "- N/A -   "
3.32, 104.973, 0.00565347, NaN, NaN, NaN, 0.0335714, "- N/A -   "
3.33, 105.091, 0.00566735, NaN, NaN, NaN, 0.0347922, "- N/A -   "
3.34, 105.445, 0.00568401, NaN, NaN, NaN, 0.0347922, "- N/A -   "
3.35, 105.681, 0.00570345, NaN, NaN, NaN, 0.0335714, "- N/A -   "
3.36, 106.035, 0.00572011, NaN, NaN, NaN, 0.0335714, "- N/A -   "
3.37, 106.389, 0.005739546, NaN, NaN, NaN, 0.0323506, "- N/A -   "
3.38, 106.742, 0.005756207, NaN, NaN, NaN, 0.0335714, "- N/A -   "
3.39, 106.978, 0.00577009, NaN, NaN, NaN, 0.0335714, "- N/A -   "
3.4, 107.3322, 0.005786751, NaN, NaN, NaN, 0.0335714, "- N/A -   "
3.41, 107.45, 0.00580341, NaN, NaN, NaN, 0.0347922, "- N/A -   "
3.42, 107.804, 0.005817295, NaN, NaN, NaN, 0.0347922, "- N/A -   "
3.43, 108.04, 0.00583396, NaN, NaN, NaN, 0.0347922, "- N/A -   "
3.44, 108.276, 0.005850616, NaN, NaN, NaN, 0.03601294, "- N/A -   "
3.45, 108.63, 0.0058645, NaN, NaN, NaN, 0.03601294, "- N/A -   "
3.46, 108.866, 0.00588116, NaN, NaN, NaN, 0.0372337, "- N/A -   "
3.47, 108.983, 0.00589227, NaN, NaN, NaN, 0.0384545, "- N/A -   "
3.48, 109.3373, 0.005908928, NaN, NaN, NaN, 0.0384545, "- N/A -   "
3.49, 109.5732, 0.00592281, NaN, NaN, NaN, 0.0396753, "- N/A -   "
3.5, 109.8091, 0.0059367, NaN, NaN, NaN, 0.04089605, "- N/A -   "
3.51, 110.045, 0.00595336, NaN, NaN, NaN, 0.04089605, "- N/A -   "
3.52, 110.281, 0.00596724, NaN, NaN, NaN, 0.04211683, "- N/A -   "
3.53, 110.517, 0.0059839, NaN, NaN, NaN, 0.0433376, "- N/A -   "
3.54, 110.753, 0.005997784, NaN, NaN, NaN, 0.0445584, "- N/A -   "
3.55, 111.224, 0.00601167, NaN, NaN, NaN, 0.0445584, "- N/A -   "
3.56, 111.342, 0.006025552, NaN, NaN, NaN, 0.04577916, "- N/A -   "
3.57, 111.696, 0.006042212, NaN, NaN, NaN, 0.04699994, "- N/A -   "
3.58, 111.932, 0.00605887, NaN, NaN, NaN, 0.04577916, "- N/A -   "
3.59, 112.286, 0.006075533, NaN, NaN, NaN, 0.04577916, "- N/A -   "
3.6, 112.522, 0.00609219, NaN, NaN, NaN, 0.04577916, "- N/A -   "
3.61, 112.758, 0.006108854, NaN, NaN, NaN, 0.04577916, "- N/A -   "
3.62, 113.112, 0.006128291, NaN, NaN, NaN, 0.04577916, "- N/A -   "
3.63, 113.465, 0.006144952, NaN, NaN, NaN, 0.04577916, "- N/A -   "
3.64, 113.819, 0.006164389, NaN, NaN, NaN, 0.0445584, "- N/A -   "
3.65, 114.055, 0.00618383, NaN, NaN, NaN, 0.0445584, "- N/A -   "
3.66, 114.409, 0.006203264, NaN, NaN, NaN, 0.0433376, "- N/A -   "
3.67, 114.763, 0.006222701, NaN, NaN, NaN, 0.04089605, "- N/A -   "
3.68, 115.117, 0.006244915, NaN, NaN, NaN, 0.0396753, "- N/A -   "
3.69, 115.589, 0.00626435, NaN, NaN, NaN, 0.0372337, "- N/A -   "
3.7, 115.824, 0.00628379, NaN, NaN, NaN, 0.0372337, "- N/A -   "
3.71, 116.178, 0.006303227, NaN, NaN, NaN, 0.03601294, "- N/A -   "
3.72, 116.414, 0.006319887, NaN, NaN, NaN, 0.0347922, "- N/A -   "
3.73, 116.768, 0.006336548, NaN, NaN, NaN, 0.0347922, "- N/A -   "
3.74, 117.004, 0.006355985, NaN, NaN, NaN, 0.0335714, "- N/A -   "
3.75, 117.24, 0.00636987, NaN, NaN, NaN, 0.0347922, "- N/A -   "
3.76, 117.594, 0.006386529, NaN, NaN, NaN, 0.0347922, "- N/A -   "
3.77, 117.83, 0.00640597, NaN, NaN, NaN, 0.0347922, "- N/A -   "
3.78, 118.183, 0.00642263, NaN, NaN, NaN, 0.0335714, "- N/A -   "
3.79, 118.537, 0.006439287, NaN, NaN, NaN, 0.0335714, "- N/A -   "
3.8, 118.7731, 0.006455948, NaN, NaN, NaN, 0.0335714, "- N/A -   "
3.81, 119.009, 0.00647261, NaN, NaN, NaN, 0.0347922, "- N/A -   "
3.82, 119.245, 0.006486492, NaN, NaN, NaN, 0.0347922, "- N/A -   "
3.83, 119.599, 0.006503153, NaN, NaN, NaN, 0.0347922, "- N/A -   "
3.84, 119.835, 0.00652259, NaN, NaN, NaN, 0.0347922, "- N/A -   "
3.85, 120.188, 0.00653925, NaN, NaN, NaN, 0.0335714, "- N/A -   "
3.86, 120.424, 0.006558688, NaN, NaN, NaN, 0.0335714, "- N/A -   "
3.87, 120.66, 0.00657535, NaN, NaN, NaN, 0.0323506, "- N/A -   "
3.88, 121.014, 0.006594786, NaN, NaN, NaN, 0.0323506, "- N/A -   "
3.89, 121.368, 0.00661145, NaN, NaN, NaN, 0.0323506, "- N/A -   "
3.9, 121.722, 0.00663088, NaN, NaN, NaN, 0.03112983, "- N/A -   "
3.91, 121.958, 0.006647544, NaN, NaN, NaN, 0.0299091, "- N/A -   "
3.92, 122.312, 0.006666981, NaN, NaN, NaN, 0.0299091, "- N/A -   "
3.93, 122.547, 0.006683642, NaN, NaN, NaN, 0.0286883, "- N/A -   "
3.94, 122.901, 0.006703079, NaN, NaN, NaN, 0.0286883, "- N/A -   "
3.95, 123.137, 0.006719739, NaN, NaN, NaN, 0.0274675, "- N/A -   "
3.96, 123.609, 0.00673362, NaN, NaN, NaN, 0.0286883, "- N/A -   "
3.97, 123.7269, 0.006750284, NaN, NaN, NaN, 0.0286883, "- N/A -   "
3.98, 123.963, 0.00676417, NaN, NaN, NaN, 0.0299091, "- N/A -   "
3.99, 124.081, 0.00678083, NaN, NaN, NaN, 0.03112983, "- N/A -   "
4, 124.435, 0.006794712, NaN, NaN, NaN, 0.03112983, "- N/A -   "
4.01, 124.67, 0.00681137, NaN, NaN, NaN, 0.03112983, "- N/A -   "
4.02, 125.024, 0.006828033, NaN, NaN, NaN, 0.0323506, "- N/A -   "
4.03, 125.26, 0.00684469, NaN, NaN, NaN, 0.0323506, "- N/A -   "
4.04, 125.496, 0.00685858, NaN, NaN, NaN, 0.0335714, "- N/A -   "
4.05, 125.732, 0.006872461, NaN, NaN, NaN, 0.0335714, "- N/A -   "
4.06, 125.9679, 0.00688912, NaN, NaN, NaN, 0.0347922, "- N/A -   "
4.07, 126.204, 0.00690301, NaN, NaN, NaN, 0.03601294, "- N/A -   "
4.08, 126.44, 0.006916889, NaN, NaN, NaN, 0.0372337, "- N/A -   "
4.09, 126.676, 0.00693077, NaN, NaN, NaN, 0.0372337, "- N/A -   "
4.1, 126.911, 0.00694466, NaN, NaN, NaN, 0.0384545, "- N/A -   "
4.11, 127.147, 0.00695854, NaN, NaN, NaN, 0.0396753, "- N/A -   "
4.12, 127.383, 0.006972424, NaN, NaN, NaN, 0.04089605, "- N/A -   "
4.13, 127.619, 0.00698631, NaN, NaN, NaN, 0.04211683, "- N/A -   "
4.14, 127.855, 0.00700019, NaN, NaN, NaN, 0.0433376, "- N/A -   "
4.15, 128.091, 0.007016852, NaN, NaN, NaN, 0.0445584, "- N/A -   "
4.16, 128.327, 0.00703351, NaN, NaN, NaN, 0.0445584, "- N/A -   "
4.17, 128.6807, 0.007047396, NaN, NaN, NaN, 0.0445584, "- N/A -   "
4.18, 128.917, 0.00706128, NaN, NaN, NaN, 0.04577916, "- N/A -   "
4.19, 129.035, 0.00707794, NaN, NaN, NaN, 0.04699994, "- N/A -   "
4.2, 129.388, 0.00709182, NaN, NaN, NaN, 0.04699994, "- N/A -   "
4.21, 129.624, 0.007105708, NaN, NaN, NaN, 0.0482207, "- N/A -   "
4.22, 129.86, 0.00712237, NaN, NaN, NaN, 0.0482207, "- N/A -   "
4.23, 130.214, 0.00713903, NaN, NaN, NaN, 0.0482207, "- N/A -   "
4.24, 130.568, 0.00715847, NaN, NaN, NaN, 0.04699994, "- N/A -   "
4.25, 130.804, 0.007177904, NaN, NaN, NaN, 0.04699994, "- N/A -   "
4.26, 131.1576, 0.007194564, NaN, NaN, NaN, 0.04577916, "- N/A -   "
4.27, 131.511, 0.00721678, NaN, NaN, NaN, 0.0445584, "- N/A -   "
4.28, 131.865, 0.00723622, NaN, NaN, NaN, 0.04211683, "- N/A -   "
4.29, 132.219, 0.00725565, NaN, NaN, NaN, 0.04211683, "- N/A -   "
4.3, 132.455, 0.00727231, NaN, NaN, NaN, 0.04089605, "- N/A -   "
4.31, 132.809, 0.00729175, NaN, NaN, NaN, 0.04089605, "- N/A -   "
4.32, 133.163, 0.007308411, NaN, NaN, NaN, 0.0396753, "- N/A -   "
4.33, 133.399, 0.00732507, NaN, NaN, NaN, 0.0396753, "- N/A -   "
4.34, 133.752, 0.00734451, NaN, NaN, NaN, 0.0384545, "- N/A -   "
4.35, 133.988, 0.00736395, NaN, NaN, NaN, 0.0372337, "- N/A -   "
4.36, 134.46, 0.00738061, NaN, NaN, NaN, 0.0372337, "- N/A -   "
4.37, 134.696, 0.007400044, NaN, NaN, NaN, 0.0372337, "- N/A -   "
4.38, 134.932, 0.0074167, NaN, NaN, NaN, 0.03601294, "- N/A -   "
4.39, 135.286, 0.00743336, NaN, NaN, NaN, 0.03601294, "- N/A -   "
4.4, 135.522, 0.00745003, NaN, NaN, NaN, 0.03601294, "- N/A -   "
4.41, 135.875, 0.007466686, NaN, NaN, NaN, 0.03601294, "- N/A -   "
4.42, 136.111, 0.00748335, NaN, NaN, NaN, 0.03601294, "- N/A -   "
4.43, 136.465, 0.007500007, NaN, NaN, NaN, 0.03601294, "- N/A -   "
4.44, 136.701, 0.007519444, NaN, NaN, NaN, 0.0347922, "- N/A -   "
4.45, 137.055, 0.00753888, NaN, NaN, NaN, 0.0347922, "- N/A -   "
4.46, 137.4088, 0.007555542, NaN, NaN, NaN, 0.0347922, "- N/A -   "
4.47, 137.6447, 0.00757498, NaN, NaN, NaN, 0.0323506, "- N/A -   "
4.48, 138.116, 0.007594417, NaN, NaN, NaN, 0.03112983, "- N/A -   "
4.49, 138.352, 0.007611077, NaN, NaN, NaN, 0.03112983, "- N/A -   "
4.5, 138.706, 0.007630514, NaN, NaN, NaN, 0.0299091, "- N/A -   "
4.51, 138.942, 0.007647175, NaN, NaN, NaN, 0.0299091, "- N/A -   "
4.52, 139.296, 0.007666612, NaN, NaN, NaN, 0.0286883, "- N/A -   "
4.53, 139.532, 0.00768327, NaN, NaN, NaN, 0.0286883, "- N/A -   "
4.54, 139.8857, 0.007699933, NaN, NaN, NaN, 0.0299091, "- N/A -   "
4.55, 140.24, 0.007716594, NaN, NaN, NaN, 0.0286883, "- N/A -   "
4.56, 140.475, 0.00773325, NaN, NaN, NaN, 0.0299091, "- N/A -   "
4.57, 140.829, 0.00774991, NaN, NaN, NaN, 0.0286883, "- N/A -   "
4.58, 141.065, 0.007766575, NaN, NaN, NaN, 0.0286883, "- N/A -   "
4.59, 141.419, 0.00778601, NaN, NaN, NaN, 0.0274675, "- N/A -   "
4.6, 141.6549, 0.00780267, NaN, NaN, NaN, 0.0274675, "- N/A -   "
4.61, 141.891, 0.007819333, NaN, NaN, NaN, 0.0274675, "- N/A -   "
4.62, 142.1267, 0.007835994, NaN, NaN, NaN, 0.0286883, "- N/A -   "
4.63, 142.481, 0.007849878, NaN, NaN, NaN, 0.0286883, "- N/A -   "
4.64, 142.716, 0.007866538, NaN, NaN, NaN, 0.0299091, "- N/A -   "
4.65, 142.952, 0.007880422, NaN, NaN, NaN, 0.0299091, "- N/A -   "
4.66, 143.188, 0.00789431, NaN, NaN, NaN, 0.03112983, "- N/A -   "
4.67, 143.424, 0.007908189, NaN, NaN, NaN, 0.0323506, "- N/A -   "
4.68, 143.66, 0.007922073, NaN, NaN, NaN, 0.0335714, "- N/A -   "
4.69, 143.896, 0.007938734, NaN, NaN, NaN, 0.0335714, "- N/A -   "
4.7, 144.25, 0.00795262, NaN, NaN, NaN, 0.0347922, "- N/A -   "
4.71, 144.486, 0.007969278, NaN, NaN, NaN, 0.0347922, "- N/A -   "
4.72, 144.722, 0.007983162, NaN, NaN, NaN, 0.03601294, "- N/A -   "
4.73, 144.957, 0.007997045, NaN, NaN, NaN, 0.0372337, "- N/A -   "
4.74, 145.193, 0.008013706, NaN, NaN, NaN, 0.0384545, "- N/A -   "
4.75, 145.429, 0.00802759, NaN, NaN, NaN, 0.0396753, "- N/A -   "
4.76, 145.665, 0.008041473, NaN, NaN, NaN, 0.04089605, "- N/A -   "
4.77, 145.901, 0.008055357, NaN, NaN, NaN, 0.04089605, "- N/A -   "
4.78, 146.137, 0.008069241, NaN, NaN, NaN, 0.0433376, "- N/A -   "
4.79, 146.3728, 0.008083125, NaN, NaN, NaN, 0.0433376, "- N/A -   "
4.8, 146.6087, 0.008097008, NaN, NaN, NaN, 0.0445584, "- N/A -   "
4.81, 146.963, 0.008113669, NaN, NaN, NaN, 0.0445584, "- N/A -   "
4.82, 147.198, 0.00813033, NaN, NaN, NaN, 0.0445584, "- N/A -   "
4.83, 147.67, 0.008149767, NaN, NaN, NaN, 0.0433376, "- N/A -   "
4.84, 147.906, 0.008169204, NaN, NaN, NaN, 0.0433376, "- N/A -   "
4.85, 148.142, 0.008185864, NaN, NaN, NaN, 0.04211683, "- N/A -   "
4.86, 148.496, 0.008202525, NaN, NaN, NaN, 0.04211683, "- N/A -   "
4.87, 148.732, 0.008219185, NaN, NaN, NaN, 0.04211683, "- N/A -   "
4.88, 148.968, 0.008233069, NaN, NaN, NaN, 0.0433376, "- N/A -   "
4.89, 149.204, 0.00824973, NaN, NaN, NaN, 0.0433376, "- N/A -   "
4.9, 149.557, 0.00826639, NaN, NaN, NaN, 0.0445584, "- N/A -   "
4.91, 149.793, 0.008280274, NaN, NaN, NaN, 0.0445584, "- N/A -   "
4.92, 150.029, 0.008296934, NaN, NaN, NaN, 0.0445584, "- N/A -   "
4.93, 150.383, 0.00831637, NaN, NaN, NaN, 0.0445584, "- N/A -   "
4.94, 150.737, 0.008330256, NaN, NaN, NaN, 0.0445584, "- N/A -   "
4.95, 150.973, 0.008346916, NaN, NaN, NaN, 0.0445584, "- N/A -   "
4.96, 151.327, 0.008363577, NaN, NaN, NaN, 0.0445584, "- N/A -   "
4.97, 151.5625, 0.008380237, NaN, NaN, NaN, 0.04577916, "- N/A -   "
4.98, 151.916, 0.008394121, NaN, NaN, NaN, 0.04577916, "- N/A -   "
4.99, 152.152, 0.008413558, NaN, NaN, NaN, 0.0445584, "- N/A -   "
5, 152.624, 0.008433, NaN, NaN, NaN, 0.0445584, "- N/A -   "
5.01, 152.86, 0.008452432, NaN, NaN, NaN, 0.04211683, "- N/A -   "
5.02, 153.214, 0.00847187, NaN, NaN, NaN, 0.04211683, "- N/A -   "
5.03, 153.686, 0.00849131, NaN, NaN, NaN, 0.0396753, "- N/A -   "
5.04, 154.0394, 0.008513521, NaN, NaN, NaN, 0.0372337, "- N/A -   "
5.05, 154.393, 0.008535735, NaN, NaN, NaN, 0.0347922, "- N/A -   "
5.06, 154.865, 0.008557949, NaN, NaN, NaN, 0.0323506, "- N/A -   "
5.07, 155.219, 0.008577387, NaN, NaN, NaN, 0.03112983, "- N/A -   "
5.08, 155.573, 0.008599601, NaN, NaN, NaN, 0.0299091, "- N/A -   "
5.09, 155.927, 0.008619037, NaN, NaN, NaN, 0.0274675, "- N/A -   "
5.1, 156.162, 0.008635699, NaN, NaN, NaN, 0.0274675, "- N/A -   "
5.11, 156.5163, 0.008649582, NaN, NaN, NaN, 0.0286883, "- N/A -   "
5.12, 156.752, 0.00866902, NaN, NaN, NaN, 0.0286883, "- N/A -   "
5.13, 157.106, 0.00868568, NaN, NaN, NaN, 0.0274675, "- N/A -   "
5.14, 157.342, 0.008699563, NaN, NaN, NaN, 0.0286883, "- N/A -   "
5.15, 157.578, 0.008716225, NaN, NaN, NaN, 0.0286883, "- N/A -   "
5.16, 157.814, 0.008732884, NaN, NaN, NaN, 0.0286883, "- N/A -   "
5.17, 158.168, 0.008749546, NaN, NaN, NaN, 0.0286883, "- N/A -   "
5.18, 158.521, 0.008766206, NaN, NaN, NaN, 0.0286883, "- N/A -   "
5.19, 158.875, 0.008782866, NaN, NaN, NaN, 0.0286883, "- N/A -   "
5.2, 159.111, 0.008799527, NaN, NaN, NaN, 0.0299091, "- N/A -   "
5.21, 159.347, 0.008813411, NaN, NaN, NaN, 0.0299091, "- N/A -   "
5.22, 159.583, 0.00883007, NaN, NaN, NaN, 0.0299091, "- N/A -   "
5.23, 159.937, 0.008846732, NaN, NaN, NaN, 0.0299091, "- N/A -   "
5.24, 160.173, 0.008863391, NaN, NaN, NaN, 0.03112983, "- N/A -   "
5.25, 160.5265, 0.00887728, NaN, NaN, NaN, 0.03112983, "- N/A -   "
5.26, 160.7624, 0.008893937, NaN, NaN, NaN, 0.0323506, "- N/A -   "
5.27, 161.116, 0.00890782, NaN, NaN, NaN, 0.0323506, "- N/A -   "
5.28, 161.234, 0.00892448, NaN, NaN, NaN, 0.0323506, "- N/A -   "
5.29, 161.588, 0.008941141, NaN, NaN, NaN, 0.0335714, "- N/A -   "
5.3, 161.824, 0.008955025, NaN, NaN, NaN, 0.0335714, "- N/A -   "
5.31, 162.06, 0.008971686, NaN, NaN, NaN, 0.0335714, "- N/A -   "
5.32, 162.296, 0.008988346, NaN, NaN, NaN, 0.0347922, "- N/A -   "
5.33, 162.65, 0.009005006, NaN, NaN, NaN, 0.0347922, "- N/A -   "
5.34, 162.885, 0.009021667, NaN, NaN, NaN, 0.0347922, "- N/A -   "
5.35, 163.2393, 0.009035551, NaN, NaN, NaN, 0.0347922, "- N/A -   "
5.36, 163.475, 0.00905221, NaN, NaN, NaN, 0.0347922, "- N/A -   "
5.37, 163.829, 0.009068872, NaN, NaN, NaN, 0.0347922, "- N/A -   "
5.38, 164.183, 0.009088309, NaN, NaN, NaN, 0.0347922, "- N/A -   "
5.39, 164.301, 0.009102193, NaN, NaN, NaN, 0.0347922, "- N/A -   "
5.4, 164.655, 0.009118853, NaN, NaN, NaN, 0.03601294, "- N/A -   "
5.41, 165.009, 0.009135514, NaN, NaN, NaN, 0.03601294, "- N/A -   "
5.42, 165.2444, 0.009149398, NaN, NaN, NaN, 0.03601294, "- N/A -   "
5.43, 165.598, 0.009166058, NaN, NaN, NaN, 0.03601294, "- N/A -   "
5.44, 165.834, 0.009182719, NaN, NaN, NaN, 0.03601294, "- N/A -   "
5.45, 166.07, 0.009196602, NaN, NaN, NaN, 0.0372337, "- N/A -   "
5.46, 166.306, 0.009213263, NaN, NaN, NaN, 0.0384545, "- N/A -   "
5.47, 166.542, 0.00922437, NaN, NaN, NaN, 0.0396753, "- N/A -   "
5.48, 166.896, 0.00924103, NaN, NaN, NaN, 0.0396753, "- N/A -   "
5.49, 167.132, 0.009257691, NaN, NaN, NaN, 0.04089605, "- N/A -   "
5.5, 167.367, 0.009274351, NaN, NaN, NaN, 0.04089605, "- N/A -   "
5.51, 167.603, 0.009288235, NaN, NaN, NaN, 0.04089605, "- N/A -   "
5.52, 167.839, 0.009302119, NaN, NaN, NaN, 0.04211683, "- N/A -   "
5.53, 168.193, 0.009318779, NaN, NaN, NaN, 0.0433376, "- N/A -   "
5.54, 168.429, 0.009332663, NaN, NaN, NaN, 0.0433376, "- N/A -   "
5.55, 168.783, 0.009349324, NaN, NaN, NaN, 0.0445584, "- N/A -   "
5.56, 169.019, 0.009363207, NaN, NaN, NaN, 0.0445584, "- N/A -   "
5.57, 169.255, 0.009377091, NaN, NaN, NaN, 0.04577916, "- N/A -   "
5.58, 169.491, 0.009393752, NaN, NaN, NaN, 0.04577916, "- N/A -   "
5.59, 169.844, 0.009410412, NaN, NaN, NaN, 0.04699994, "- N/A -   "
5.6, 170.1982, 0.00942707, NaN, NaN, NaN, 0.04577916, "- N/A -   "
5.61, 170.552, 0.009443733, NaN, NaN, NaN, 0.04577916, "- N/A -   "
5.62, 170.906, 0.009463171, NaN, NaN, NaN, 0.0445584, "- N/A -   "
5.63, 171.26, 0.009482608, NaN, NaN, NaN, 0.0433376, "- N/A -   "
5.64, 171.614, 0.009504822, NaN, NaN, NaN, 0.04211683, "- N/A -   "
5.65, 171.9674, 0.009524259, NaN, NaN, NaN, 0.0396753, "- N/A -   "
5.66, 172.4392, 0.009543696, NaN, NaN, NaN, 0.0384545, "- N/A -   "
5.67, 172.6751, 0.009563133, NaN, NaN, NaN, 0.0372337, "- N/A -   "
5.68, 173.029, 0.009582571, NaN, NaN, NaN, 0.03601294, "- N/A -   "
5.69, 173.383, 0.009602008, NaN, NaN, NaN, 0.0347922, "- N/A -   "
5.7, 173.737, 0.009621446, NaN, NaN, NaN, 0.0335714, "- N/A -   "
5.71, 174.09, 0.009640883, NaN, NaN, NaN, 0.0335714, "- N/A -   "
5.72, 174.562, 0.009657542, NaN, NaN, NaN, 0.0323506, "- N/A -   "
5.73, 174.798, 0.00967698, NaN, NaN, NaN, 0.03112983, "- N/A -   "
5.74, 175.034, 0.00969364, NaN, NaN, NaN, 0.03112983, "- N/A -   "
5.75, 175.388, 0.009710302, NaN, NaN, NaN, 0.03112983, "- N/A -   "
5.76, 175.742, 0.009726962, NaN, NaN, NaN, 0.03112983, "- N/A -   "
5.77, 175.978, 0.009740846, NaN, NaN, NaN, 0.0323506, "- N/A -   "
5.78, 176.331, 0.009757506, NaN, NaN, NaN, 0.0323506, "- N/A -   "
5.79, 176.567, 0.009774166, NaN, NaN, NaN, 0.0323506, "- N/A -   "
5.8, 176.803, 0.009790827, NaN, NaN, NaN, 0.0335714, "- N/A -   "
5.81, 177.039, 0.009807488, NaN, NaN, NaN, 0.0335714, "- N/A -   "
5.82, 177.393, 0.009821372, NaN, NaN, NaN, 0.0335714, "- N/A -   "
5.83, 177.747, 0.009835254, NaN, NaN, NaN, 0.0347922, "- N/A -   "
5.84, 177.983, 0.009851916, NaN, NaN, NaN, 0.0347922, "- N/A -   "
5.85, 178.219, 0.009868576, NaN, NaN, NaN, 0.0347922, "- N/A -   "
5.86, 178.572, 0.009885237, NaN, NaN, NaN, 0.0347922, "- N/A -   "
5.87, 178.926, 0.009901897, NaN, NaN, NaN, 0.0347922, "- N/A -   "
5.88, 179.162, 0.009918558, NaN, NaN, NaN, 0.03601294, "- N/A -   "
5.89, 179.3981, 0.009935218, NaN, NaN, NaN, 0.03601294, "- N/A -   "
5.9, 179.752, 0.009949102, NaN, NaN, NaN, 0.03601294, "- N/A -   "
5.91, 180.106, 0.009968539, NaN, NaN, NaN, 0.03601294, "- N/A -   "
5.92, 180.342, 0.0099852, NaN, NaN, NaN, 0.03601294, "- N/A -   "
5.93, 180.696, 0.0100019, NaN, NaN, NaN, 0.0347922, "- N/A -   "
5.94, 180.931, 0.0100185, NaN, NaN, NaN, 0.0347922, "- N/A -   "
5.95, 181.285, 0.0100352, NaN, NaN, NaN, 0.0347922, "- N/A -   "
[...]
30.55, 1159.68, 0.0510367, NaN, NaN, NaN, 0.0335714, "- N/A -   "
30.57, 1160.4, 0.05107002, NaN, NaN, NaN, 0.0347922, "- N/A -   "
30.59, 1161.35, 0.0511061, NaN, NaN, NaN, 0.0335714, "- N/A -   "
30.61, 1162.3, 0.05113944, NaN, NaN, NaN, 0.0335714, "- N/A -   "
30.63, 1163.02, 0.05117, NaN, NaN, NaN, 0.0335714, "- N/A -   "
30.65, 1164.09, 0.0512061, NaN, NaN, NaN, 0.0323506, "- N/A -   "
30.67, 1164.81, 0.0512366, NaN, NaN, NaN, 0.0335714, "- N/A -   "
30.69, 1165.52, 0.05126717, NaN, NaN, NaN, 0.03601294, "- N/A -   "
30.71, 1166.358, 0.0512977, NaN, NaN, NaN, 0.03601294, "- N/A -   "
30.73, 1167.19, 0.0513283, NaN, NaN, NaN, 0.0372337, "- N/A -   "
30.75, 1167.91, 0.0513588, NaN, NaN, NaN, 0.0396753, "- N/A -   "
30.77, 1168.743, 0.0513893, NaN, NaN, NaN, 0.04211683, "- N/A -   "
30.79, 1169.58, 0.05141989, NaN, NaN, NaN, 0.04211683, "- N/A -   "
30.81, 1170.29, 0.0514532, NaN, NaN, NaN, 0.0433376, "- N/A -   "
30.83, 1171.25, 0.0514838, NaN, NaN, NaN, 0.0433376, "- N/A -   "
30.85, 1171.96, 0.0515143, NaN, NaN, NaN, 0.0445584, "- N/A -   "
30.87, 1172.92, 0.0515476, NaN, NaN, NaN, 0.0445584, "- N/A -   "
30.89, 1173.75, 0.0515809, NaN, NaN, NaN, 0.0445584, "- N/A -   "
30.91, 1174.825, 0.05161704, NaN, NaN, NaN, 0.0433376, "- N/A -   "
30.93, 1175.78, 0.05165314, NaN, NaN, NaN, 0.04211683, "- N/A -   "
30.95, 1176.85, 0.05169201, NaN, NaN, NaN, 0.0396753, "- N/A -   "
30.97, 1177.81, 0.0517309, NaN, NaN, NaN, 0.0372337, "- N/A -   "
30.99, 1178.88, 0.05177254, NaN, NaN, NaN, 0.0347922, "- N/A -   "
31.01, 1179.83, 0.0518059, NaN, NaN, NaN, 0.0335714, "- N/A -   "
31.03, 1180.67, 0.05183918, NaN, NaN, NaN, 0.0335714, "- N/A -   "
31.05, 1181.503, 0.0518725, NaN, NaN, NaN, 0.0335714, "- N/A -   "
31.07, 1182.34, 0.0519058, NaN, NaN, NaN, 0.0347922, "- N/A -   "
31.09, 1183.411, 0.05194192, NaN, NaN, NaN, 0.0323506, "- N/A -   "
31.11, 1184.25, 0.0519752, NaN, NaN, NaN, 0.0323506, "- N/A -   "
31.13, 1185.2, 0.0520086, NaN, NaN, NaN, 0.0323506, "- N/A -   "
31.15, 1186.15, 0.0520447, NaN, NaN, NaN, 0.0323506, "- N/A -   "
31.17, 1186.87, 0.052078, NaN, NaN, NaN, 0.03112983, "- N/A -   "
31.19, 1187.94, 0.0521169, NaN, NaN, NaN, 0.0286883, "- N/A -   "
31.21, 1188.9, 0.052153, NaN, NaN, NaN, 0.0274675, "- N/A -   "
31.23, 1189.85, 0.0521891, NaN, NaN, NaN, 0.0274675, "- N/A -   "
31.25, 1190.69, 0.0522224, NaN, NaN, NaN, 0.0262467, "- N/A -   "
31.27, 1191.52, 0.0522557, NaN, NaN, NaN, 0.0262467, "- N/A -   "
31.29, 1192.35, 0.0522862, NaN, NaN, NaN, 0.0274675, "- N/A -   "
31.31, 1192.95, 0.05231123, NaN, NaN, NaN, 0.03112983, "- N/A -   "
31.33, 1193.67, 0.052339, NaN, NaN, NaN, 0.0335714, "- N/A -   "
31.35, 1194.263, 0.052364, NaN, NaN, NaN, 0.0372337, "- N/A -   "
31.37, 1194.86, 0.052389, NaN, NaN, NaN, 0.04211683, "- N/A -   "
31.39, 1195.46, 0.0524167, NaN, NaN, NaN, 0.0433376, "- N/A -   "
31.41, 1196.29, 0.05244729, NaN, NaN, NaN, 0.04577916, "- N/A -   "
31.43, 1197.125, 0.0524778, NaN, NaN, NaN, 0.04699994, "- N/A -   "
31.45, 1197.96, 0.05250838, NaN, NaN, NaN, 0.04699994, "- N/A -   "
31.47, 1198.79, 0.0525417, NaN, NaN, NaN, 0.04699994, "- N/A -   "
31.49, 1199.75, 0.052575, NaN, NaN, NaN, 0.04699994, "- N/A -   "
31.51, 1200.58, 0.05260834, NaN, NaN, NaN, 0.04699994, "- N/A -   "
31.53, 1201.42, 0.05264166, NaN, NaN, NaN, 0.0482207, "- N/A -   "
31.55, 1202.37, 0.052675, NaN, NaN, NaN, 0.04699994, "- N/A -   "
31.57, 1203.21, 0.0527139, NaN, NaN, NaN, 0.04577916, "- N/A -   "
31.59, 1204.4, 0.05275, NaN, NaN, NaN, 0.0433376, "- N/A -   "
31.61, 1205.35, 0.05278883, NaN, NaN, NaN, 0.04089605, "- N/A -   "
31.63, 1206.43, 0.0528277, NaN, NaN, NaN, 0.0384545, "- N/A -   "
31.65, 1207.5, 0.0528666, NaN, NaN, NaN, 0.03601294, "- N/A -   "
31.67, 1208.33, 0.05290545, NaN, NaN, NaN, 0.0347922, "- N/A -   "
31.69, 1209.41, 0.05294155, NaN, NaN, NaN, 0.0323506, "- N/A -   "
31.71, 1210.362, 0.0529776, NaN, NaN, NaN, 0.03112983, "- N/A -   "
31.73, 1211.32, 0.05301097, NaN, NaN, NaN, 0.03112983, "- N/A -   "
31.75, 1212.15, 0.05304707, NaN, NaN, NaN, 0.0299091, "- N/A -   "
31.77, 1213.1, 0.0530832, NaN, NaN, NaN, 0.0286883, "- N/A -   "
31.79, 1214.06, 0.05311926, NaN, NaN, NaN, 0.0286883, "- N/A -   "
31.81, 1214.89, 0.0531526, NaN, NaN, NaN, 0.0286883, "- N/A -   "
31.83, 1215.73, 0.05318313, NaN, NaN, NaN, 0.0286883, "- N/A -   "
31.85, 1216.56, 0.05321645, NaN, NaN, NaN, 0.0299091, "- N/A -   "
31.87, 1217.398, 0.053247, NaN, NaN, NaN, 0.0299091, "- N/A -   "
31.89, 1218.23, 0.0532803, NaN, NaN, NaN, 0.0299091, "- N/A -   "
31.91, 1218.95, 0.0533081, NaN, NaN, NaN, 0.0323506, "- N/A -   "
31.93, 1219.66, 0.05333585, NaN, NaN, NaN, 0.0347922, "- N/A -   "
31.95, 1220.38, 0.0533664, NaN, NaN, NaN, 0.03601294, "- N/A -   "
31.97, 1221.21, 0.05339694, NaN, NaN, NaN, 0.0372337, "- N/A -   "
31.99, 1222.05, 0.05343026, NaN, NaN, NaN, 0.0372337, "- N/A -   "
32.01, 1222.88, 0.053458, NaN, NaN, NaN, 0.0396753, "- N/A -   "
32.03, 1223.48, 0.05348857, NaN, NaN, NaN, 0.04089605, "- N/A -   "
32.05, 1224.2, 0.05351634, NaN, NaN, NaN, 0.0433376, "- N/A -   "
32.07, 1225.03, 0.0535441, NaN, NaN, NaN, 0.04577916, "- N/A -   "
32.09, 1225.75, 0.05357465, NaN, NaN, NaN, 0.04699994, "- N/A -   "
32.11, 1226.461, 0.053608, NaN, NaN, NaN, 0.04699994, "- N/A -   "
32.13, 1227.53, 0.0536468, NaN, NaN, NaN, 0.0445584, "- N/A -   "
32.15, 1228.61, 0.05368572, NaN, NaN, NaN, 0.0433376, "- N/A -   "
32.17, 1229.44, 0.05371627, NaN, NaN, NaN, 0.0433376, "- N/A -   "
32.19, 1230.28, 0.0537551, NaN, NaN, NaN, 0.04211683, "- N/A -   "
32.21, 1231.23, 0.0537857, NaN, NaN, NaN, 0.04211683, "- N/A -   "
32.23, 1232.07, 0.0538218, NaN, NaN, NaN, 0.04211683, "- N/A -   "
32.25, 1233.02, 0.0538551, NaN, NaN, NaN, 0.04089605, "- N/A -   "
32.27, 1233.97, 0.0538912, NaN, NaN, NaN, 0.04089605, "- N/A -   "
32.29, 1234.81, 0.0539245, NaN, NaN, NaN, 0.0396753, "- N/A -   "
32.31, 1235.76, 0.0539634, NaN, NaN, NaN, 0.0384545, "- N/A -   "
32.33, 1236.84, 0.0539995, NaN, NaN, NaN, 0.03601294, "- N/A -   "
32.35, 1237.91, 0.0540384, NaN, NaN, NaN, 0.0335714, "- N/A -   "
32.37, 1238.98, 0.05407724, NaN, NaN, NaN, 0.03112983, "- N/A -   "
32.39, 1239.82, 0.0541161, NaN, NaN, NaN, 0.0299091, "- N/A -   "
32.41, 1240.89, 0.0541494, NaN, NaN, NaN, 0.0299091, "- N/A -   "
32.43, 1241.606, 0.05418, NaN, NaN, NaN, 0.0299091, "- N/A -   "
32.45, 1242.44, 0.0542133, NaN, NaN, NaN, 0.0299091, "- N/A -   "
32.47, 1243.39, 0.0542466, NaN, NaN, NaN, 0.0299091, "- N/A -   "
32.49, 1244.35, 0.0542827, NaN, NaN, NaN, 0.0286883, "- N/A -   "
32.51, 1245.06, 0.0543133, NaN, NaN, NaN, 0.0299091, "- N/A -   "
32.53, 1245.899, 0.054341, NaN, NaN, NaN, 0.0323506, "- N/A -   "
32.55, 1246.73, 0.0543744, NaN, NaN, NaN, 0.0323506, "- N/A -   "
32.57, 1247.57, 0.05440768, NaN, NaN, NaN, 0.0323506, "- N/A -   "
32.59, 1248.4, 0.054441, NaN, NaN, NaN, 0.0335714, "- N/A -   "
32.61, 1249.24, 0.05447432, NaN, NaN, NaN, 0.0323506, "- N/A -   "
32.63, 1250.07, 0.05450764, NaN, NaN, NaN, 0.0335714, "- N/A -   "
32.65, 1250.91, 0.0545382, NaN, NaN, NaN, 0.0335714, "- N/A -   "
32.67, 1251.74, 0.05456873, NaN, NaN, NaN, 0.0347922, "- N/A -   "
32.69, 1252.58, 0.05460205, NaN, NaN, NaN, 0.0347922, "- N/A -   "
32.71, 1253.29, 0.0546326, NaN, NaN, NaN, 0.03601294, "- N/A -   "
32.73, 1254.13, 0.0546631, NaN, NaN, NaN, 0.0372337, "- N/A -   "
32.75, 1254.843, 0.0546909, NaN, NaN, NaN, 0.0396753, "- N/A -   "
32.77, 1255.56, 0.0547187, NaN, NaN, NaN, 0.04211683, "- N/A -   "
32.79, 1256.274, 0.05474644, NaN, NaN, NaN, 0.0445584, "- N/A -   "
32.81, 1257.11, 0.05477976, NaN, NaN, NaN, 0.0445584, "- N/A -   "
32.83, 1258.06, 0.0548131, NaN, NaN, NaN, 0.0445584, "- N/A -   "
32.85, 1258.9, 0.0548464, NaN, NaN, NaN, 0.0445584, "- N/A -   "
32.87, 1259.73, 0.0548797, NaN, NaN, NaN, 0.0445584, "- N/A -   "
32.89, 1260.567, 0.054913, NaN, NaN, NaN, 0.04577916, "- N/A -   "
32.91, 1261.521, 0.0549464, NaN, NaN, NaN, 0.0445584, "- N/A -   "
32.93, 1262.48, 0.05498524, NaN, NaN, NaN, 0.04211683, "- N/A -   "
32.95, 1263.67, 0.0550269, NaN, NaN, NaN, 0.0384545, "- N/A -   "
32.97, 1264.741, 0.05506577, NaN, NaN, NaN, 0.03601294, "- N/A -   "
32.99, 1265.695, 0.05509909, NaN, NaN, NaN, 0.03601294, "- N/A -   "
33.01, 1266.53, 0.0551352, NaN, NaN, NaN, 0.03601294, "- N/A -   "
33.03, 1267.48, 0.0551685, NaN, NaN, NaN, 0.0347922, "- N/A -   "
33.05, 1268.44, 0.0552074, NaN, NaN, NaN, 0.0323506, "- N/A -   "
33.07, 1269.27, 0.0552407, NaN, NaN, NaN, 0.0323506, "- N/A -   "
33.09, 1270.23, 0.0552768, NaN, NaN, NaN, 0.0323506, "- N/A -   "
33.11, 1271.18, 0.0553073, NaN, NaN, NaN, 0.0323506, "- N/A -   "
33.13, 1271.896, 0.0553407, NaN, NaN, NaN, 0.0335714, "- N/A -   "
33.15, 1272.61, 0.0553712, NaN, NaN, NaN, 0.0335714, "- N/A -   "
33.17, 1273.57, 0.0554045, NaN, NaN, NaN, 0.0347922, "- N/A -   "
33.19, 1274.4, 0.0554351, NaN, NaN, NaN, 0.03601294, "- N/A -   "
33.21, 1275.12, 0.0554684, NaN, NaN, NaN, 0.0347922, "- N/A -   "
33.23, 1275.95, 0.0555017, NaN, NaN, NaN, 0.0347922, "- N/A -   "
33.25, 1277.02, 0.05554059, NaN, NaN, NaN, 0.0335714, "- N/A -   "
33.27, 1277.98, 0.05557669, NaN, NaN, NaN, 0.0323506, "- N/A -   "
33.29, 1279.05, 0.0556128, NaN, NaN, NaN, 0.03112983, "- N/A -   "
33.31, 1279.77, 0.05564333, NaN, NaN, NaN, 0.0323506, "- N/A -   "
33.33, 1280.48, 0.0556711, NaN, NaN, NaN, 0.0335714, "- N/A -   "
33.35, 1281.32, 0.0557016, NaN, NaN, NaN, 0.0347922, "- N/A -   "
33.37, 1282.15, 0.055735, NaN, NaN, NaN, 0.03601294, "- N/A -   "
33.39, 1282.87, 0.0557655, NaN, NaN, NaN, 0.03601294, "- N/A -   "
33.41, 1283.702, 0.0557961, NaN, NaN, NaN, 0.0372337, "- N/A -   "
33.43, 1284.42, 0.0558238, NaN, NaN, NaN, 0.04089605, "- N/A -   "
33.45, 1285.133, 0.0558516, NaN, NaN, NaN, 0.04211683, "- N/A -   "
33.47, 1285.97, 0.05588491, NaN, NaN, NaN, 0.04211683, "- N/A -   "
33.49, 1286.8, 0.05591823, NaN, NaN, NaN, 0.04211683, "- N/A -   "
33.51, 1287.88, 0.0559571, NaN, NaN, NaN, 0.0396753, "- N/A -   "
33.53, 1288.83, 0.05599598, NaN, NaN, NaN, 0.0384545, "- N/A -   "
33.55, 1289.903, 0.0560293, NaN, NaN, NaN, 0.0372337, "- N/A -   "
33.57, 1290.62, 0.0560598, NaN, NaN, NaN, 0.0396753, "- N/A -   "
33.59, 1291.33, 0.05609039, NaN, NaN, NaN, 0.0396753, "- N/A -   "
33.61, 1292.17, 0.0561237, NaN, NaN, NaN, 0.0396753, "- N/A -   "
33.63, 1293.12, 0.0561598, NaN, NaN, NaN, 0.0384545, "- N/A -   "
33.65, 1294.2, 0.0561959, NaN, NaN, NaN, 0.0372337, "- N/A -   "
33.67, 1295.03, 0.0562292, NaN, NaN, NaN, 0.0372337, "- N/A -   "
33.69, 1295.87, 0.0562625, NaN, NaN, NaN, 0.0372337, "- N/A -   "
33.71, 1296.82, 0.0562986, NaN, NaN, NaN, 0.0372337, "- N/A -   "
33.73, 1297.65, 0.056332, NaN, NaN, NaN, 0.0372337, "- N/A -   "
33.75, 1298.61, 0.05636529, NaN, NaN, NaN, 0.03601294, "- N/A -   "
33.77, 1299.324, 0.0563986, NaN, NaN, NaN, 0.03601294, "- N/A -   "
33.79, 1300.16, 0.05643193, NaN, NaN, NaN, 0.03601294, "- N/A -   "
33.81, 1301.23, 0.05646803, NaN, NaN, NaN, 0.0347922, "- N/A -   "
33.83, 1302.31, 0.0565069, NaN, NaN, NaN, 0.0323506, "- N/A -   "
33.85, 1303.26, 0.056543, NaN, NaN, NaN, 0.0323506, "- N/A -   "
33.87, 1303.97, 0.05657632, NaN, NaN, NaN, 0.0323506, "- N/A -   "
33.89, 1304.93, 0.0566069, NaN, NaN, NaN, 0.0323506, "- N/A -   "
33.91, 1305.76, 0.0566402, NaN, NaN, NaN, 0.0323506, "- N/A -   "
33.93, 1306.6, 0.0566763, NaN, NaN, NaN, 0.0323506, "- N/A -   "
33.95, 1307.55, 0.0567068, NaN, NaN, NaN, 0.0323506, "- N/A -   "
33.97, 1308.39, 0.0567401, NaN, NaN, NaN, 0.0323506, "- N/A -   "
33.99, 1309.34, 0.05677347, NaN, NaN, NaN, 0.0323506, "- N/A -   "
34.01, 1310.18, 0.0568096, NaN, NaN, NaN, 0.03112983, "- N/A -   "
34.03, 1311.01, 0.0568457, NaN, NaN, NaN, 0.03112983, "- N/A -   "
34.05, 1311.96, 0.05688176, NaN, NaN, NaN, 0.0299091, "- N/A -   "
34.07, 1312.8, 0.0569123, NaN, NaN, NaN, 0.0299091, "- N/A -   "
34.09, 1313.515, 0.05694285, NaN, NaN, NaN, 0.03112983, "- N/A -   "
34.11, 1314.35, 0.0569706, NaN, NaN, NaN, 0.0335714, "- N/A -   "
34.13, 1314.946, 0.0569984, NaN, NaN, NaN, 0.03601294, "- N/A -   "
34.15, 1315.66, 0.05702615, NaN, NaN, NaN, 0.0384545, "- N/A -   "
34.17, 1316.38, 0.05705392, NaN, NaN, NaN, 0.04089605, "- N/A -   "
34.19, 1317.21, 0.0570872, NaN, NaN, NaN, 0.04089605, "- N/A -   "
34.21, 1318.05, 0.05712056, NaN, NaN, NaN, 0.04211683, "- N/A -   "
34.23, 1319, 0.0571511, NaN, NaN, NaN, 0.04211683, "- N/A -   "
34.25, 1319.84, 0.0571817, NaN, NaN, NaN, 0.0433376, "- N/A -   "
34.27, 1320.55, 0.05721497, NaN, NaN, NaN, 0.0433376, "- N/A -   "
34.29, 1321.39, 0.0572483, NaN, NaN, NaN, 0.0433376, "- N/A -   "
34.31, 1322.34, 0.0572816, NaN, NaN, NaN, 0.0433376, "- N/A -   "
34.33, 1323.17, 0.0573122, NaN, NaN, NaN, 0.0445584, "- N/A -   "
34.35, 1324.01, 0.0573455, NaN, NaN, NaN, 0.0445584, "- N/A -   "
34.37, 1324.844, 0.0573788, NaN, NaN, NaN, 0.0445584, "- N/A -   "
34.39, 1325.92, 0.0574177, NaN, NaN, NaN, 0.04211683, "- N/A -   "
34.41, 1326.99, 0.05745655, NaN, NaN, NaN, 0.0396753, "- N/A -   "
34.43, 1327.94, 0.0574954, NaN, NaN, NaN, 0.0372337, "- N/A -   "
34.45, 1329.02, 0.0575343, NaN, NaN, NaN, 0.0347922, "- N/A -   "
34.47, 1329.97, 0.05756762, NaN, NaN, NaN, 0.0347922, "- N/A -   "
34.49, 1330.81, 0.0576037, NaN, NaN, NaN, 0.0335714, "- N/A -   "
34.51, 1331.76, 0.0576398, NaN, NaN, NaN, 0.0323506, "- N/A -   "
34.53, 1332.83, 0.0576759, NaN, NaN, NaN, 0.0323506, "- N/A -   "
34.55, 1333.67, 0.05771201, NaN, NaN, NaN, 0.0299091, "- N/A -   "
34.57, 1334.74, 0.05774811, NaN, NaN, NaN, 0.0299091, "- N/A -   "
34.59, 1335.58, 0.05778143, NaN, NaN, NaN, 0.0286883, "- N/A -   "
34.61, 1336.53, 0.05781753, NaN, NaN, NaN, 0.0274675, "- N/A -   "
34.63, 1337.48, 0.05785085, NaN, NaN, NaN, 0.0274675, "- N/A -   "
34.65, 1338.2, 0.0578842, NaN, NaN, NaN, 0.0274675, "- N/A -   "
34.67, 1339.154, 0.05791749, NaN, NaN, NaN, 0.0274675, "- N/A -   "
34.69, 1339.87, 0.057948, NaN, NaN, NaN, 0.0286883, "- N/A -   "
34.71, 1340.7, 0.05797858, NaN, NaN, NaN, 0.0299091, "- N/A -   "
34.73, 1341.54, 0.0580119, NaN, NaN, NaN, 0.0299091, "- N/A -   "
34.75, 1342.25, 0.05804522, NaN, NaN, NaN, 0.03112983, "- N/A -   "
34.77, 1343.09, 0.058073, NaN, NaN, NaN, 0.0323506, "- N/A -   "
34.79, 1343.69, 0.0581035, NaN, NaN, NaN, 0.0347922, "- N/A -   "
34.81, 1344.4, 0.0581313, NaN, NaN, NaN, 0.03601294, "- N/A -   "
34.83, 1345.12, 0.0581563, NaN, NaN, NaN, 0.0396753, "- N/A -   "
34.85, 1345.713, 0.05818128, NaN, NaN, NaN, 0.0433376, "- N/A -   "
34.87, 1346.43, 0.05821183, NaN, NaN, NaN, 0.0445584, "- N/A -   "
34.89, 1347.26, 0.05824237, NaN, NaN, NaN, 0.04699994, "- N/A -   "
34.91, 1348.098, 0.0582729, NaN, NaN, NaN, 0.04699994, "- N/A -   "
34.93, 1349.052, 0.05830901, NaN, NaN, NaN, 0.04699994, "- N/A -   "
34.95, 1350.006, 0.0583423, NaN, NaN, NaN, 0.04577916, "- N/A -   "
34.97, 1350.84, 0.0583812, NaN, NaN, NaN, 0.0433376, "- N/A -   "
34.99, 1352.03, 0.0584173, NaN, NaN, NaN, 0.04211683, "- N/A -   "
35.01, 1352.99, 0.0584562, NaN, NaN, NaN, 0.04089605, "- N/A -   "
35.03, 1353.94, 0.05849228, NaN, NaN, NaN, 0.0396753, "- N/A -   "
35.05, 1355.01, 0.0585284, NaN, NaN, NaN, 0.0372337, "- N/A -   "
35.07, 1355.97, 0.0585645, NaN, NaN, NaN, 0.03601294, "- N/A -   "
35.09, 1356.8, 0.05860057, NaN, NaN, NaN, 0.03601294, "- N/A -   "
35.11, 1357.88, 0.05863667, NaN, NaN, NaN, 0.0335714, "- N/A -   "
35.13, 1358.71, 0.0586728, NaN, NaN, NaN, 0.0335714, "- N/A -   "
35.15, 1359.55, 0.05870609, NaN, NaN, NaN, 0.0323506, "- N/A -   "
35.17, 1360.5, 0.0587422, NaN, NaN, NaN, 0.03112983, "- N/A -   "
35.19, 1361.57, 0.0587783, NaN, NaN, NaN, 0.0299091, "- N/A -   "
35.21, 1362.53, 0.0588144, NaN, NaN, NaN, 0.0299091, "- N/A -   "
35.23, 1363.243, 0.0588449, NaN, NaN, NaN, 0.0299091, "- N/A -   "
35.25, 1364.197, 0.0588755, NaN, NaN, NaN, 0.03112983, "- N/A -   "
35.27, 1364.91, 0.0589143, NaN, NaN, NaN, 0.0299091, "- N/A -   "
35.29, 1365.99, 0.0589504, NaN, NaN, NaN, 0.0286883, "- N/A -   "
35.31, 1366.94, 0.05898654, NaN, NaN, NaN, 0.0274675, "- N/A -   "
35.33, 1367.77, 0.05901986, NaN, NaN, NaN, 0.0274675, "- N/A -   "
35.35, 1368.61, 0.0590476, NaN, NaN, NaN, 0.0299091, "- N/A -   "
35.37, 1369.32, 0.05907817, NaN, NaN, NaN, 0.0323506, "- N/A -   "
35.39, 1370.04, 0.05910594, NaN, NaN, NaN, 0.0335714, "- N/A -   "
35.41, 1370.76, 0.0591365, NaN, NaN, NaN, 0.0347922, "- N/A -   "
35.43, 1371.59, 0.0591643, NaN, NaN, NaN, 0.0372337, "- N/A -   "
35.45, 1372.31, 0.05919202, NaN, NaN, NaN, 0.0396753, "- N/A -   "
35.47, 1372.9, 0.05921979, NaN, NaN, NaN, 0.04211683, "- N/A -   "
35.49, 1373.74, 0.05925033, NaN, NaN, NaN, 0.0433376, "- N/A -   "
35.51, 1374.45, 0.05928365, NaN, NaN, NaN, 0.0433376, "- N/A -   "
35.53, 1375.29, 0.05931697, NaN, NaN, NaN, 0.0445584, "- N/A -   "
35.55, 1376.12, 0.0593475, NaN, NaN, NaN, 0.0445584, "- N/A -   "
35.57, 1377.08, 0.05938084, NaN, NaN, NaN, 0.04577916, "- N/A -   "
35.59, 1377.911, 0.05941416, NaN, NaN, NaN, 0.0445584, "- N/A -   "
35.61, 1378.75, 0.0594447, NaN, NaN, NaN, 0.04577916, "- N/A -   "
35.63, 1379.7, 0.0594808, NaN, NaN, NaN, 0.0445584, "- N/A -   "
35.65, 1380.65, 0.0595169, NaN, NaN, NaN, 0.0433376, "- N/A -   "
35.67, 1381.727, 0.05955022, NaN, NaN, NaN, 0.0433376, "- N/A -   "
35.69, 1382.44, 0.0595863, NaN, NaN, NaN, 0.0433376, "- N/A -   "
35.71, 1383.28, 0.05961964, NaN, NaN, NaN, 0.04211683, "- N/A -   "
35.73, 1384.23, 0.05965296, NaN, NaN, NaN, 0.04211683, "- N/A -   "
35.75, 1385.3, 0.05969183, NaN, NaN, NaN, 0.04089605, "- N/A -   "
35.77, 1386.26, 0.05973071, NaN, NaN, NaN, 0.0384545, "- N/A -   "
35.79, 1387.33, 0.05977236, NaN, NaN, NaN, 0.0347922, "- N/A -   "
35.81, 1388.29, 0.05980568, NaN, NaN, NaN, 0.0335714, "- N/A -   "
35.83, 1389.24, 0.0598418, NaN, NaN, NaN, 0.0323506, "- N/A -   "
35.85, 1390.07, 0.0598779, NaN, NaN, NaN, 0.03112983, "- N/A -   "
35.87, 1391.03, 0.0599112, NaN, NaN, NaN, 0.03112983, "- N/A -   "
35.89, 1391.86, 0.0599473, NaN, NaN, NaN, 0.0299091, "- N/A -   "
35.91, 1392.82, 0.0599806, NaN, NaN, NaN, 0.0299091, "- N/A -   "
35.93, 1393.65, 0.06001116, NaN, NaN, NaN, 0.03112983, "- N/A -   "
35.95, 1394.37, 0.0600445, NaN, NaN, NaN, 0.03112983, "- N/A -   "
35.97, 1395.2, 0.060075, NaN, NaN, NaN, 0.0323506, "- N/A -   "
35.99, 1396.16, 0.06010557, NaN, NaN, NaN, 0.0335714, "- N/A -   "
36.01, 1396.87, 0.0601361, NaN, NaN, NaN, 0.0347922, "- N/A -   "
36.03, 1397.59, 0.06016666, NaN, NaN, NaN, 0.03601294, "- N/A -   "
36.05, 1398.42, 0.06019998, NaN, NaN, NaN, 0.0372337, "- N/A -   "
36.07, 1399.26, 0.0602305, NaN, NaN, NaN, 0.0372337, "- N/A -   "
36.09, 1400.211, 0.0602638, NaN, NaN, NaN, 0.0384545, "- N/A -   "
36.11, 1400.93, 0.06029439, NaN, NaN, NaN, 0.0384545, "- N/A -   "
36.13, 1401.88, 0.0603305, NaN, NaN, NaN, 0.0372337, "- N/A -   "
36.15, 1402.6, 0.060361, NaN, NaN, NaN, 0.0384545, "- N/A -   "
36.17, 1403.31, 0.0603888, NaN, NaN, NaN, 0.04089605, "- N/A -   "
36.19, 1404.03, 0.0604193, NaN, NaN, NaN, 0.0433376, "- N/A -   "
36.21, 1404.98, 0.06044989, NaN, NaN, NaN, 0.0433376, "- N/A -   "
36.23, 1405.816, 0.06048321, NaN, NaN, NaN, 0.0433376, "- N/A -   "
36.25, 1406.65, 0.06051653, NaN, NaN, NaN, 0.0433376, "- N/A -   "
36.27, 1407.49, 0.0605526, NaN, NaN, NaN, 0.0433376, "- N/A -   "
36.29, 1408.44, 0.06058595, NaN, NaN, NaN, 0.04211683, "- N/A -   "
36.31, 1409.39, 0.0606165, NaN, NaN, NaN, 0.0433376, "- N/A -   "
36.33, 1410.23, 0.0606554, NaN, NaN, NaN, 0.04211683, "- N/A -   "
36.35, 1411.42, 0.0606942, NaN, NaN, NaN, 0.0384545, "- N/A -   "
36.37, 1412.37, 0.0607331, NaN, NaN, NaN, 0.03601294, "- N/A -   "
36.39, 1413.45, 0.060772, NaN, NaN, NaN, 0.0335714, "- N/A -   "
36.41, 1414.4, 0.0608109, NaN, NaN, NaN, 0.03112983, "- N/A -   "
36.43, 1415.36, 0.060847, NaN, NaN, NaN, 0.0299091, "- N/A -   "
36.45, 1416.31, 0.06088306, NaN, NaN, NaN, 0.0299091, "- N/A -   "
36.47, 1417.14, 0.0609136, NaN, NaN, NaN, 0.0299091, "- N/A -   "
36.49, 1417.86, 0.0609469, NaN, NaN, NaN, 0.03112983, "- N/A -   "
36.51, 1418.58, 0.0609747, NaN, NaN, NaN, 0.0323506, "- N/A -   "
36.527, 1419.29, 0.0609997, NaN, NaN, NaN, 0.0335714, "- N/A -   "