File: 2_Tensile_Data/Hamel_ForceTest_Bolt5_Test10.csv
Time, Load (lb), Position (in), AxialStrain (in), TransverseStrain (in), Auxiliary (), Control Out (V), Stress (psi)
0.0, 7.90248, 0.0, NaN, NaN, NaN, -0.006714277, "- N/A -   "
0.01, 8.020428, 2.776752E-6, NaN, NaN, NaN, -6.103888E-4, "- N/A -   "
0.02, 7.90248, 2.776752E-6, NaN, NaN, NaN, 0.01037661, "- N/A -   "
0.03, 8.020428, 5.553504E-6, NaN, NaN, NaN, 0.0286883, "- N/A -   "
0.04, 8.020428, 1.1107e-05, NaN, NaN, NaN, 0.04577916, "- N/A -   "
0.05, 8.256323, 2.2214e-05, NaN, NaN, NaN, 0.0604285, "- N/A -   "
0.06, 8.492218, 4.16513e-05, NaN, NaN, NaN, 0.07263627, "- N/A -   "
0.07, 8.846061, 6.108854E-5, NaN, NaN, NaN, 0.08362327, "- N/A -   "
0.08, 9.31785, 8.607931E-5, NaN, NaN, NaN, 0.09094793, "- N/A -   "
0.09, 9.78964, 0.000113847, NaN, NaN, NaN, 0.09949338, "- N/A -   "
0.1, 10.26143, 0.000141614, NaN, NaN, NaN, 0.103156, "- N/A -   "
0.11, 10.73322, 0.000174935, NaN, NaN, NaN, 0.095831, "- N/A -   "
0.12, 11.323, 0.00020548, NaN, NaN, NaN, 0.0897272, "- N/A -   "
0.13, 11.6768, 2.360239E-4, NaN, NaN, NaN, 0.084844, "- N/A -   "
0.14, 12.2665, 0.000261015, NaN, NaN, NaN, 0.08118171, "- N/A -   "
0.15, 12.5024, 2.832287E-4, NaN, NaN, NaN, 0.07751938, "- N/A -   "
0.16, 12.8563, 3.054427E-4, NaN, NaN, NaN, 0.0750778, "- N/A -   "
0.17, 13.09217, 0.00032488, NaN, NaN, NaN, 0.07385705, "- N/A -   "
0.18, 13.3281, 0.000344317, NaN, NaN, NaN, 0.07385705, "- N/A -   "
0.19, 13.6819, 3.637545E-4, NaN, NaN, NaN, 0.07263627, "- N/A -   "
0.2, 14.0357, 3.80415E-4, NaN, NaN, NaN, 0.07141549, "- N/A -   "
0.21, 14.3896, 0.000402629, NaN, NaN, NaN, 0.0701947, "- N/A -   "
0.22, 14.7434, 0.000422066, NaN, NaN, NaN, 0.0689739, "- N/A -   "
0.23, 14.9793, 0.000441504, NaN, NaN, NaN, 0.06653238, "- N/A -   "
0.24, 15.2152, 4.609408E-4, NaN, NaN, NaN, 0.0653116, "- N/A -   "
0.25, 15.687, 0.000480378, NaN, NaN, NaN, 0.0640908, "- N/A -   "
0.26, 16.0409, 0.000502592, NaN, NaN, NaN, 0.06287005, "- N/A -   "
0.27, 16.27675, 0.000522029, NaN, NaN, NaN, 0.0604285, "- N/A -   "
0.28, 16.6306, 5.442434E-4, NaN, NaN, NaN, 0.0579869, "- N/A -   "
0.29, 16.86649, 5.636806E-4, NaN, NaN, NaN, 0.05676616, "- N/A -   "
0.3, 17.4562, 5.858946E-4, NaN, NaN, NaN, 0.0543246, "- N/A -   "
0.31, 17.6921, 0.000608109, NaN, NaN, NaN, 0.05188305, "- N/A -   "
0.32, 18.046, 0.000630323, NaN, NaN, NaN, 0.05066227, "- N/A -   "
0.33, 18.3998, 6.497599E-4, NaN, NaN, NaN, 0.0494415, "- N/A -   "
0.34, 18.6357, 6.691972E-4, NaN, NaN, NaN, 0.0482207, "- N/A -   "
0.35, 18.9895, 0.000688634, NaN, NaN, NaN, 0.04699994, "- N/A -   "
0.36, 19.3434, 7.080717E-4, NaN, NaN, NaN, 0.0445584, "- N/A -   "
0.37, 19.57928, 7.27509E-4, NaN, NaN, NaN, 0.0433376, "- N/A -   "
0.38, 19.9331, 0.000746946, NaN, NaN, NaN, 0.04211683, "- N/A -   "
0.39, 20.169, 0.000763607, NaN, NaN, NaN, 0.04211683, "- N/A -   "
0.4, 20.52286, 0.000783044, NaN, NaN, NaN, 0.04089605, "- N/A -   "
0.41, 20.8767, 7.997045E-4, NaN, NaN, NaN, 0.04089605, "- N/A -   "
0.42, 21.1126, 0.000821919, NaN, NaN, NaN, 0.0396753, "- N/A -   "
0.43, 21.46644, 8.38579E-4, NaN, NaN, NaN, 0.0396753, "- N/A -   "
0.44, 21.7023, 8.524628E-4, NaN, NaN, NaN, 0.0396753, "- N/A -   "
0.45, 22.0562, 8.691233E-4, NaN, NaN, NaN, 0.0396753, "- N/A -   "
0.46, 22.29207, 8.885606E-4, NaN, NaN, NaN, 0.0396753, "- N/A -   "
0.47, 22.528, 9.052211E-4, NaN, NaN, NaN, 0.0384545, "- N/A -   "
0.48, 22.9998, 9.274351E-4, NaN, NaN, NaN, 0.0372337, "- N/A -   "
0.5, 23.4715, 0.000960756, NaN, NaN, NaN, 0.03601294, "- N/A -   "
0.52, 24.1792, 9.996307E-4, NaN, NaN, NaN, 0.0335714, "- N/A -   "
0.54, 24.8869, 0.00103851, NaN, NaN, NaN, 0.0323506, "- N/A -   "
0.56, 25.4767, 0.001074603, NaN, NaN, NaN, 0.03112983, "- N/A -   "
0.58, 26.0664, 0.00110792, NaN, NaN, NaN, 0.0299091, "- N/A -   "
0.6, 26.6561, 0.00113847, NaN, NaN, NaN, 0.03112983, "- N/A -   "
0.62, 27.1279, 0.00117179, NaN, NaN, NaN, 0.03112983, "- N/A -   "
0.64, 27.7177, 0.00120789, NaN, NaN, NaN, 0.03112983, "- N/A -   "
0.66, 28.42534, 0.001241208, NaN, NaN, NaN, 0.03112983, "- N/A -   "
0.68, 28.89713, 0.00126898, NaN, NaN, NaN, 0.0323506, "- N/A -   "
0.7, 29.251, 0.001296743, NaN, NaN, NaN, 0.0347922, "- N/A -   "
0.72, 29.84071, 0.00132729, NaN, NaN, NaN, 0.03601294, "- N/A -   "
0.74, 30.3125, 0.00135783, NaN, NaN, NaN, 0.0372337, "- N/A -   "
0.76, 30.9022, 0.00138838, NaN, NaN, NaN, 0.0396753, "- N/A -   "
0.78, 31.374, 0.00141614, NaN, NaN, NaN, 0.04089605, "- N/A -   "
0.8, 31.8458, 0.00144669, NaN, NaN, NaN, 0.04211683, "- N/A -   "
0.82, 32.5535, 0.001477232, NaN, NaN, NaN, 0.0445584, "- N/A -   "
0.84, 33.1432, 0.001510553, NaN, NaN, NaN, 0.0445584, "- N/A -   "
0.86, 33.73298, 0.001543874, NaN, NaN, NaN, 0.0433376, "- N/A -   "
0.88, 34.4407, 0.00158275, NaN, NaN, NaN, 0.04089605, "- N/A -   "
0.9, 35.0304, 0.00161607, NaN, NaN, NaN, 0.04089605, "- N/A -   "
0.92, 35.6201, 0.00164661, NaN, NaN, NaN, 0.04211683, "- N/A -   "
0.94, 36.2099, 0.001677158, NaN, NaN, NaN, 0.0433376, "- N/A -   "
0.96, 36.6817, 0.0017077, NaN, NaN, NaN, 0.0445584, "- N/A -   "
0.98, 37.3893, 0.0017438, NaN, NaN, NaN, 0.0445584, "- N/A -   "
1, 37.9791, 0.001779898, NaN, NaN, NaN, 0.0433376, "- N/A -   "
1.02, 38.68677, 0.001816, NaN, NaN, NaN, 0.04089605, "- N/A -   "
1.04, 39.3945, 0.00185487, NaN, NaN, NaN, 0.0396753, "- N/A -   "
1.06, 40.22009, 0.00189374, NaN, NaN, NaN, 0.03601294, "- N/A -   "
1.08, 41.04572, 0.00193817, NaN, NaN, NaN, 0.0323506, "- N/A -   "
1.1, 41.8714, 0.00197982, NaN, NaN, NaN, 0.0286883, "- N/A -   "
1.12, 42.579, 0.00201592, NaN, NaN, NaN, 0.0262467, "- N/A -   "
1.14, 43.0508, 0.00204924, NaN, NaN, NaN, 0.0274675, "- N/A -   "
1.16, 43.75851, 0.00207701, NaN, NaN, NaN, 0.0286883, "- N/A -   "
1.18, 44.2303, 0.00211033, NaN, NaN, NaN, 0.0286883, "- N/A -   "
1.2, 44.93799, 0.00214643, NaN, NaN, NaN, 0.0286883, "- N/A -   "
1.22, 45.5277, 0.00217697, NaN, NaN, NaN, 0.0286883, "- N/A -   "
1.24, 46.11746, 0.002204741, NaN, NaN, NaN, 0.03112983, "- N/A -   "
1.26, 46.7072, 0.00223529, NaN, NaN, NaN, 0.0323506, "- N/A -   "
1.28, 47.179, 0.00226583, NaN, NaN, NaN, 0.0335714, "- N/A -   "
1.3, 47.8867, 0.00229637, NaN, NaN, NaN, 0.03601294, "- N/A -   "
1.32, 48.3585, 0.00232414, NaN, NaN, NaN, 0.0372337, "- N/A -   "
1.34, 48.7123, 0.00235191, NaN, NaN, NaN, 0.0396753, "- N/A -   "
1.36, 49.5379, 0.002382453, NaN, NaN, NaN, 0.04089605, "- N/A -   "
1.38, 50.2456, 0.00241855, NaN, NaN, NaN, 0.0396753, "- N/A -   "
1.4, 50.9533, 0.00245743, NaN, NaN, NaN, 0.0384545, "- N/A -   "
1.42, 51.66099, 0.002493523, NaN, NaN, NaN, 0.03601294, "- N/A -   "
1.44, 52.36868, 0.00252684, NaN, NaN, NaN, 0.03601294, "- N/A -   "
1.46, 52.9584, 0.00255739, NaN, NaN, NaN, 0.0372337, "- N/A -   "
1.48, 53.4302, 0.00259071, NaN, NaN, NaN, 0.0384545, "- N/A -   "
1.5, 54.13789, 0.00261848, NaN, NaN, NaN, 0.0396753, "- N/A -   "
1.52, 54.7276, 0.00264624, NaN, NaN, NaN, 0.04211683, "- N/A -   "
1.54, 55.3174, 0.00267679, NaN, NaN, NaN, 0.0433376, "- N/A -   "
1.56, 55.7892, 0.00271011, NaN, NaN, NaN, 0.0445584, "- N/A -   "
1.58, 56.4968, 0.00273788, NaN, NaN, NaN, 0.04577916, "- N/A -   "
1.6, 57.20452, 0.00277398, NaN, NaN, NaN, 0.04577916, "- N/A -   "
1.62, 57.91221, 0.00281007, NaN, NaN, NaN, 0.0445584, "- N/A -   "
1.64, 58.6199, 0.002843394, NaN, NaN, NaN, 0.0433376, "- N/A -   "
1.66, 59.3276, 0.00288227, NaN, NaN, NaN, 0.04089605, "- N/A -   "
1.68, 60.27116, 0.00292392, NaN, NaN, NaN, 0.0384545, "- N/A -   "
1.7, 61.09679, 0.00296279, NaN, NaN, NaN, 0.0347922, "- N/A -   "
1.72, 61.8045, 0.002998892, NaN, NaN, NaN, 0.0335714, "- N/A -   "
1.74, 62.5122, 0.00303499, NaN, NaN, NaN, 0.0335714, "- N/A -   "
1.76, 63.1019, 0.003068311, NaN, NaN, NaN, 0.0323506, "- N/A -   "
1.78, 63.80958, 0.003101632, NaN, NaN, NaN, 0.0323506, "- N/A -   "
1.8, 64.3993, 0.00313495, NaN, NaN, NaN, 0.0335714, "- N/A -   "
1.82, 64.98906, 0.003165497, NaN, NaN, NaN, 0.0335714, "- N/A -   "
1.84, 65.69674, 0.00319604, NaN, NaN, NaN, 0.0347922, "- N/A -   "
1.86, 66.2865, 0.00322936, NaN, NaN, NaN, 0.03601294, "- N/A -   "
1.88, 66.99416, 0.00325991, NaN, NaN, NaN, 0.03601294, "- N/A -   "
1.9, 67.5839, 0.00329323, NaN, NaN, NaN, 0.03601294, "- N/A -   "
1.92, 68.29159, 0.00332655, NaN, NaN, NaN, 0.03601294, "- N/A -   "
1.94, 68.9993, 0.00335987, NaN, NaN, NaN, 0.03601294, "- N/A -   "
1.96, 69.589, 0.00339597, NaN, NaN, NaN, 0.03601294, "- N/A -   "
1.98, 70.41464, 0.00342929, NaN, NaN, NaN, 0.0347922, "- N/A -   "
2, 71.24027, 0.00346539, NaN, NaN, NaN, 0.0335714, "- N/A -   "
2.02, 71.94796, 0.00349871, NaN, NaN, NaN, 0.0335714, "- N/A -   "
2.04, 72.5377, 0.00353203, NaN, NaN, NaN, 0.0335714, "- N/A -   "
2.06, 73.2454, 0.00356535, NaN, NaN, NaN, 0.0335714, "- N/A -   "
2.08, 73.83511, 0.00359589, NaN, NaN, NaN, 0.0347922, "- N/A -   "
2.1, 74.5428, 0.00362921, NaN, NaN, NaN, 0.0347922, "- N/A -   "
2.12, 75.13254, 0.003659759, NaN, NaN, NaN, 0.03601294, "- N/A -   "
2.14, 75.6043, 0.00368753, NaN, NaN, NaN, 0.0384545, "- N/A -   "
2.16, 76.19407, 0.003715294, NaN, NaN, NaN, 0.04089605, "- N/A -   "
2.18, 77.0197, 0.003748615, NaN, NaN, NaN, 0.04089605, "- N/A -   "
2.2, 77.72738, 0.003781936, NaN, NaN, NaN, 0.04211683, "- N/A -   "
2.22, 78.31712, 0.003815257, NaN, NaN, NaN, 0.04089605, "- N/A -   "
2.24, 79.14275, 0.00385135, NaN, NaN, NaN, 0.0396753, "- N/A -   "
2.26, 79.96838, 0.00388745, NaN, NaN, NaN, 0.0384545, "- N/A -   "
2.28, 80.55813, 0.00392355, NaN, NaN, NaN, 0.0384545, "- N/A -   "
2.3, 81.38376, 0.00395409, NaN, NaN, NaN, 0.0384545, "- N/A -   "
2.32, 81.97349, 0.00398742, NaN, NaN, NaN, 0.0384545, "- N/A -   "
2.34, 82.68118, 0.00402074, NaN, NaN, NaN, 0.0384545, "- N/A -   "
2.36, 83.38886, 0.00405406, NaN, NaN, NaN, 0.0384545, "- N/A -   "
2.38, 84.21449, 0.004092932, NaN, NaN, NaN, 0.0372337, "- N/A -   "
2.4, 84.80424, 0.004123477, NaN, NaN, NaN, 0.0372337, "- N/A -   "
2.42, 85.51192, 0.0041568, NaN, NaN, NaN, 0.0384545, "- N/A -   "
2.44, 86.33755, 0.00419012, NaN, NaN, NaN, 0.0384545, "- N/A -   "
2.46, 86.92729, 0.00422344, NaN, NaN, NaN, 0.0372337, "- N/A -   "
2.48, 87.75292, 0.00425954, NaN, NaN, NaN, 0.03601294, "- N/A -   "
2.5, 88.4606, 0.004295635, NaN, NaN, NaN, 0.0347922, "- N/A -   "
2.52, 89.16828, 0.00432896, NaN, NaN, NaN, 0.0347922, "- N/A -   "
2.54, 89.99392, 0.004365054, NaN, NaN, NaN, 0.0347922, "- N/A -   "
2.56, 90.58366, 0.00440115, NaN, NaN, NaN, 0.0335714, "- N/A -   "
2.58, 91.40929, 0.00443725, NaN, NaN, NaN, 0.0323506, "- N/A -   "
2.6, 92.23492, 0.00447057, NaN, NaN, NaN, 0.03112983, "- N/A -   "
2.62, 92.94261, 0.00450667, NaN, NaN, NaN, 0.03112983, "- N/A -   "
2.64, 93.53234, 0.00453721, NaN, NaN, NaN, 0.03112983, "- N/A -   "
2.66, 94.24, 0.00457331, NaN, NaN, NaN, 0.03112983, "- N/A -   "
2.68, 95.06567, 0.00460385, NaN, NaN, NaN, 0.03112983, "- N/A -   "
2.7, 95.7733, 0.004634399, NaN, NaN, NaN, 0.0323506, "- N/A -   "
2.72, 96.36309, 0.004664943, NaN, NaN, NaN, 0.0347922, "- N/A -   "
2.74, 97.07077, 0.00469549, NaN, NaN, NaN, 0.0347922, "- N/A -   "
2.76, 97.8964, 0.004734362, NaN, NaN, NaN, 0.0335714, "- N/A -   "
2.78, 98.60408, 0.004767683, NaN, NaN, NaN, 0.0323506, "- N/A -   "
2.8, 99.1938, 0.004801004, NaN, NaN, NaN, 0.0323506, "- N/A -   "
2.82, 99.9015, 0.004834325, NaN, NaN, NaN, 0.0323506, "- N/A -   "
2.84, 100.6092, 0.004864869, NaN, NaN, NaN, 0.0335714, "- N/A -   "
2.86, 101.199, 0.004892637, NaN, NaN, NaN, 0.03601294, "- N/A -   "
2.88, 101.789, 0.004920405, NaN, NaN, NaN, 0.0384545, "- N/A -   "
2.9, 102.3784, 0.004950949, NaN, NaN, NaN, 0.0396753, "- N/A -   "
2.92, 103.086, 0.004981493, NaN, NaN, NaN, 0.04089605, "- N/A -   "
2.94, 103.794, 0.005012037, NaN, NaN, NaN, 0.04211683, "- N/A -   "
2.96, 104.501, 0.00504258, NaN, NaN, NaN, 0.0433376, "- N/A -   "
2.98, 105.091, 0.00507313, NaN, NaN, NaN, 0.0445584, "- N/A -   "
3, 105.799, 0.005106447, NaN, NaN, NaN, 0.0445584, "- N/A -   "
3.02, 106.507, 0.00513977, NaN, NaN, NaN, 0.0445584, "- N/A -   "
3.04, 107.214, 0.00517587, NaN, NaN, NaN, 0.0445584, "- N/A -   "
3.06, 108.04, 0.005209187, NaN, NaN, NaN, 0.0433376, "- N/A -   "
3.08, 108.866, 0.00524806, NaN, NaN, NaN, 0.04089605, "- N/A -   "
3.1, 109.691, 0.005289712, NaN, NaN, NaN, 0.0384545, "- N/A -   "
3.12, 110.517, 0.00532581, NaN, NaN, NaN, 0.0372337, "- N/A -   "
3.14, 111.342, 0.00536191, NaN, NaN, NaN, 0.03601294, "- N/A -   "
3.16, 112.0501, 0.005395229, NaN, NaN, NaN, 0.0347922, "- N/A -   "
3.18, 112.876, 0.005431327, NaN, NaN, NaN, 0.0335714, "- N/A -   "
3.2, 113.583, 0.005461871, NaN, NaN, NaN, 0.0347922, "- N/A -   "
3.22, 114.173, 0.00549519, NaN, NaN, NaN, 0.03601294, "- N/A -   "
3.24, 114.999, 0.00552851, NaN, NaN, NaN, 0.0347922, "- N/A -   "
3.26, 115.706, 0.00556183, NaN, NaN, NaN, 0.03601294, "- N/A -   "
3.28, 116.414, 0.005592378, NaN, NaN, NaN, 0.03601294, "- N/A -   "
3.3, 117.122, 0.0056257, NaN, NaN, NaN, 0.03601294, "- N/A -   "
3.32, 117.712, 0.0056618, NaN, NaN, NaN, 0.03601294, "- N/A -   "
3.34, 118.655, 0.0056979, NaN, NaN, NaN, 0.0335714, "- N/A -   "
3.36, 119.481, 0.00573677, NaN, NaN, NaN, 0.0323506, "- N/A -   "
3.38, 120.188, 0.00577287, NaN, NaN, NaN, 0.03112983, "- N/A -   "
3.4, 121.014, 0.005806188, NaN, NaN, NaN, 0.03112983, "- N/A -   "
3.42, 121.722, 0.005836732, NaN, NaN, NaN, 0.03112983, "- N/A -   "
3.44, 122.312, 0.00586728, NaN, NaN, NaN, 0.0323506, "- N/A -   "
3.46, 122.901, 0.00589782, NaN, NaN, NaN, 0.0335714, "- N/A -   "
3.48, 123.7269, 0.005931142, NaN, NaN, NaN, 0.0335714, "- N/A -   "
3.5, 124.435, 0.00596446, NaN, NaN, NaN, 0.0335714, "- N/A -   "
3.52, 125.142, 0.00599223, NaN, NaN, NaN, 0.03601294, "- N/A -   "
3.54, 125.614, 0.006019998, NaN, NaN, NaN, 0.0384545, "- N/A -   "
3.56, 126.322, 0.006050542, NaN, NaN, NaN, 0.0396753, "- N/A -   "
3.58, 126.911, 0.00607831, NaN, NaN, NaN, 0.04211683, "- N/A -   "
3.6, 127.619, 0.006108854, NaN, NaN, NaN, 0.0433376, "- N/A -   "
3.62, 128.209, 0.006139398, NaN, NaN, NaN, 0.04577916, "- N/A -   "
3.64, 128.799, 0.00617272, NaN, NaN, NaN, 0.04699994, "- N/A -   "
3.66, 129.506, 0.00620604, NaN, NaN, NaN, 0.04699994, "- N/A -   "
3.68, 130.4499, 0.006242138, NaN, NaN, NaN, 0.04577916, "- N/A -   "
3.7, 131.276, 0.006278236, NaN, NaN, NaN, 0.0433376, "- N/A -   "
3.72, 132.219, 0.00631711, NaN, NaN, NaN, 0.04211683, "- N/A -   "
3.74, 132.9268, 0.00635321, NaN, NaN, NaN, 0.0396753, "- N/A -   "
3.76, 133.752, 0.006389306, NaN, NaN, NaN, 0.0396753, "- N/A -   "
3.78, 134.578, 0.006425404, NaN, NaN, NaN, 0.0384545, "- N/A -   "
3.8, 135.286, 0.00645872, NaN, NaN, NaN, 0.0372337, "- N/A -   "
3.82, 136.111, 0.0064976, NaN, NaN, NaN, 0.03601294, "- N/A -   "
3.84, 136.937, 0.006533697, NaN, NaN, NaN, 0.0347922, "- N/A -   "
3.86, 137.6447, 0.00656979, NaN, NaN, NaN, 0.0335714, "- N/A -   "
3.88, 138.47, 0.006603116, NaN, NaN, NaN, 0.0323506, "- N/A -   "
3.9, 139.296, 0.006639214, NaN, NaN, NaN, 0.03112983, "- N/A -   "
3.92, 140.24, 0.006678088, NaN, NaN, NaN, 0.0286883, "- N/A -   "
3.94, 140.947, 0.006714186, NaN, NaN, NaN, 0.0274675, "- N/A -   "
3.96, 141.6549, 0.00674751, NaN, NaN, NaN, 0.0274675, "- N/A -   "
3.98, 142.3626, 0.00678083, NaN, NaN, NaN, 0.0274675, "- N/A -   "
4, 143.07, 0.006816926, NaN, NaN, NaN, 0.0262467, "- N/A -   "
4.02, 143.778, 0.00684747, NaN, NaN, NaN, 0.0274675, "- N/A -   "
4.04, 144.368, 0.006878014, NaN, NaN, NaN, 0.0286883, "- N/A -   "
4.06, 145.0754, 0.00690856, NaN, NaN, NaN, 0.0299091, "- N/A -   "
4.08, 145.783, 0.006936326, NaN, NaN, NaN, 0.0323506, "- N/A -   "
4.1, 146.3728, 0.00696687, NaN, NaN, NaN, 0.0335714, "- N/A -   "
4.12, 146.963, 0.006994638, NaN, NaN, NaN, 0.03601294, "- N/A -   "
4.14, 147.552, 0.00702518, NaN, NaN, NaN, 0.0384545, "- N/A -   "
4.16, 148.26, 0.00705573, NaN, NaN, NaN, 0.0384545, "- N/A -   "
4.18, 148.968, 0.00708627, NaN, NaN, NaN, 0.0396753, "- N/A -   "
4.2, 149.439, 0.00711404, NaN, NaN, NaN, 0.04211683, "- N/A -   "
4.22, 150.029, 0.007141806, NaN, NaN, NaN, 0.0445584, "- N/A -   "
4.24, 150.855, 0.00717513, NaN, NaN, NaN, 0.0445584, "- N/A -   "
4.26, 151.5625, 0.00721122, NaN, NaN, NaN, 0.0445584, "- N/A -   "
4.28, 152.388, 0.007244546, NaN, NaN, NaN, 0.0445584, "- N/A -   "
4.3, 153.214, 0.00727509, NaN, NaN, NaN, 0.04577916, "- N/A -   "
4.32, 153.686, 0.007308411, NaN, NaN, NaN, 0.0445584, "- N/A -   "
4.34, 154.511, 0.007338955, NaN, NaN, NaN, 0.04577916, "- N/A -   "
4.36, 155.219, 0.00737228, NaN, NaN, NaN, 0.04699994, "- N/A -   "
4.38, 155.927, 0.00740837, NaN, NaN, NaN, 0.04577916, "- N/A -   "
4.4, 156.87, 0.00744447, NaN, NaN, NaN, 0.0445584, "- N/A -   "
4.42, 157.578, 0.007480569, NaN, NaN, NaN, 0.04211683, "- N/A -   "
4.44, 158.521, 0.00751944, NaN, NaN, NaN, 0.04089605, "- N/A -   "
4.46, 159.229, 0.00755554, NaN, NaN, NaN, 0.0384545, "- N/A -   "
4.48, 160.173, 0.007594417, NaN, NaN, NaN, 0.03601294, "- N/A -   "
4.5, 161.116, 0.007636067, NaN, NaN, NaN, 0.0323506, "- N/A -   "
4.52, 161.942, 0.00767494, NaN, NaN, NaN, 0.0299091, "- N/A -   "
4.54, 162.65, 0.00771104, NaN, NaN, NaN, 0.0286883, "- N/A -   "
4.56, 163.357, 0.00774436, NaN, NaN, NaN, 0.0286883, "- N/A -   "
4.58, 164.065, 0.00777768, NaN, NaN, NaN, 0.0286883, "- N/A -   "
4.6, 164.773, 0.007811003, NaN, NaN, NaN, 0.0286883, "- N/A -   "
4.62, 165.362, 0.007841547, NaN, NaN, NaN, 0.0299091, "- N/A -   "
4.64, 166.07, 0.007872092, NaN, NaN, NaN, 0.03112983, "- N/A -   "
4.66, 166.778, 0.007902635, NaN, NaN, NaN, 0.0323506, "- N/A -   "
4.68, 167.367, 0.007933181, NaN, NaN, NaN, 0.0347922, "- N/A -   "
4.7, 168.075, 0.007963724, NaN, NaN, NaN, 0.0347922, "- N/A -   "
4.72, 168.665, 0.007994269, NaN, NaN, NaN, 0.03601294, "- N/A -   "
4.74, 169.255, 0.008024813, NaN, NaN, NaN, 0.0372337, "- N/A -   "
4.76, 170.08, 0.008052581, NaN, NaN, NaN, 0.0396753, "- N/A -   "
4.78, 170.788, 0.008085901, NaN, NaN, NaN, 0.0396753, "- N/A -   "
4.8, 171.378, 0.00811645, NaN, NaN, NaN, 0.04089605, "- N/A -   "
4.82, 172.085, 0.008152544, NaN, NaN, NaN, 0.04089605, "- N/A -   "
4.84, 173.029, 0.008185865, NaN, NaN, NaN, 0.0396753, "- N/A -   "
4.86, 173.619, 0.008219185, NaN, NaN, NaN, 0.0396753, "- N/A -   "
4.88, 174.4443, 0.008252507, NaN, NaN, NaN, 0.0396753, "- N/A -   "
4.9, 175.152, 0.008285827, NaN, NaN, NaN, 0.0396753, "- N/A -   "
4.92, 175.742, 0.008316372, NaN, NaN, NaN, 0.04089605, "- N/A -   "
4.94, 176.449, 0.008346915, NaN, NaN, NaN, 0.0433376, "- N/A -   "
4.96, 177.039, 0.008380237, NaN, NaN, NaN, 0.0433376, "- N/A -   "
4.98, 177.747, 0.008410782, NaN, NaN, NaN, 0.0433376, "- N/A -   "
5, 178.219, 0.008441325, NaN, NaN, NaN, 0.0445584, "- N/A -   "
5.02, 179.044, 0.008474647, NaN, NaN, NaN, 0.0445584, "- N/A -   "
5.04, 179.988, 0.008510745, NaN, NaN, NaN, 0.0445584, "- N/A -   "
5.06, 180.578, 0.00854962, NaN, NaN, NaN, 0.04089605, "- N/A -   "
5.08, 181.639, 0.008588494, NaN, NaN, NaN, 0.0384545, "- N/A -   "
5.1, 182.3468, 0.008624592, NaN, NaN, NaN, 0.0372337, "- N/A -   "
5.12, 183.408, 0.008663465, NaN, NaN, NaN, 0.03601294, "- N/A -   "
5.14, 184.116, 0.00870234, NaN, NaN, NaN, 0.0335714, "- N/A -   "
5.16, 185.06, 0.008738438, NaN, NaN, NaN, 0.03112983, "- N/A -   "
5.18, 185.767, 0.008774536, NaN, NaN, NaN, 0.0299091, "- N/A -   "
5.2, 186.475, 0.008810634, NaN, NaN, NaN, 0.0299091, "- N/A -   "
5.22, 187.301, 0.008843956, NaN, NaN, NaN, 0.0286883, "- N/A -   "
5.24, 187.772, 0.00887728, NaN, NaN, NaN, 0.0299091, "- N/A -   "
5.26, 188.598, 0.00890782, NaN, NaN, NaN, 0.0299091, "- N/A -   "
5.28, 189.188, 0.008938364, NaN, NaN, NaN, 0.03112983, "- N/A -   "
5.3, 189.895, 0.008968908, NaN, NaN, NaN, 0.0323506, "- N/A -   "
5.32, 190.367, 0.008999453, NaN, NaN, NaN, 0.0347922, "- N/A -   "
5.34, 191.193, 0.00903, NaN, NaN, NaN, 0.0347922, "- N/A -   "
5.36, 191.901, 0.009060541, NaN, NaN, NaN, 0.03601294, "- N/A -   "
5.38, 192.608, 0.009096639, NaN, NaN, NaN, 0.0347922, "- N/A -   "
5.4, 193.5518, 0.009132737, NaN, NaN, NaN, 0.0335714, "- N/A -   "
5.42, 194.259, 0.009171612, NaN, NaN, NaN, 0.0323506, "- N/A -   "
5.44, 194.967, 0.009202156, NaN, NaN, NaN, 0.0323506, "- N/A -   "
5.46, 195.675, 0.009235476, NaN, NaN, NaN, 0.0323506, "- N/A -   "
5.48, 196.383, 0.009266022, NaN, NaN, NaN, 0.0335714, "- N/A -   "
5.5, 196.854, 0.009293788, NaN, NaN, NaN, 0.0372337, "- N/A -   "
5.52, 197.444, 0.009321556, NaN, NaN, NaN, 0.0384545, "- N/A -   "
5.54, 198.152, 0.009354877, NaN, NaN, NaN, 0.0396753, "- N/A -   "
5.56, 198.741, 0.009385422, NaN, NaN, NaN, 0.0396753, "- N/A -   "
5.58, 199.449, 0.009413188, NaN, NaN, NaN, 0.04211683, "- N/A -   "
5.6, 200.157, 0.00944651, NaN, NaN, NaN, 0.04211683, "- N/A -   "
5.62, 200.865, 0.00947983, NaN, NaN, NaN, 0.04211683, "- N/A -   "
5.64, 201.572, 0.009513152, NaN, NaN, NaN, 0.04211683, "- N/A -   "
5.66, 202.398, 0.00954925, NaN, NaN, NaN, 0.04089605, "- N/A -   "
5.68, 203.106, 0.009585348, NaN, NaN, NaN, 0.0396753, "- N/A -   "
5.7, 203.813, 0.009615892, NaN, NaN, NaN, 0.04089605, "- N/A -   "
5.72, 204.521, 0.009646436, NaN, NaN, NaN, 0.04211683, "- N/A -   "
5.74, 205.2286, 0.009682534, NaN, NaN, NaN, 0.04089605, "- N/A -   "
5.76, 206.054, 0.00971863, NaN, NaN, NaN, 0.0396753, "- N/A -   "
5.78, 206.88, 0.00975473, NaN, NaN, NaN, 0.0384545, "- N/A -   "
5.8, 207.705, 0.009790827, NaN, NaN, NaN, 0.0384545, "- N/A -   "
5.82, 208.4132, 0.009826925, NaN, NaN, NaN, 0.0372337, "- N/A -   "
5.84, 209.121, 0.009860246, NaN, NaN, NaN, 0.03601294, "- N/A -   "
5.86, 209.829, 0.009893566, NaN, NaN, NaN, 0.03601294, "- N/A -   "
5.88, 210.536, 0.009926888, NaN, NaN, NaN, 0.03601294, "- N/A -   "
5.9, 211.244, 0.009960209, NaN, NaN, NaN, 0.03601294, "- N/A -   "
5.92, 212.07, 0.009996306, NaN, NaN, NaN, 0.0347922, "- N/A -   "
5.94, 212.777, 0.0100296, NaN, NaN, NaN, 0.0347922, "- N/A -   "
5.96, 213.485, 0.0100629, NaN, NaN, NaN, 0.0347922, "- N/A -   "
5.98, 214.1926, 0.010099, NaN, NaN, NaN, 0.0335714, "- N/A -   "
6, 215.136, 0.0101351, NaN, NaN, NaN, 0.0335714, "- N/A -   "
6.02, 215.844, 0.0101685, NaN, NaN, NaN, 0.0323506, "- N/A -   "
6.04, 216.434, 0.010199, NaN, NaN, NaN, 0.0335714, "- N/A -   "
6.06, 217.141, 0.01023233, NaN, NaN, NaN, 0.0347922, "- N/A -   "
6.08, 217.849, 0.0102657, NaN, NaN, NaN, 0.0347922, "- N/A -   "
6.1, 218.4387, 0.010299, NaN, NaN, NaN, 0.0335714, "- N/A -   "
6.12, 219.1464, 0.0103295, NaN, NaN, NaN, 0.0347922, "- N/A -   "
6.14, 219.8541, 0.0103601, NaN, NaN, NaN, 0.03601294, "- N/A -   "
6.16, 220.444, 0.0103962, NaN, NaN, NaN, 0.03601294, "- N/A -   "
6.18, 221.269, 0.0104323, NaN, NaN, NaN, 0.0347922, "- N/A -   "
6.2, 222.095, 0.0104656, NaN, NaN, NaN, 0.0347922, "- N/A -   "
6.22, 222.803, 0.0104989, NaN, NaN, NaN, 0.0335714, "- N/A -   "
6.24, 223.3925, 0.0105322, NaN, NaN, NaN, 0.0335714, "- N/A -   "
6.26, 224.1002, 0.0105628, NaN, NaN, NaN, 0.0347922, "- N/A -   "
6.28, 224.69, 0.0105905, NaN, NaN, NaN, 0.0372337, "- N/A -   "
6.3, 225.398, 0.0106211, NaN, NaN, NaN, 0.0384545, "- N/A -   "
6.32, 225.987, 0.0106544, NaN, NaN, NaN, 0.0384545, "- N/A -   "
6.34, 226.695, 0.0106849, NaN, NaN, NaN, 0.0396753, "- N/A -   "
6.36, 227.285, 0.0107155, NaN, NaN, NaN, 0.04089605, "- N/A -   "
6.38, 227.992, 0.010746, NaN, NaN, NaN, 0.0433376, "- N/A -   "
6.4, 228.5822, 0.0107738, NaN, NaN, NaN, 0.0445584, "- N/A -   "
6.42, 229.29, 0.0108043, NaN, NaN, NaN, 0.04577916, "- N/A -   "
6.44, 229.998, 0.0108404, NaN, NaN, NaN, 0.04577916, "- N/A -   "
6.46, 230.941, 0.0108793, NaN, NaN, NaN, 0.04211683, "- N/A -   "
6.48, 231.767, 0.0109154, NaN, NaN, NaN, 0.04089605, "- N/A -   "
6.5, 232.592, 0.0109543, NaN, NaN, NaN, 0.0396753, "- N/A -   "
6.52, 233.3001, 0.0109904, NaN, NaN, NaN, 0.0372337, "- N/A -   "
6.54, 234.126, 0.0110293, NaN, NaN, NaN, 0.0347922, "- N/A -   "
6.56, 234.951, 0.0110654, NaN, NaN, NaN, 0.0335714, "- N/A -   "
6.58, 235.777, 0.0111042, NaN, NaN, NaN, 0.0323506, "- N/A -   "
6.6, 236.367, 0.0111348, NaN, NaN, NaN, 0.0323506, "- N/A -   "
6.62, 237.192, 0.0111681, NaN, NaN, NaN, 0.0323506, "- N/A -   "
6.64, 237.9, 0.0112014, NaN, NaN, NaN, 0.0323506, "- N/A -   "
6.66, 238.608, 0.0112347, NaN, NaN, NaN, 0.0323506, "- N/A -   "
6.68, 239.315, 0.0112681, NaN, NaN, NaN, 0.0323506, "- N/A -   "
6.7, 239.905, 0.01130138, NaN, NaN, NaN, 0.0323506, "- N/A -   "
6.72, 240.849, 0.0113347, NaN, NaN, NaN, 0.0323506, "- N/A -   "
6.74, 241.438, 0.0113708, NaN, NaN, NaN, 0.03112983, "- N/A -   "
6.76, 242.2641, 0.0114069, NaN, NaN, NaN, 0.0299091, "- N/A -   "
6.78, 243.089, 0.0114458, NaN, NaN, NaN, 0.0286883, "- N/A -   "
6.8, 243.914, 0.0114819, NaN, NaN, NaN, 0.0274675, "- N/A -   "
6.82, 244.621, 0.0115124, NaN, NaN, NaN, 0.0274675, "- N/A -   "
6.84, 245.328, 0.011543, NaN, NaN, NaN, 0.0286883, "- N/A -   "
6.86, 245.917, 0.0115735, NaN, NaN, NaN, 0.03112983, "- N/A -   "
6.88, 246.506, 0.011604, NaN, NaN, NaN, 0.0323506, "- N/A -   "
6.9, 247.095, 0.0116318, NaN, NaN, NaN, 0.0335714, "- N/A -   "
6.92, 247.684, 0.0116596, NaN, NaN, NaN, 0.03601294, "- N/A -   "
6.94, 248.273, 0.0116873, NaN, NaN, NaN, 0.0396753, "- N/A -   "
6.96, 248.745, 0.0117151, NaN, NaN, NaN, 0.04211683, "- N/A -   "
6.98, 249.57, 0.01174566, NaN, NaN, NaN, 0.0433376, "- N/A -   "
7, 250.159, 0.0117762, NaN, NaN, NaN, 0.0433376, "- N/A -   "
7.02, 250.866, 0.0118067, NaN, NaN, NaN, 0.0445584, "- N/A -   "
7.04, 251.455, 0.0118345, NaN, NaN, NaN, 0.04699994, "- N/A -   "
7.06, 252.162, 0.0118678, NaN, NaN, NaN, 0.04699994, "- N/A -   "
7.08, 252.8687, 0.0119012, NaN, NaN, NaN, 0.04699994, "- N/A -   "
7.1, 253.693, 0.0119373, NaN, NaN, NaN, 0.04577916, "- N/A -   "
7.12, 254.4, 0.0119734, NaN, NaN, NaN, 0.0445584, "- N/A -   "
7.14, 255.343, 0.012015, NaN, NaN, NaN, 0.04089605, "- N/A -   "
7.16, 256.168, 0.01205388, NaN, NaN, NaN, 0.0396753, "- N/A -   "
7.18, 256.9926, 0.01209, NaN, NaN, NaN, 0.0372337, "- N/A -   "
7.2, 257.6996, 0.0121233, NaN, NaN, NaN, 0.0372337, "- N/A -   "
7.22, 258.524, 0.0121622, NaN, NaN, NaN, 0.0347922, "- N/A -   "
7.24, 259.349, 0.01219827, NaN, NaN, NaN, 0.0347922, "- N/A -   "
7.26, 260.0561, 0.0122316, NaN, NaN, NaN, 0.0347922, "- N/A -   "
7.28, 260.6452, 0.0122621, NaN, NaN, NaN, 0.0347922, "- N/A -   "
7.3, 261.47, 0.0122982, NaN, NaN, NaN, 0.0335714, "- N/A -   "
7.32, 262.4126, 0.0123343, NaN, NaN, NaN, 0.0323506, "- N/A -   "
7.34, 263.12, 0.0123732, NaN, NaN, NaN, 0.03112983, "- N/A -   "
7.36, 263.944, 0.0124093, NaN, NaN, NaN, 0.0299091, "- N/A -   "
7.38, 264.769, 0.0124426, NaN, NaN, NaN, 0.0286883, "- N/A -   "
7.4, 265.476, 0.0124759, NaN, NaN, NaN, 0.0286883, "- N/A -   "
7.42, 266.183, 0.0125093, NaN, NaN, NaN, 0.0286883, "- N/A -   "
7.44, 266.89, 0.0125426, NaN, NaN, NaN, 0.0286883, "- N/A -   "
7.46, 267.715, 0.0125787, NaN, NaN, NaN, 0.0286883, "- N/A -   "
7.48, 268.304, 0.01260923, NaN, NaN, NaN, 0.0286883, "- N/A -   "
7.5, 269.1287, 0.0126398, NaN, NaN, NaN, 0.0299091, "- N/A -   "
7.52, 269.6, 0.0126703, NaN, NaN, NaN, 0.0323506, "- N/A -   "
7.54, 270.307, 0.0126981, NaN, NaN, NaN, 0.0335714, "- N/A -   "
7.56, 270.8961, 0.0127286, NaN, NaN, NaN, 0.0347922, "- N/A -   "
7.58, 271.603, 0.0127592, NaN, NaN, NaN, 0.0372337, "- N/A -   "
7.6, 272.074, 0.0127842, NaN, NaN, NaN, 0.0396753, "- N/A -   "
7.62, 272.7813, 0.01281471, NaN, NaN, NaN, 0.04089605, "- N/A -   "
7.64, 273.606, 0.012848, NaN, NaN, NaN, 0.04089605, "- N/A -   "
7.66, 274.195, 0.0128814, NaN, NaN, NaN, 0.04211683, "- N/A -   "
7.68, 274.9022, 0.0129147, NaN, NaN, NaN, 0.04211683, "- N/A -   "
7.7, 275.727, 0.0129452, NaN, NaN, NaN, 0.04211683, "- N/A -   "
7.72, 276.434, 0.0129785, NaN, NaN, NaN, 0.0433376, "- N/A -   "
7.74, 276.9052, 0.0130063, NaN, NaN, NaN, 0.0445584, "- N/A -   "
7.76, 277.612, 0.0130341, NaN, NaN, NaN, 0.04699994, "- N/A -   "
7.78, 278.2013, 0.0130646, NaN, NaN, NaN, 0.0482207, "- N/A -   "
7.8, 279.0261, 0.0131007, NaN, NaN, NaN, 0.04699994, "- N/A -   "
7.82, 279.851, 0.0131396, NaN, NaN, NaN, 0.04577916, "- N/A -   "
7.84, 280.7935, 0.0131757, NaN, NaN, NaN, 0.0433376, "- N/A -   "
7.86, 281.736, 0.0132146, NaN, NaN, NaN, 0.04089605, "- N/A -   "
7.88, 282.561, 0.0132562, NaN, NaN, NaN, 0.0384545, "- N/A -   "
7.9, 283.503, 0.0132951, NaN, NaN, NaN, 0.0347922, "- N/A -   "
7.92, 284.328, 0.0133367, NaN, NaN, NaN, 0.0323506, "- N/A -   "
7.94, 285.271, 0.0133728, NaN, NaN, NaN, 0.03112983, "- N/A -   "
7.96, 286.096, 0.0134089, NaN, NaN, NaN, 0.0299091, "- N/A -   "
7.98, 286.9204, 0.013445, NaN, NaN, NaN, 0.0274675, "- N/A -   "
8, 287.6274, 0.0134784, NaN, NaN, NaN, 0.0286883, "- N/A -   "
8.02, 288.334, 0.0135117, NaN, NaN, NaN, 0.0286883, "- N/A -   "
8.04, 288.9235, 0.0135422, NaN, NaN, NaN, 0.0286883, "- N/A -   "
8.06, 289.748, 0.0135755, NaN, NaN, NaN, 0.0299091, "- N/A -   "
8.08, 290.4552, 0.0136061, NaN, NaN, NaN, 0.0299091, "- N/A -   "
8.1, 291.162, 0.0136394, NaN, NaN, NaN, 0.03112983, "- N/A -   "
8.12, 291.8691, 0.0136727, NaN, NaN, NaN, 0.03112983, "- N/A -   "
8.14, 292.458, 0.0137005, NaN, NaN, NaN, 0.0323506, "- N/A -   "
8.16, 293.283, 0.0137338, NaN, NaN, NaN, 0.0335714, "- N/A -   "
8.18, 294.108, 0.0137671, NaN, NaN, NaN, 0.0335714, "- N/A -   "
8.2, 294.8148, 0.0138032, NaN, NaN, NaN, 0.0335714, "- N/A -   "
8.22, 295.404, 0.0138338, NaN, NaN, NaN, 0.0335714, "- N/A -   "
8.24, 296.2287, 0.0138643, NaN, NaN, NaN, 0.0347922, "- N/A -   "
8.26, 296.936, 0.0138949, NaN, NaN, NaN, 0.03601294, "- N/A -   "
8.28, 297.407, 0.0139254, NaN, NaN, NaN, 0.0384545, "- N/A -   "
8.3, 298.114, 0.0139532, NaN, NaN, NaN, 0.0396753, "- N/A -   "
8.32, 298.703, 0.0139809, NaN, NaN, NaN, 0.04211683, "- N/A -   "
8.34, 299.41, 0.0140115, NaN, NaN, NaN, 0.0433376, "- N/A -   "
8.36, 300.117, 0.014042, NaN, NaN, NaN, 0.0445584, "- N/A -   "
8.38, 300.8239, 0.0140754, NaN, NaN, NaN, 0.0445584, "- N/A -   "
8.4, 301.413, 0.0141059, NaN, NaN, NaN, 0.04577916, "- N/A -   "
8.42, 302.238, 0.0141392, NaN, NaN, NaN, 0.04699994, "- N/A -   "
8.44, 302.945, 0.0141725, NaN, NaN, NaN, 0.04577916, "- N/A -   "
8.46, 303.77, 0.0142086, NaN, NaN, NaN, 0.0445584, "- N/A -   "
8.48, 304.7122, 0.0142475, NaN, NaN, NaN, 0.04211683, "- N/A -   "
8.5, 305.537, 0.0142864, NaN, NaN, NaN, 0.04089605, "- N/A -   "
8.52, 306.362, 0.0143225, NaN, NaN, NaN, 0.0384545, "- N/A -   "
8.54, 307.304, 0.0143614, NaN, NaN, NaN, 0.03601294, "- N/A -   "
8.56, 308.129, 0.0143975, NaN, NaN, NaN, 0.0347922, "- N/A -   "
8.58, 308.8361, 0.0144308, NaN, NaN, NaN, 0.0347922, "- N/A -   "
8.6, 309.6609, 0.0144669, NaN, NaN, NaN, 0.0335714, "- N/A -   "
8.62, 310.368, 0.014503, NaN, NaN, NaN, 0.0323506, "- N/A -   "
8.64, 311.1926, 0.0145363, NaN, NaN, NaN, 0.0323506, "- N/A -   "
8.66, 312.0174, 0.01456684, NaN, NaN, NaN, 0.0335714, "- N/A -   "
8.68, 312.6065, 0.0146002, NaN, NaN, NaN, 0.0335714, "- N/A -   "
8.7, 313.313, 0.0146335, NaN, NaN, NaN, 0.0335714, "- N/A -   "
8.72, 313.9026, 0.01466125, NaN, NaN, NaN, 0.03601294, "- N/A -   "
8.74, 314.61, 0.0146946, NaN, NaN, NaN, 0.03601294, "- N/A -   "
8.76, 315.317, 0.0147279, NaN, NaN, NaN, 0.0372337, "- N/A -   "
8.78, 316.1413, 0.014764, NaN, NaN, NaN, 0.0347922, "- N/A -   "
8.8, 316.966, 0.0148001, NaN, NaN, NaN, 0.0335714, "- N/A -   "
8.82, 317.791, 0.0148362, NaN, NaN, NaN, 0.0323506, "- N/A -   "
8.84, 318.498, 0.0148695, NaN, NaN, NaN, 0.0323506, "- N/A -   "
8.86, 319.323, 0.0149028, NaN, NaN, NaN, 0.0335714, "- N/A -   "
8.88, 320.03, 0.0149361, NaN, NaN, NaN, 0.0335714, "- N/A -   "
8.9, 320.854, 0.0149695, NaN, NaN, NaN, 0.0323506, "- N/A -   "
8.91, 321.208, 0.0149834, NaN, NaN, NaN, 0.0335714, "- N/A -   "
8.92, 321.443, 0.015, NaN, NaN, NaN, 0.0347922, "- N/A -   "
8.93, 321.797, 0.0150139, NaN, NaN, NaN, 0.0347922, "- N/A -   "
8.96, 322.8574, 0.0150583, NaN, NaN, NaN, 0.0372337, "- N/A -   "
8.99, 323.6822, 0.0151028, NaN, NaN, NaN, 0.04089605, "- N/A -   "
9.02, 324.625, 0.01515, NaN, NaN, NaN, 0.04211683, "- N/A -   "
9.05, 325.921, 0.01519994, NaN, NaN, NaN, 0.04089605, "- N/A -   "
9.08, 327.099, 0.0152555, NaN, NaN, NaN, 0.0396753, "- N/A -   "
9.11, 328.277, 0.0153055, NaN, NaN, NaN, 0.0384545, "- N/A -   "
9.14, 329.338, 0.0153554, NaN, NaN, NaN, 0.0384545, "- N/A -   "
9.17, 330.516, 0.0154082, NaN, NaN, NaN, 0.0372337, "- N/A -   "
9.2, 331.5765, 0.0154554, NaN, NaN, NaN, 0.0384545, "- N/A -   "
9.23, 332.637, 0.0155054, NaN, NaN, NaN, 0.0396753, "- N/A -   "
9.26, 333.697, 0.0155526, NaN, NaN, NaN, 0.0396753, "- N/A -   "
9.29, 334.9935, 0.0156053, NaN, NaN, NaN, 0.0396753, "- N/A -   "
9.32, 336.054, 0.0156553, NaN, NaN, NaN, 0.0384545, "- N/A -   "
9.35, 337.35, 0.0157109, NaN, NaN, NaN, 0.0372337, "- N/A -   "
9.38, 338.6461, 0.0157608, NaN, NaN, NaN, 0.03601294, "- N/A -   "
9.41, 339.707, 0.0158136, NaN, NaN, NaN, 0.0347922, "- N/A -   "
9.44, 340.885, 0.0158636, NaN, NaN, NaN, 0.03601294, "- N/A -   "
9.47, 341.945, 0.0159136, NaN, NaN, NaN, 0.03601294, "- N/A -   "
9.5, 343.123, 0.0159663, NaN, NaN, NaN, 0.0335714, "- N/A -   "
9.53, 344.4196, 0.0160219, NaN, NaN, NaN, 0.03112983, "- N/A -   "
9.56, 345.5978, 0.0160746, NaN, NaN, NaN, 0.0299091, "- N/A -   "
9.59, 346.7761, 0.0161246, NaN, NaN, NaN, 0.0299091, "- N/A -   "
9.62, 347.954, 0.0161774, NaN, NaN, NaN, 0.0299091, "- N/A -   "
9.65, 348.897, 0.016219, NaN, NaN, NaN, 0.0323506, "- N/A -   "
9.68, 349.722, 0.01626066, NaN, NaN, NaN, 0.03601294, "- N/A -   "
9.71, 350.664, 0.01630231, NaN, NaN, NaN, 0.04089605, "- N/A -   "
9.74, 351.7248, 0.0163495, NaN, NaN, NaN, 0.04089605, "- N/A -   "
9.77, 352.785, 0.0163967, NaN, NaN, NaN, 0.04211683, "- N/A -   "
9.8, 353.846, 0.0164439, NaN, NaN, NaN, 0.0433376, "- N/A -   "
9.83, 355.0239, 0.0164939, NaN, NaN, NaN, 0.0433376, "- N/A -   "
9.86, 356.202, 0.0165439, NaN, NaN, NaN, 0.0433376, "- N/A -   "
9.89, 357.38, 0.0165939, NaN, NaN, NaN, 0.0445584, "- N/A -   "
9.92, 358.5587, 0.0166466, NaN, NaN, NaN, 0.04211683, "- N/A -   "
9.95, 359.9726, 0.01670494, NaN, NaN, NaN, 0.0384545, "- N/A -   "
9.98, 361.387, 0.0167633, NaN, NaN, NaN, 0.0347922, "- N/A -   "
10.01, 362.447, 0.016816, NaN, NaN, NaN, 0.0335714, "- N/A -   "
10.04, 363.6252, 0.016866, NaN, NaN, NaN, 0.0347922, "- N/A -   "
10.07, 364.8035, 0.016916, NaN, NaN, NaN, 0.0335714, "- N/A -   "
10.1, 365.864, 0.016966, NaN, NaN, NaN, 0.0347922, "- N/A -   "
10.13, 367.042, 0.0170159, NaN, NaN, NaN, 0.0335714, "- N/A -   "
10.16, 368.338, 0.01707147, NaN, NaN, NaN, 0.03112983, "- N/A -   "
10.19, 369.634, 0.017127, NaN, NaN, NaN, 0.0286883, "- N/A -   "
10.22, 370.695, 0.017177, NaN, NaN, NaN, 0.0286883, "- N/A -   "
10.25, 371.873, 0.01722419, NaN, NaN, NaN, 0.0299091, "- N/A -   "
10.28, 372.933, 0.0172714, NaN, NaN, NaN, 0.03112983, "- N/A -   "
10.31, 373.9939, 0.0173158, NaN, NaN, NaN, 0.0335714, "- N/A -   "
10.34, 374.937, 0.0173603, NaN, NaN, NaN, 0.03601294, "- N/A -   "
10.37, 375.761, 0.0173991, NaN, NaN, NaN, 0.04089605, "- N/A -   "
10.4, 376.822, 0.0174436, NaN, NaN, NaN, 0.0445584, "- N/A -   "
10.43, 377.882, 0.01749076, NaN, NaN, NaN, 0.04577916, "- N/A -   "
10.46, 379.06, 0.017538, NaN, NaN, NaN, 0.04577916, "- N/A -   "
10.49, 380.2387, 0.0175907, NaN, NaN, NaN, 0.0445584, "- N/A -   "
10.52, 381.417, 0.0176435, NaN, NaN, NaN, 0.0433376, "- N/A -   "
10.55, 382.831, 0.0177018, NaN, NaN, NaN, 0.0396753, "- N/A -   "
10.58, 384.009, 0.0177546, NaN, NaN, NaN, 0.0384545, "- N/A -   "
10.61, 385.423, 0.0178073, NaN, NaN, NaN, 0.0372337, "- N/A -   "
10.64, 386.601, 0.0178628, NaN, NaN, NaN, 0.03601294, "- N/A -   "
10.67, 387.8974, 0.0179128, NaN, NaN, NaN, 0.0347922, "- N/A -   "
10.7, 388.958, 0.0179628, NaN, NaN, NaN, 0.03601294, "- N/A -   "
10.73, 390.2539, 0.0180156, NaN, NaN, NaN, 0.0335714, "- N/A -   "
10.76, 391.4322, 0.0180711, NaN, NaN, NaN, 0.0323506, "- N/A -   "
10.79, 392.728, 0.01812386, NaN, NaN, NaN, 0.0299091, "- N/A -   "
10.82, 394.142, 0.0181794, NaN, NaN, NaN, 0.0286883, "- N/A -   "
10.85, 395.32, 0.0182294, NaN, NaN, NaN, 0.0274675, "- N/A -   "
10.88, 396.381, 0.0182794, NaN, NaN, NaN, 0.0286883, "- N/A -   "
10.91, 397.3235, 0.0183238, NaN, NaN, NaN, 0.0299091, "- N/A -   "
10.94, 398.3839, 0.0183682, NaN, NaN, NaN, 0.0323506, "- N/A -   "
10.97, 399.444, 0.0184126, NaN, NaN, NaN, 0.0347922, "- N/A -   "
11, 400.5048, 0.0184598, NaN, NaN, NaN, 0.03601294, "- N/A -   "
11.03, 401.33, 0.0185015, NaN, NaN, NaN, 0.04089605, "- N/A -   "
11.06, 402.2722, 0.0185404, NaN, NaN, NaN, 0.0445584, "- N/A -   "
11.09, 403.4504, 0.0185876, NaN, NaN, NaN, 0.04577916, "- N/A -   "
11.12, 404.747, 0.0186403, NaN, NaN, NaN, 0.0445584, "- N/A -   "
11.15, 405.807, 0.0186903, NaN, NaN, NaN, 0.0445584, "- N/A -   "
11.18, 406.985, 0.0187431, NaN, NaN, NaN, 0.0433376, "- N/A -   "
11.21, 408.3991, 0.0187958, NaN, NaN, NaN, 0.04211683, "- N/A -   "
11.24, 409.5774, 0.0188486, NaN, NaN, NaN, 0.04089605, "- N/A -   "
11.27, 410.756, 0.01890135, NaN, NaN, NaN, 0.04089605, "- N/A -   "
11.3, 412.1696, 0.0189569, NaN, NaN, NaN, 0.0372337, "- N/A -   "
11.33, 413.5835, 0.0190152, NaN, NaN, NaN, 0.0335714, "- N/A -   "
11.36, 414.88, 0.0190735, NaN, NaN, NaN, 0.03112983, "- N/A -   "
11.39, 416.058, 0.0191263, NaN, NaN, NaN, 0.0286883, "- N/A -   "
11.42, 417.236, 0.0191762, NaN, NaN, NaN, 0.0286883, "- N/A -   "
11.45, 418.414, 0.0192235, NaN, NaN, NaN, 0.0299091, "- N/A -   "
11.48, 419.593, 0.0192762, NaN, NaN, NaN, 0.0299091, "- N/A -   "
11.51, 420.653, 0.01932064, NaN, NaN, NaN, 0.0323506, "- N/A -   "
11.54, 421.713, 0.0193651, NaN, NaN, NaN, 0.0335714, "- N/A -   "
11.57, 422.7739, 0.0194123, NaN, NaN, NaN, 0.0347922, "- N/A -   "
11.6, 424.07, 0.0194595, NaN, NaN, NaN, 0.03601294, "- N/A -   "
11.63, 425.248, 0.0195095, NaN, NaN, NaN, 0.03601294, "- N/A -   "
11.66, 426.4265, 0.0195567, NaN, NaN, NaN, 0.0372337, "- N/A -   "
11.69, 427.369, 0.0196039, NaN, NaN, NaN, 0.0384545, "- N/A -   "
11.72, 428.43, 0.0196483, NaN, NaN, NaN, 0.04089605, "- N/A -   "
11.75, 429.608, 0.0196955, NaN, NaN, NaN, 0.04211683, "- N/A -   "
11.78, 430.668, 0.0197427, NaN, NaN, NaN, 0.0433376, "- N/A -   "
11.81, 431.8465, 0.0197927, NaN, NaN, NaN, 0.0433376, "- N/A -   "
11.84, 433.025, 0.0198454, NaN, NaN, NaN, 0.0433376, "- N/A -   "
11.87, 434.321, 0.0198982, NaN, NaN, NaN, 0.04089605, "- N/A -   "
11.9, 435.853, 0.01995374, NaN, NaN, NaN, 0.0384545, "- N/A -   "
11.93, 437.149, 0.02001205, NaN, NaN, NaN, 0.0347922, "- N/A -   "
11.96, 438.445, 0.0200676, NaN, NaN, NaN, 0.0335714, "- N/A -   "
11.99, 439.8587, 0.0201203, NaN, NaN, NaN, 0.03112983, "- N/A -   "
12.02, 441.1548, 0.02017588, NaN, NaN, NaN, 0.0286883, "- N/A -   "
12.05, 442.215, 0.02022586, NaN, NaN, NaN, 0.0286883, "- N/A -   "
12.08, 443.276, 0.0202703, NaN, NaN, NaN, 0.03112983, "- N/A -   "
12.11, 444.218, 0.0203119, NaN, NaN, NaN, 0.0347922, "- N/A -   "
12.14, 445.3965, 0.0203591, NaN, NaN, NaN, 0.03601294, "- N/A -   "
12.17, 446.5748, 0.0204091, NaN, NaN, NaN, 0.0372337, "- N/A -   "
12.2, 447.9887, 0.0204619, NaN, NaN, NaN, 0.0347922, "- N/A -   "
12.23, 449.2848, 0.0205174, NaN, NaN, NaN, 0.0323506, "- N/A -   "
12.26, 450.581, 0.020573, NaN, NaN, NaN, 0.0299091, "- N/A -   "
12.29, 451.6413, 0.0206174, NaN, NaN, NaN, 0.0323506, "- N/A -   "
12.32, 452.584, 0.02066181, NaN, NaN, NaN, 0.0347922, "- N/A -   "
12.35, 453.88, 0.020709, NaN, NaN, NaN, 0.03601294, "- N/A -   "
12.38, 454.94, 0.0207562, NaN, NaN, NaN, 0.0372337, "- N/A -   "
12.41, 456.0009, 0.0208034, NaN, NaN, NaN, 0.0384545, "- N/A -   "
12.44, 457.0613, 0.02085063, NaN, NaN, NaN, 0.0396753, "- N/A -   "
12.47, 458.2396, 0.02090061, NaN, NaN, NaN, 0.04089605, "- N/A -   "
12.5, 459.418, 0.0209478, NaN, NaN, NaN, 0.04089605, "- N/A -   "
12.53, 460.5961, 0.0209978, NaN, NaN, NaN, 0.04089605, "- N/A -   "
12.56, 461.774, 0.0210506, NaN, NaN, NaN, 0.0396753, "- N/A -   "
12.59, 463.188, 0.02110609, NaN, NaN, NaN, 0.0372337, "- N/A -   "
12.62, 464.484, 0.02115885, NaN, NaN, NaN, 0.03601294, "- N/A -   "
12.65, 465.663, 0.0212088, NaN, NaN, NaN, 0.03601294, "- N/A -   "
12.68, 466.841, 0.0212588, NaN, NaN, NaN, 0.0372337, "- N/A -   "
12.71, 468.019, 0.0213088, NaN, NaN, NaN, 0.0372337, "- N/A -   "
12.74, 469.315, 0.0213616, NaN, NaN, NaN, 0.03601294, "- N/A -   "
12.77, 470.611, 0.0214143, NaN, NaN, NaN, 0.0347922, "- N/A -   "
[...]
34.84, 1435.15, 0.0581952, NaN, NaN, NaN, 0.0347922, "- N/A -   "
34.87, 1436.34, 0.0582368, NaN, NaN, NaN, 0.0384545, "- N/A -   "
34.9, 1437.537, 0.0582812, NaN, NaN, NaN, 0.04089605, "- N/A -   "
34.93, 1438.61, 0.0583229, NaN, NaN, NaN, 0.0445584, "- N/A -   "
34.96, 1439.922, 0.0583729, NaN, NaN, NaN, 0.0445584, "- N/A -   "
34.99, 1441.353, 0.0584256, NaN, NaN, NaN, 0.0433376, "- N/A -   "
35.02, 1442.784, 0.0584784, NaN, NaN, NaN, 0.04211683, "- N/A -   "
35.05, 1444.1, 0.0585256, NaN, NaN, NaN, 0.0433376, "- N/A -   "
35.08, 1445.41, 0.0585784, NaN, NaN, NaN, 0.04211683, "- N/A -   "
35.11, 1446.96, 0.0586339, NaN, NaN, NaN, 0.04089605, "- N/A -   "
35.14, 1448.51, 0.05868665, NaN, NaN, NaN, 0.0384545, "- N/A -   "
35.17, 1450.06, 0.05874496, NaN, NaN, NaN, 0.03601294, "- N/A -   "
35.2, 1451.728, 0.05880327, NaN, NaN, NaN, 0.0323506, "- N/A -   "
35.23, 1453.159, 0.0588588, NaN, NaN, NaN, 0.0286883, "- N/A -   "
35.26, 1454.83, 0.0589143, NaN, NaN, NaN, 0.0262467, "- N/A -   "
35.29, 1456.14, 0.0589643, NaN, NaN, NaN, 0.0262467, "- N/A -   "
35.32, 1457.452, 0.0590143, NaN, NaN, NaN, 0.0274675, "- N/A -   "
35.35, 1458.76, 0.0590615, NaN, NaN, NaN, 0.0286883, "- N/A -   "
35.38, 1459.96, 0.05910594, NaN, NaN, NaN, 0.03112983, "- N/A -   "
35.41, 1461.15, 0.0591531, NaN, NaN, NaN, 0.0335714, "- N/A -   "
35.44, 1462.34, 0.05919757, NaN, NaN, NaN, 0.0347922, "- N/A -   "
35.47, 1463.65, 0.0592476, NaN, NaN, NaN, 0.03601294, "- N/A -   "
35.5, 1465.08, 0.05929753, NaN, NaN, NaN, 0.0347922, "- N/A -   "
35.53, 1466.396, 0.0593475, NaN, NaN, NaN, 0.0347922, "- N/A -   "
35.56, 1467.59, 0.05939472, NaN, NaN, NaN, 0.0372337, "- N/A -   "
35.59, 1468.66, 0.05943637, NaN, NaN, NaN, 0.0396753, "- N/A -   "
35.62, 1469.735, 0.059478, NaN, NaN, NaN, 0.0445584, "- N/A -   "
35.65, 1471.05, 0.0595225, NaN, NaN, NaN, 0.04577916, "- N/A -   "
35.68, 1472.36, 0.0595724, NaN, NaN, NaN, 0.04699994, "- N/A -   "
35.71, 1473.67, 0.05961964, NaN, NaN, NaN, 0.04699994, "- N/A -   "
35.74, 1475.1, 0.0596696, NaN, NaN, NaN, 0.04699994, "- N/A -   "
35.77, 1476.65, 0.05972793, NaN, NaN, NaN, 0.0433376, "- N/A -   "
35.8, 1478.2, 0.0597862, NaN, NaN, NaN, 0.0396753, "- N/A -   "
35.83, 1479.87, 0.0598446, NaN, NaN, NaN, 0.03601294, "- N/A -   "
35.86, 1481.42, 0.05990009, NaN, NaN, NaN, 0.0335714, "- N/A -   "
35.89, 1482.972, 0.0599556, NaN, NaN, NaN, 0.0323506, "- N/A -   "
35.92, 1484.4, 0.0600056, NaN, NaN, NaN, 0.03112983, "- N/A -   "
35.95, 1485.48, 0.06005, NaN, NaN, NaN, 0.0347922, "- N/A -   "
35.98, 1486.79, 0.06009446, NaN, NaN, NaN, 0.03601294, "- N/A -   "
36.01, 1487.98, 0.0601417, NaN, NaN, NaN, 0.0372337, "- N/A -   "
36.04, 1489.41, 0.0601944, NaN, NaN, NaN, 0.03601294, "- N/A -   "
36.07, 1490.84, 0.06025, NaN, NaN, NaN, 0.0347922, "- N/A -   "
36.1, 1492.15, 0.06030272, NaN, NaN, NaN, 0.0323506, "- N/A -   "
36.13, 1493.59, 0.0603527, NaN, NaN, NaN, 0.0335714, "- N/A -   "
36.16, 1494.9, 0.0603971, NaN, NaN, NaN, 0.03601294, "- N/A -   "
36.19, 1496.09, 0.0604443, NaN, NaN, NaN, 0.03601294, "- N/A -   "
36.22, 1497.4, 0.0604943, NaN, NaN, NaN, 0.03601294, "- N/A -   "
36.25, 1498.594, 0.0605387, NaN, NaN, NaN, 0.0384545, "- N/A -   "
36.28, 1499.91, 0.06058317, NaN, NaN, NaN, 0.04089605, "- N/A -   "
36.31, 1501.22, 0.0606332, NaN, NaN, NaN, 0.04211683, "- N/A -   "
36.34, 1502.41, 0.0606804, NaN, NaN, NaN, 0.04211683, "- N/A -   "
36.37, 1503.84, 0.06073034, NaN, NaN, NaN, 0.04211683, "- N/A -   "
36.4, 1505.15, 0.0607831, NaN, NaN, NaN, 0.04211683, "- N/A -   "
36.43, 1506.46, 0.0608303, NaN, NaN, NaN, 0.04211683, "- N/A -   "
36.46, 1508.01, 0.06088028, NaN, NaN, NaN, 0.04211683, "- N/A -   "
36.49, 1509.45, 0.0609386, NaN, NaN, NaN, 0.0384545, "- N/A -   "
36.52, 1511, 0.06099691, NaN, NaN, NaN, 0.03601294, "- N/A -   "
36.55, 1512.308, 0.06104689, NaN, NaN, NaN, 0.0347922, "- N/A -   "
36.58, 1513.74, 0.06109687, NaN, NaN, NaN, 0.0347922, "- N/A -   "
36.61, 1515.05, 0.06114685, NaN, NaN, NaN, 0.0347922, "- N/A -   "
36.64, 1516.36, 0.06119961, NaN, NaN, NaN, 0.0347922, "- N/A -   "
36.67, 1517.79, 0.0612496, NaN, NaN, NaN, 0.0335714, "- N/A -   "
36.7, 1519.22, 0.06130235, NaN, NaN, NaN, 0.0335714, "- N/A -   "
36.73, 1520.54, 0.06135233, NaN, NaN, NaN, 0.0323506, "- N/A -   "
36.76, 1521.97, 0.0614023, NaN, NaN, NaN, 0.0323506, "- N/A -   "
36.79, 1523.28, 0.0614523, NaN, NaN, NaN, 0.0323506, "- N/A -   "
36.82, 1524.71, 0.0615023, NaN, NaN, NaN, 0.0323506, "- N/A -   "
36.85, 1526.022, 0.0615523, NaN, NaN, NaN, 0.0323506, "- N/A -   "
36.88, 1527.33, 0.0616022, NaN, NaN, NaN, 0.0323506, "- N/A -   "
36.91, 1528.76, 0.06165777, NaN, NaN, NaN, 0.03112983, "- N/A -   "
36.94, 1529.96, 0.0616994, NaN, NaN, NaN, 0.0335714, "- N/A -   "
36.97, 1531.03, 0.0617411, NaN, NaN, NaN, 0.0372337, "- N/A -   "
37, 1532.22, 0.0617855, NaN, NaN, NaN, 0.0396753, "- N/A -   "
37.03, 1533.42, 0.0618299, NaN, NaN, NaN, 0.04211683, "- N/A -   "
37.06, 1534.608, 0.0618771, NaN, NaN, NaN, 0.0433376, "- N/A -   "
37.09, 1535.68, 0.0619216, NaN, NaN, NaN, 0.04699994, "- N/A -   "
37.12, 1537.11, 0.06196877, NaN, NaN, NaN, 0.04699994, "- N/A -   "
37.15, 1538.42, 0.0620188, NaN, NaN, NaN, 0.04699994, "- N/A -   "
37.18, 1539.97, 0.0620743, NaN, NaN, NaN, 0.04577916, "- N/A -   "
37.21, 1541.52, 0.06212982, NaN, NaN, NaN, 0.0433376, "- N/A -   "
37.24, 1542.96, 0.06218258, NaN, NaN, NaN, 0.04089605, "- N/A -   "
37.27, 1544.506, 0.0622381, NaN, NaN, NaN, 0.0384545, "- N/A -   "
37.3, 1546.06, 0.0622964, NaN, NaN, NaN, 0.0347922, "- N/A -   "
37.33, 1547.49, 0.0623492, NaN, NaN, NaN, 0.0335714, "- N/A -   "
37.36, 1549.04, 0.0623992, NaN, NaN, NaN, 0.0335714, "- N/A -   "
37.39, 1550.35, 0.0624547, NaN, NaN, NaN, 0.0323506, "- N/A -   "
37.42, 1551.78, 0.06250469, NaN, NaN, NaN, 0.0323506, "- N/A -   "
37.45, 1553.09, 0.0625547, NaN, NaN, NaN, 0.03112983, "- N/A -   "
37.48, 1554.52, 0.06260742, NaN, NaN, NaN, 0.0299091, "- N/A -   "
37.51, 1555.95, 0.0626574, NaN, NaN, NaN, 0.0299091, "- N/A -   "
37.54, 1557.266, 0.06270461, NaN, NaN, NaN, 0.03112983, "- N/A -   "
37.57, 1558.34, 0.0627546, NaN, NaN, NaN, 0.0323506, "- N/A -   "
37.6, 1559.651, 0.062799, NaN, NaN, NaN, 0.0335714, "- N/A -   "
37.63, 1560.72, 0.06284067, NaN, NaN, NaN, 0.0372337, "- N/A -   "
37.66, 1561.8, 0.0628851, NaN, NaN, NaN, 0.04089605, "- N/A -   "
37.69, 1562.87, 0.06292675, NaN, NaN, NaN, 0.0433376, "- N/A -   "
37.72, 1564.06, 0.06297118, NaN, NaN, NaN, 0.04577916, "- N/A -   "
37.75, 1565.26, 0.0630156, NaN, NaN, NaN, 0.0482207, "- N/A -   "
37.78, 1566.57, 0.06306559, NaN, NaN, NaN, 0.0482207, "- N/A -   "
37.81, 1568.12, 0.0631211, NaN, NaN, NaN, 0.04699994, "- N/A -   "
37.84, 1569.79, 0.06317943, NaN, NaN, NaN, 0.04211683, "- N/A -   "
37.87, 1571.457, 0.06324052, NaN, NaN, NaN, 0.0384545, "- N/A -   "
37.9, 1573.01, 0.06329606, NaN, NaN, NaN, 0.03601294, "- N/A -   "
37.93, 1574.44, 0.0633516, NaN, NaN, NaN, 0.0335714, "- N/A -   "
37.96, 1575.99, 0.06340435, NaN, NaN, NaN, 0.03112983, "- N/A -   "
37.99, 1577.3, 0.06345433, NaN, NaN, NaN, 0.03112983, "- N/A -   "
38.02, 1578.612, 0.0635043, NaN, NaN, NaN, 0.03112983, "- N/A -   "
38.05, 1580.16, 0.06355707, NaN, NaN, NaN, 0.0299091, "- N/A -   "
38.08, 1581.35, 0.06360983, NaN, NaN, NaN, 0.0299091, "- N/A -   "
38.11, 1582.79, 0.06365981, NaN, NaN, NaN, 0.0286883, "- N/A -   "
38.14, 1584.1, 0.0637126, NaN, NaN, NaN, 0.0286883, "- N/A -   "
38.17, 1585.648, 0.06376255, NaN, NaN, NaN, 0.0274675, "- N/A -   "
38.2, 1586.72, 0.06380698, NaN, NaN, NaN, 0.0299091, "- N/A -   "
38.23, 1588.033, 0.06385141, NaN, NaN, NaN, 0.0323506, "- N/A -   "
38.26, 1589.11, 0.06389584, NaN, NaN, NaN, 0.0347922, "- N/A -   "
38.29, 1590.3, 0.06394304, NaN, NaN, NaN, 0.0372337, "- N/A -   "
38.32, 1591.61, 0.06398746, NaN, NaN, NaN, 0.0384545, "- N/A -   "
38.35, 1592.56, 0.06402912, NaN, NaN, NaN, 0.04211683, "- N/A -   "
38.38, 1593.88, 0.06407632, NaN, NaN, NaN, 0.0433376, "- N/A -   "
38.41, 1595.19, 0.0641263, NaN, NaN, NaN, 0.0433376, "- N/A -   "
38.44, 1596.5, 0.06417629, NaN, NaN, NaN, 0.0445584, "- N/A -   "
38.47, 1597.81, 0.06422349, NaN, NaN, NaN, 0.0445584, "- N/A -   "
38.5, 1599.24, 0.06427625, NaN, NaN, NaN, 0.0433376, "- N/A -   "
38.53, 1600.55, 0.0643262, NaN, NaN, NaN, 0.0445584, "- N/A -   "
38.56, 1601.99, 0.06437621, NaN, NaN, NaN, 0.0433376, "- N/A -   "
38.59, 1603.42, 0.06443175, NaN, NaN, NaN, 0.04089605, "- N/A -   "
38.62, 1604.97, 0.06449006, NaN, NaN, NaN, 0.0384545, "- N/A -   "
38.65, 1606.76, 0.06455115, NaN, NaN, NaN, 0.0335714, "- N/A -   "
38.68, 1608.19, 0.06460391, NaN, NaN, NaN, 0.03112983, "- N/A -   "
38.71, 1609.62, 0.06465667, NaN, NaN, NaN, 0.0299091, "- N/A -   "
38.74, 1611.05, 0.0647122, NaN, NaN, NaN, 0.0286883, "- N/A -   "
38.77, 1612.36, 0.0647594, NaN, NaN, NaN, 0.0286883, "- N/A -   "
38.8, 1613.55, 0.06480383, NaN, NaN, NaN, 0.03112983, "- N/A -   "
38.83, 1614.86, 0.06485104, NaN, NaN, NaN, 0.0323506, "- N/A -   "
38.86, 1615.938, 0.0648955, NaN, NaN, NaN, 0.0347922, "- N/A -   "
38.89, 1617.25, 0.0649399, NaN, NaN, NaN, 0.0372337, "- N/A -   "
38.92, 1618.44, 0.06498988, NaN, NaN, NaN, 0.0372337, "- N/A -   "
38.95, 1619.99, 0.06504264, NaN, NaN, NaN, 0.03601294, "- N/A -   "
38.98, 1621.185, 0.0650926, NaN, NaN, NaN, 0.03601294, "- N/A -   "
39.01, 1622.5, 0.06513982, NaN, NaN, NaN, 0.0372337, "- N/A -   "
39.04, 1623.81, 0.06518703, NaN, NaN, NaN, 0.0384545, "- N/A -   "
39.07, 1624.88, 0.06523145, NaN, NaN, NaN, 0.04089605, "- N/A -   "
39.1, 1626.19, 0.06527866, NaN, NaN, NaN, 0.04211683, "- N/A -   "
39.13, 1627.39, 0.0653231, NaN, NaN, NaN, 0.0445584, "- N/A -   "
39.16, 1628.82, 0.06537584, NaN, NaN, NaN, 0.0433376, "- N/A -   "
39.19, 1630.49, 0.06543416, NaN, NaN, NaN, 0.04089605, "- N/A -   "
39.22, 1632.16, 0.0654952, NaN, NaN, NaN, 0.03601294, "- N/A -   "
39.25, 1633.71, 0.06555078, NaN, NaN, NaN, 0.0323506, "- N/A -   "
39.28, 1635.14, 0.06560354, NaN, NaN, NaN, 0.03112983, "- N/A -   "
39.31, 1636.57, 0.06565907, NaN, NaN, NaN, 0.0299091, "- N/A -   "
39.34, 1637.88, 0.06570628, NaN, NaN, NaN, 0.0299091, "- N/A -   "
39.37, 1639.07, 0.0657507, NaN, NaN, NaN, 0.0323506, "- N/A -   "
39.4, 1640.27, 0.06579791, NaN, NaN, NaN, 0.0335714, "- N/A -   "
39.43, 1641.58, 0.06584512, NaN, NaN, NaN, 0.0347922, "- N/A -   "
39.46, 1642.77, 0.06589232, NaN, NaN, NaN, 0.03601294, "- N/A -   "
39.49, 1644.32, 0.06594508, NaN, NaN, NaN, 0.0347922, "- N/A -   "
39.52, 1645.87, 0.06600339, NaN, NaN, NaN, 0.0323506, "- N/A -   "
39.55, 1647.182, 0.06605337, NaN, NaN, NaN, 0.03112983, "- N/A -   "
39.58, 1648.613, 0.0661034, NaN, NaN, NaN, 0.0323506, "- N/A -   "
39.61, 1649.567, 0.066145, NaN, NaN, NaN, 0.0347922, "- N/A -   "
39.64, 1650.88, 0.06619221, NaN, NaN, NaN, 0.03601294, "- N/A -   "
39.67, 1652.19, 0.0662422, NaN, NaN, NaN, 0.03601294, "- N/A -   "
39.7, 1653.26, 0.0662866, NaN, NaN, NaN, 0.0384545, "- N/A -   "
39.73, 1654.46, 0.06633382, NaN, NaN, NaN, 0.0396753, "- N/A -   "
39.76, 1655.89, 0.06638381, NaN, NaN, NaN, 0.0396753, "- N/A -   "
39.79, 1657.2, 0.06643657, NaN, NaN, NaN, 0.0396753, "- N/A -   "
39.82, 1658.511, 0.066481, NaN, NaN, NaN, 0.04211683, "- N/A -   "
39.85, 1659.94, 0.06653097, NaN, NaN, NaN, 0.04211683, "- N/A -   "
39.88, 1661.13, 0.06658373, NaN, NaN, NaN, 0.04089605, "- N/A -   "
39.91, 1662.68, 0.06663371, NaN, NaN, NaN, 0.04089605, "- N/A -   "
39.94, 1664, 0.0666837, NaN, NaN, NaN, 0.04089605, "- N/A -   "
39.97, 1665.43, 0.06673645, NaN, NaN, NaN, 0.0396753, "- N/A -   "
40, 1666.62, 0.06678644, NaN, NaN, NaN, 0.0396753, "- N/A -   "
40.03, 1667.93, 0.0668392, NaN, NaN, NaN, 0.0396753, "- N/A -   "
40.06, 1669.36, 0.0668892, NaN, NaN, NaN, 0.0396753, "- N/A -   "
40.09, 1671.03, 0.06694471, NaN, NaN, NaN, 0.03601294, "- N/A -   "
40.12, 1672.46, 0.06700025, NaN, NaN, NaN, 0.0335714, "- N/A -   "
40.15, 1673.78, 0.0670502, NaN, NaN, NaN, 0.0335714, "- N/A -   "
40.18, 1675.09, 0.06710298, NaN, NaN, NaN, 0.0335714, "- N/A -   "
40.21, 1676.518, 0.06715574, NaN, NaN, NaN, 0.0323506, "- N/A -   "
40.24, 1677.71, 0.06720017, NaN, NaN, NaN, 0.0335714, "- N/A -   "
40.27, 1679.02, 0.0672502, NaN, NaN, NaN, 0.0347922, "- N/A -   "
40.3, 1680.21, 0.0672974, NaN, NaN, NaN, 0.0347922, "- N/A -   "
40.33, 1681.53, 0.06734734, NaN, NaN, NaN, 0.0347922, "- N/A -   "
40.36, 1682.84, 0.06739455, NaN, NaN, NaN, 0.03601294, "- N/A -   "
40.39, 1683.91, 0.06743897, NaN, NaN, NaN, 0.0384545, "- N/A -   "
40.42, 1685.34, 0.06748895, NaN, NaN, NaN, 0.0384545, "- N/A -   "
40.45, 1686.54, 0.06753894, NaN, NaN, NaN, 0.0396753, "- N/A -   "
40.48, 1687.73, 0.06758336, NaN, NaN, NaN, 0.04089605, "- N/A -   "
40.51, 1688.92, 0.0676278, NaN, NaN, NaN, 0.0433376, "- N/A -   "
40.54, 1690.23, 0.06767777, NaN, NaN, NaN, 0.0433376, "- N/A -   "
40.57, 1691.54, 0.06772775, NaN, NaN, NaN, 0.0445584, "- N/A -   "
40.6, 1692.97, 0.06778051, NaN, NaN, NaN, 0.0433376, "- N/A -   "
40.63, 1694.525, 0.06783327, NaN, NaN, NaN, 0.04089605, "- N/A -   "
40.66, 1696.19, 0.06789713, NaN, NaN, NaN, 0.03601294, "- N/A -   "
40.69, 1697.86, 0.06795822, NaN, NaN, NaN, 0.03112983, "- N/A -   "
40.72, 1699.18, 0.06800821, NaN, NaN, NaN, 0.0299091, "- N/A -   "
40.75, 1700.37, 0.0680554, NaN, NaN, NaN, 0.03112983, "- N/A -   "
40.78, 1701.68, 0.06810261, NaN, NaN, NaN, 0.0323506, "- N/A -   "
40.81, 1702.75, 0.0681526, NaN, NaN, NaN, 0.0323506, "- N/A -   "
40.84, 1704.18, 0.06820258, NaN, NaN, NaN, 0.0335714, "- N/A -   "
40.87, 1705.62, 0.0682553, NaN, NaN, NaN, 0.0323506, "- N/A -   "
40.9, 1707.05, 0.06830809, NaN, NaN, NaN, 0.0299091, "- N/A -   "
40.93, 1708.36, 0.06835807, NaN, NaN, NaN, 0.03112983, "- N/A -   "
40.96, 1709.67, 0.06840806, NaN, NaN, NaN, 0.03112983, "- N/A -   "
40.99, 1710.98, 0.0684553, NaN, NaN, NaN, 0.03112983, "- N/A -   "
41.02, 1711.94, 0.06849691, NaN, NaN, NaN, 0.0347922, "- N/A -   "
41.05, 1713.13, 0.06854134, NaN, NaN, NaN, 0.0372337, "- N/A -   "
41.08, 1714.2, 0.06858577, NaN, NaN, NaN, 0.0396753, "- N/A -   "
41.11, 1715.27, 0.06862742, NaN, NaN, NaN, 0.0433376, "- N/A -   "
41.14, 1716.47, 0.0686746, NaN, NaN, NaN, 0.04577916, "- N/A -   "
41.17, 1717.78, 0.06871905, NaN, NaN, NaN, 0.04699994, "- N/A -   "
41.2, 1719.09, 0.06876903, NaN, NaN, NaN, 0.04699994, "- N/A -   "
41.23, 1720.64, 0.0688273, NaN, NaN, NaN, 0.0433376, "- N/A -   "
41.26, 1722.31, 0.06889121, NaN, NaN, NaN, 0.0372337, "- N/A -   "
41.29, 1723.861, 0.06894675, NaN, NaN, NaN, 0.0347922, "- N/A -   "
41.32, 1725.05, 0.068994, NaN, NaN, NaN, 0.03601294, "- N/A -   "
41.35, 1726.37, 0.0690439, NaN, NaN, NaN, 0.03601294, "- N/A -   "
41.38, 1727.32, 0.06908836, NaN, NaN, NaN, 0.0384545, "- N/A -   "
41.41, 1728.63, 0.06913557, NaN, NaN, NaN, 0.04089605, "- N/A -   "
41.44, 1730.062, 0.06918833, NaN, NaN, NaN, 0.0384545, "- N/A -   "
41.47, 1731.61, 0.0692466, NaN, NaN, NaN, 0.03601294, "- N/A -   "
41.5, 1733.04, 0.06929939, NaN, NaN, NaN, 0.0335714, "- N/A -   "
41.53, 1734.36, 0.06934938, NaN, NaN, NaN, 0.0335714, "- N/A -   "
41.56, 1735.55, 0.06939658, NaN, NaN, NaN, 0.0347922, "- N/A -   "
41.59, 1736.98, 0.06944934, NaN, NaN, NaN, 0.0335714, "- N/A -   "
41.62, 1738.29, 0.06949932, NaN, NaN, NaN, 0.0335714, "- N/A -   "
41.65, 1739.36, 0.06954375, NaN, NaN, NaN, 0.03601294, "- N/A -   "
41.68, 1740.68, 0.06959373, NaN, NaN, NaN, 0.0372337, "- N/A -   "
41.71, 1741.868, 0.0696382, NaN, NaN, NaN, 0.0384545, "- N/A -   "
41.74, 1742.94, 0.06968259, NaN, NaN, NaN, 0.04089605, "- N/A -   "
41.77, 1744.253, 0.06973257, NaN, NaN, NaN, 0.04211683, "- N/A -   "
41.8, 1745.45, 0.06978255, NaN, NaN, NaN, 0.04089605, "- N/A -   "
41.83, 1746.88, 0.0698325, NaN, NaN, NaN, 0.04089605, "- N/A -   "
41.86, 1748.19, 0.06988529, NaN, NaN, NaN, 0.04089605, "- N/A -   "
41.89, 1749.38, 0.0699325, NaN, NaN, NaN, 0.04089605, "- N/A -   "
41.92, 1750.69, 0.06998248, NaN, NaN, NaN, 0.04089605, "- N/A -   "
41.95, 1752, 0.0700352, NaN, NaN, NaN, 0.0396753, "- N/A -   "
41.98, 1753.55, 0.07009077, NaN, NaN, NaN, 0.0384545, "- N/A -   "
42.01, 1754.99, 0.07014631, NaN, NaN, NaN, 0.03601294, "- N/A -   "
42.04, 1756.54, 0.0702046, NaN, NaN, NaN, 0.03112983, "- N/A -   "
42.07, 1758.09, 0.07026015, NaN, NaN, NaN, 0.0286883, "- N/A -   "
42.1, 1759.52, 0.07031568, NaN, NaN, NaN, 0.0262467, "- N/A -   "
42.13, 1760.71, 0.0703629, NaN, NaN, NaN, 0.0274675, "- N/A -   "
42.16, 1761.78, 0.0704101, NaN, NaN, NaN, 0.0286883, "- N/A -   "
42.19, 1763.09, 0.07045452, NaN, NaN, NaN, 0.03112983, "- N/A -   "
42.22, 1764.17, 0.07050173, NaN, NaN, NaN, 0.0323506, "- N/A -   "
42.25, 1765.48, 0.07054893, NaN, NaN, NaN, 0.0335714, "- N/A -   "
42.28, 1766.67, 0.0705934, NaN, NaN, NaN, 0.03601294, "- N/A -   "
42.31, 1767.86, 0.07064334, NaN, NaN, NaN, 0.03601294, "- N/A -   "
42.34, 1769.18, 0.07069332, NaN, NaN, NaN, 0.03601294, "- N/A -   "
42.37, 1770.49, 0.07074331, NaN, NaN, NaN, 0.03601294, "- N/A -   "
42.4, 1771.56, 0.0707905, NaN, NaN, NaN, 0.0372337, "- N/A -   "
42.43, 1772.75, 0.07083216, NaN, NaN, NaN, 0.04089605, "- N/A -   "
42.46, 1773.83, 0.07087659, NaN, NaN, NaN, 0.0433376, "- N/A -   "
42.49, 1775.02, 0.0709238, NaN, NaN, NaN, 0.0445584, "- N/A -   "
42.52, 1776.09, 0.0709682, NaN, NaN, NaN, 0.04699994, "- N/A -   "
42.55, 1777.41, 0.0710154, NaN, NaN, NaN, 0.0482207, "- N/A -   "
42.58, 1778.836, 0.07107096, NaN, NaN, NaN, 0.04577916, "- N/A -   "
42.61, 1780.39, 0.07112928, NaN, NaN, NaN, 0.04211683, "- N/A -   "
42.64, 1782.06, 0.0711904, NaN, NaN, NaN, 0.0372337, "- N/A -   "
42.67, 1783.49, 0.07124867, NaN, NaN, NaN, 0.0347922, "- N/A -   "
42.7, 1785.04, 0.07130143, NaN, NaN, NaN, 0.0323506, "- N/A -   "
42.73, 1786.35, 0.0713542, NaN, NaN, NaN, 0.03112983, "- N/A -   "
42.76, 1787.42, 0.0713986, NaN, NaN, NaN, 0.0335714, "- N/A -   "
42.79, 1788.61, 0.07144582, NaN, NaN, NaN, 0.03601294, "- N/A -   "
42.82, 1789.81, 0.07149303, NaN, NaN, NaN, 0.03601294, "- N/A -   "
42.85, 1790.88, 0.07153746, NaN, NaN, NaN, 0.0384545, "- N/A -   "
42.88, 1792.31, 0.0715902, NaN, NaN, NaN, 0.0384545, "- N/A -   "
42.91, 1793.62, 0.07164575, NaN, NaN, NaN, 0.0347922, "- N/A -   "
42.94, 1795.17, 0.07170128, NaN, NaN, NaN, 0.0323506, "- N/A -   "
42.97, 1796.49, 0.07175127, NaN, NaN, NaN, 0.0323506, "- N/A -   "
43, 1797.68, 0.07179847, NaN, NaN, NaN, 0.0335714, "- N/A -   "
43.03, 1798.99, 0.07184845, NaN, NaN, NaN, 0.0347922, "- N/A -   "
43.06, 1799.94, 0.07189288, NaN, NaN, NaN, 0.03601294, "- N/A -   "
43.09, 1801.14, 0.07193453, NaN, NaN, NaN, 0.0396753, "- N/A -   "
43.12, 1802.09, 0.071979, NaN, NaN, NaN, 0.04211683, "- N/A -   "
43.15, 1803.52, 0.07203172, NaN, NaN, NaN, 0.04211683, "- N/A -   "
43.18, 1805.07, 0.07209003, NaN, NaN, NaN, 0.0384545, "- N/A -   "
43.21, 1806.38, 0.07214, NaN, NaN, NaN, 0.0372337, "- N/A -   "
43.24, 1807.58, 0.07219, NaN, NaN, NaN, 0.0372337, "- N/A -   "
43.27, 1808.89, 0.07223997, NaN, NaN, NaN, 0.0372337, "- N/A -   "
43.3, 1810.2, 0.07228718, NaN, NaN, NaN, 0.0384545, "- N/A -   "
43.33, 1811.51, 0.0723372, NaN, NaN, NaN, 0.0384545, "- N/A -   "
43.36, 1812.7, 0.07238992, NaN, NaN, NaN, 0.0384545, "- N/A -   "
43.39, 1814.13, 0.0724399, NaN, NaN, NaN, 0.0372337, "- N/A -   "
43.42, 1815.45, 0.07249266, NaN, NaN, NaN, 0.03601294, "- N/A -   "
43.45, 1816.88, 0.0725482, NaN, NaN, NaN, 0.0335714, "- N/A -   "
43.48, 1818.19, 0.07260095, NaN, NaN, NaN, 0.0323506, "- N/A -   "
43.51, 1819.74, 0.07265371, NaN, NaN, NaN, 0.03112983, "- N/A -   "
43.54, 1820.81, 0.0727037, NaN, NaN, NaN, 0.0323506, "- N/A -   "
43.57, 1822.12, 0.0727509, NaN, NaN, NaN, 0.0323506, "- N/A -   "
43.6, 1823.44, 0.0727981, NaN, NaN, NaN, 0.0335714, "- N/A -   "
43.63, 1824.63, 0.07284808, NaN, NaN, NaN, 0.0347922, "- N/A -   "
43.66, 1825.82, 0.07289807, NaN, NaN, NaN, 0.0347922, "- N/A -   "
43.69, 1827.13, 0.07294527, NaN, NaN, NaN, 0.0347922, "- N/A -   "
43.72, 1828.445, 0.0730008, NaN, NaN, NaN, 0.0335714, "- N/A -   "
43.75, 1829.876, 0.07305078, NaN, NaN, NaN, 0.0323506, "- N/A -   "
43.77, 1830.59, 0.07308133, NaN, NaN, NaN, 0.0347922, "- N/A -   "