File: 2_Tensile_Data/Hamel_ForceTest_Bolt4_Test1.csv
Time, Load (lb), Position (in), AxialStrain (in), TransverseStrain (in), Auxiliary (), Control Out (V), Stress (psi)
0.0,1.06153,0.0, NaN, NaN, NaN,0.04577916," ""- N/A -   """
0.00999999,1.06153,1.66605e-05, NaN, NaN, NaN,0.04577916," ""- N/A -   """
0.02,1.17947,3.3321e-05, NaN, NaN, NaN,0.04577916," ""- N/A -   """
0.03,1.17947,4.99815e-05, NaN, NaN, NaN,0.04577916," ""- N/A -   """
0.04,1.29742,6.94188e-05, NaN, NaN, NaN,0.04577916," ""- N/A -   """
0.05,1.29742,8.607931e-05, NaN, NaN, NaN,0.0445584," ""- N/A -   """
0.06,1.53332,0.000108293, NaN, NaN, NaN,0.04211683," ""- N/A -   """
0.07,1.53332,0.000124954, NaN, NaN, NaN,0.0433376," ""- N/A -   """
0.08,1.53332,0.000141614, NaN, NaN, NaN,0.0433376," ""- N/A -   """
0.09,1.65126,0.000158275, NaN, NaN, NaN,0.04211683," ""- N/A -   """
0.1,1.88716,0.000174935, NaN, NaN, NaN,0.04211683," ""- N/A -   """
0.11,2.005107,0.000194373, NaN, NaN, NaN,0.04089605," ""- N/A -   """
0.12,2.005107,0.000211033, NaN, NaN, NaN,0.04089605," ""- N/A -   """
0.13,2.12305,0.0002304704, NaN, NaN, NaN,0.0396753," ""- N/A -   """
0.14,2.12305,0.0002526844, NaN, NaN, NaN,0.0372337," ""- N/A -   """
0.15,2.241,0.0002721217, NaN, NaN, NaN,0.03601294," ""- N/A -   """
0.16,2.241,0.000291559, NaN, NaN, NaN,0.0347922," ""- N/A -   """
0.17,2.35895,0.0003109962, NaN, NaN, NaN,0.0335714," ""- N/A -   """
0.18,2.59484,0.000330433, NaN, NaN, NaN,0.0323506," ""- N/A -   """
0.19,2.59484,0.000349871, NaN, NaN, NaN,0.03112983," ""- N/A -   """
0.2,2.712792,0.000369308, NaN, NaN, NaN,0.0299091," ""- N/A -   """
0.21,2.83074,0.0003859685, NaN, NaN, NaN,0.0299091," ""- N/A -   """
0.22,2.83074,0.000402629, NaN, NaN, NaN,0.0299091," ""- N/A -   """
0.23,2.94869,0.0004192895, NaN, NaN, NaN,0.0299091," ""- N/A -   """
0.24,2.94869,0.00043595, NaN, NaN, NaN,0.0299091," ""- N/A -   """
0.25,3.06663,0.000452611, NaN, NaN, NaN,0.0299091," ""- N/A -   """
0.26,3.18458,0.000469271, NaN, NaN, NaN,0.0299091," ""- N/A -   """
0.27,3.30253,0.0004831548, NaN, NaN, NaN,0.03112983," ""- N/A -   """
0.28,3.30253,0.000499815, NaN, NaN, NaN,0.03112983," ""- N/A -   """
0.29,3.42048,0.0005164758, NaN, NaN, NaN,0.03112983," ""- N/A -   """
0.3,3.42048,0.00053036, NaN, NaN, NaN,0.0323506," ""- N/A -   """
0.31,3.53842,0.0005470201, NaN, NaN, NaN,0.0323506," ""- N/A -   """
0.32,3.65637,0.0005636806, NaN, NaN, NaN,0.0323506," ""- N/A -   """
0.33,3.774319,0.000580341, NaN, NaN, NaN,0.0323506," ""- N/A -   """
0.34,3.774319,0.0005942249, NaN, NaN, NaN,0.0335714," ""- N/A -   """
0.35,3.774319,0.000608109, NaN, NaN, NaN,0.0347922," ""- N/A -   """
0.36,3.89227,0.000624769, NaN, NaN, NaN,0.0347922," ""- N/A -   """
0.37,4.010214,0.000638653, NaN, NaN, NaN,0.03601294," ""- N/A -   """
0.38,4.010214,0.0006525367, NaN, NaN, NaN,0.0372337," ""- N/A -   """
0.39,4.12816,0.0006691972, NaN, NaN, NaN,0.0372337," ""- N/A -   """
0.4,4.246109,0.000688634, NaN, NaN, NaN,0.0372337," ""- N/A -   """
0.41,4.246109,0.000705295, NaN, NaN, NaN,0.03601294," ""- N/A -   """
0.42,4.36406,0.0007219555, NaN, NaN, NaN,0.03601294," ""- N/A -   """
0.43,4.482,0.000738616, NaN, NaN, NaN,0.0372337," ""- N/A -   """
0.44,4.59995,0.0007552765, NaN, NaN, NaN,0.0372337," ""- N/A -   """
0.45,4.59995,0.000771937, NaN, NaN, NaN,0.0372337," ""- N/A -   """
0.46,4.59995,0.0007885975, NaN, NaN, NaN,0.0372337," ""- N/A -   """
0.47,4.83585,0.000805258, NaN, NaN, NaN,0.03601294," ""- N/A -   """
0.48,4.83585,0.000821919, NaN, NaN, NaN,0.03601294," ""- N/A -   """
0.49,5.071741,0.000838579, NaN, NaN, NaN,0.03601294," ""- N/A -   """
0.5,5.071741,0.0008552396, NaN, NaN, NaN,0.03601294," ""- N/A -   """
0.51,5.071741,0.0008691233, NaN, NaN, NaN,0.0372337," ""- N/A -   """
0.52,5.307636,0.0008857838, NaN, NaN, NaN,0.0372337," ""- N/A -   """
0.53,5.425584,0.000899668, NaN, NaN, NaN,0.0384545," ""- N/A -   """
0.54,5.54353,0.000913551, NaN, NaN, NaN,0.0396753," ""- N/A -   """
0.55,5.66148,0.000930212, NaN, NaN, NaN,0.0396753," ""- N/A -   """
0.56,5.779426,0.0009440956, NaN, NaN, NaN,0.04211683," ""- N/A -   """
0.57,5.779426,0.000957979, NaN, NaN, NaN,0.04211683," ""- N/A -   """
0.58,6.01532,0.000971863, NaN, NaN, NaN,0.0433376," ""- N/A -   """
0.59,6.13327,0.0009885236, NaN, NaN, NaN,0.0433376," ""- N/A -   """
0.6,6.251216,0.00100241, NaN, NaN, NaN,0.0445584," ""- N/A -   """
0.61,6.60506,0.001019068, NaN, NaN, NaN,0.0445584," ""- N/A -   """
0.62,6.723006,0.00103295, NaN, NaN, NaN,0.04577916," ""- N/A -   """
0.63,6.84095,0.00104961, NaN, NaN, NaN,0.04577916," ""- N/A -   """
0.64,6.9589,0.001063496, NaN, NaN, NaN,0.04699994," ""- N/A -   """
0.65,7.1948,0.00108016, NaN, NaN, NaN,0.04699994," ""- N/A -   """
0.66,7.312743,0.00109404, NaN, NaN, NaN,0.0482207," ""- N/A -   """
0.67,7.548638,0.0011107, NaN, NaN, NaN,0.0494415," ""- N/A -   """
0.68,7.666586,0.00112736, NaN, NaN, NaN,0.0482207," ""- N/A -   """
0.69,7.90248,0.0011468, NaN, NaN, NaN,0.04699994," ""- N/A -   """
0.7,8.256323,0.00116624, NaN, NaN, NaN,0.04699994," ""- N/A -   """
0.71,8.37427,0.0011829, NaN, NaN, NaN,0.04577916," ""- N/A -   """
0.72,8.846061,0.00120511, NaN, NaN, NaN,0.0445584," ""- N/A -   """
0.73,8.964007,0.00122455, NaN, NaN, NaN,0.04211683," ""- N/A -   """
0.74,9.31785,0.00124676, NaN, NaN, NaN,0.04089605," ""- N/A -   """
0.75,9.435798,0.0012662, NaN, NaN, NaN,0.0396753," ""- N/A -   """
0.76,9.78964,0.00128841, NaN, NaN, NaN,0.0372337," ""- N/A -   """
0.77,10.1435,0.00131063, NaN, NaN, NaN,0.0347922," ""- N/A -   """
0.78,10.26143,0.00133006, NaN, NaN, NaN,0.0335714," ""- N/A -   """
0.79,10.73322,0.00134672, NaN, NaN, NaN,0.0323506," ""- N/A -   """
0.8,10.8512,0.00136616, NaN, NaN, NaN,0.03112983," ""- N/A -   """
0.81,11.0871,0.00138282, NaN, NaN, NaN,0.03112983," ""- N/A -   """
0.82,11.323,0.00140226, NaN, NaN, NaN,0.03112983," ""- N/A -   """
0.83,11.5589,0.00141892, NaN, NaN, NaN,0.03112983," ""- N/A -   """
0.84,11.7947,0.0014328, NaN, NaN, NaN,0.03112983," ""- N/A -   """
0.85,12.0306,0.00145224, NaN, NaN, NaN,0.03112983," ""- N/A -   """
0.86,12.3845,0.0014689, NaN, NaN, NaN,0.0299091," ""- N/A -   """
0.87,12.5024,0.00148556, NaN, NaN, NaN,0.03112983," ""- N/A -   """
0.88,12.7383,0.001499446, NaN, NaN, NaN,0.03112983," ""- N/A -   """
0.89,12.8563,0.00151333, NaN, NaN, NaN,0.0323506," ""- N/A -   """
0.9,12.9742,0.00152721, NaN, NaN, NaN,0.0335714," ""- N/A -   """
0.91,13.3281,0.001543874, NaN, NaN, NaN,0.0335714," ""- N/A -   """
0.92,13.446,0.00155776, NaN, NaN, NaN,0.0347922," ""- N/A -   """
0.93,13.7999,0.00157442, NaN, NaN, NaN,0.0347922," ""- N/A -   """
0.94,14.0357,0.0015883, NaN, NaN, NaN,0.03601294," ""- N/A -   """
0.95,14.1537,0.00160774, NaN, NaN, NaN,0.0347922," ""- N/A -   """
0.96,14.5075,0.0016244, NaN, NaN, NaN,0.03601294," ""- N/A -   """
0.97,14.6255,0.00163828, NaN, NaN, NaN,0.03601294," ""- N/A -   """
0.98,14.8614,0.001654944, NaN, NaN, NaN,0.03601294," ""- N/A -   """
0.99,15.0973,0.00167438, NaN, NaN, NaN,0.03601294," ""- N/A -   """
1.0,15.4511,0.00168827, NaN, NaN, NaN,0.03601294," ""- N/A -   """
1.01,15.687,0.0017077, NaN, NaN, NaN,0.03601294," ""- N/A -   """
1.02,16.0409,0.00172436, NaN, NaN, NaN,0.0347922," ""- N/A -   """
1.03,16.27675,0.0017438, NaN, NaN, NaN,0.0347922," ""- N/A -   """
1.04,16.5126,0.00176046, NaN, NaN, NaN,0.0335714," ""- N/A -   """
1.05,16.74854,0.001779898, NaN, NaN, NaN,0.0335714," ""- N/A -   """
1.06,16.9844,0.00179656, NaN, NaN, NaN,0.0335714," ""- N/A -   """
1.07,17.2203,0.00181044, NaN, NaN, NaN,0.0335714," ""- N/A -   """
1.08,17.5742,0.0018271, NaN, NaN, NaN,0.0335714," ""- N/A -   """
1.09,17.8101,0.00184376, NaN, NaN, NaN,0.0335714," ""- N/A -   """
1.1,17.928,0.00186042, NaN, NaN, NaN,0.0335714," ""- N/A -   """
1.11,18.2819,0.00187708, NaN, NaN, NaN,0.0347922," ""- N/A -   """
1.12,18.3998,0.00189374, NaN, NaN, NaN,0.0347922," ""- N/A -   """
1.13,18.6357,0.00190763, NaN, NaN, NaN,0.0347922," ""- N/A -   """
1.14,18.8716,0.001924289, NaN, NaN, NaN,0.0347922," ""- N/A -   """
1.15,19.2254,0.00194095, NaN, NaN, NaN,0.0347922," ""- N/A -   """
1.16,19.3434,0.00195483, NaN, NaN, NaN,0.03601294," ""- N/A -   """
1.17,19.6972,0.001968717, NaN, NaN, NaN,0.0372337," ""- N/A -   """
1.18,19.8152,0.001982601, NaN, NaN, NaN,0.0384545," ""- N/A -   """
1.19,20.169,0.00199926, NaN, NaN, NaN,0.0396753," ""- N/A -   """
1.2,20.4049,0.00201037, NaN, NaN, NaN,0.04089605," ""- N/A -   """
1.21,20.52286,0.00202703, NaN, NaN, NaN,0.04089605," ""- N/A -   """
1.22,20.7588,0.00204091, NaN, NaN, NaN,0.04211683," ""- N/A -   """
1.23,20.99465,0.0020548, NaN, NaN, NaN,0.0433376," ""- N/A -   """
1.24,21.3485,0.00207146, NaN, NaN, NaN,0.0433376," ""- N/A -   """
1.25,21.46644,0.00208534, NaN, NaN, NaN,0.0445584," ""- N/A -   """
1.26,21.8203,0.002102001, NaN, NaN, NaN,0.0445584," ""- N/A -   """
1.27,22.0562,0.00211866, NaN, NaN, NaN,0.0445584," ""- N/A -   """
1.28,22.29207,0.00213532, NaN, NaN, NaN,0.0445584," ""- N/A -   """
1.29,22.528,0.00215476, NaN, NaN, NaN,0.0445584," ""- N/A -   """
1.3,22.88181,0.00217142, NaN, NaN, NaN,0.0433376," ""- N/A -   """
1.31,23.2357,0.00219086, NaN, NaN, NaN,0.0433376," ""- N/A -   """
1.32,23.4715,0.00220752, NaN, NaN, NaN,0.0433376," ""- N/A -   """
1.33,23.7074,0.0022214, NaN, NaN, NaN,0.0433376," ""- N/A -   """
1.34,24.0613,0.002240839, NaN, NaN, NaN,0.04211683," ""- N/A -   """
1.35,24.29718,0.0022575, NaN, NaN, NaN,0.0433376," ""- N/A -   """
1.36,24.65102,0.00227416, NaN, NaN, NaN,0.04211683," ""- N/A -   """
1.37,24.8869,0.00229082, NaN, NaN, NaN,0.04211683," ""- N/A -   """
1.38,25.1228,0.002307481, NaN, NaN, NaN,0.04211683," ""- N/A -   """
1.39,25.4767,0.002326918, NaN, NaN, NaN,0.04089605," ""- N/A -   """
1.4,25.8305,0.00234636, NaN, NaN, NaN,0.0396753," ""- N/A -   """
1.41,26.18434,0.00236579, NaN, NaN, NaN,0.0384545," ""- N/A -   """
1.42,26.4202,0.00238523, NaN, NaN, NaN,0.0384545," ""- N/A -   """
1.43,26.7741,0.00240189, NaN, NaN, NaN,0.0372337," ""- N/A -   """
1.44,27.1279,0.00242133, NaN, NaN, NaN,0.0372337," ""- N/A -   """
1.45,27.3638,0.002437988, NaN, NaN, NaN,0.0372337," ""- N/A -   """
1.46,27.5997,0.00245465, NaN, NaN, NaN,0.0372337," ""- N/A -   """
1.47,27.95355,0.00247131, NaN, NaN, NaN,0.03601294," ""- N/A -   """
1.48,28.3074,0.00248797, NaN, NaN, NaN,0.0372337," ""- N/A -   """
1.49,28.54329,0.00250463, NaN, NaN, NaN,0.03601294," ""- N/A -   """
1.5,28.89713,0.00252129, NaN, NaN, NaN,0.03601294," ""- N/A -   """
1.51,29.133,0.002537951, NaN, NaN, NaN,0.03601294," ""- N/A -   """
1.52,29.4869,0.002551835, NaN, NaN, NaN,0.0372337," ""- N/A -   """
1.53,29.6048,0.00257127, NaN, NaN, NaN,0.0372337," ""- N/A -   """
1.54,29.9587,0.00258793, NaN, NaN, NaN,0.0372337," ""- N/A -   """
1.55,30.1946,0.00260182, NaN, NaN, NaN,0.0372337," ""- N/A -   """
1.56,30.5484,0.00262125, NaN, NaN, NaN,0.03601294," ""- N/A -   """
1.57,30.9022,0.00263791, NaN, NaN, NaN,0.03601294," ""- N/A -   """
1.58,31.2561,0.00265457, NaN, NaN, NaN,0.03601294," ""- N/A -   """
1.59,31.492,0.00267679, NaN, NaN, NaN,0.0347922," ""- N/A -   """
1.6,31.8458,0.00269345, NaN, NaN, NaN,0.0347922," ""- N/A -   """
1.61,32.1997,0.00271011, NaN, NaN, NaN,0.0335714," ""- N/A -   """
1.62,32.4356,0.00272677, NaN, NaN, NaN,0.0335714," ""- N/A -   """
1.63,32.9073,0.002743431, NaN, NaN, NaN,0.0347922," ""- N/A -   """
1.64,33.1432,0.00276009, NaN, NaN, NaN,0.0335714," ""- N/A -   """
1.65,33.49708,0.00277675, NaN, NaN, NaN,0.0335714," ""- N/A -   """
1.66,33.73298,0.00279341, NaN, NaN, NaN,0.0335714," ""- N/A -   """
1.67,34.08682,0.00281285, NaN, NaN, NaN,0.0335714," ""- N/A -   """
1.68,34.3227,0.00282951, NaN, NaN, NaN,0.0323506," ""- N/A -   """
1.69,34.6766,0.00284895, NaN, NaN, NaN,0.0323506," ""- N/A -   """
1.7,34.9125,0.00286283, NaN, NaN, NaN,0.0323506," ""- N/A -   """
1.71,35.1483,0.00287949, NaN, NaN, NaN,0.0323506," ""- N/A -   """
1.72,35.50219,0.00289615, NaN, NaN, NaN,0.0323506," ""- N/A -   """
1.73,35.7381,0.002910036, NaN, NaN, NaN,0.0335714," ""- N/A -   """
1.74,36.0919,0.0029267, NaN, NaN, NaN,0.0335714," ""- N/A -   """
1.75,36.32782,0.002943357, NaN, NaN, NaN,0.0335714," ""- N/A -   """
1.76,36.6817,0.002957241, NaN, NaN, NaN,0.0347922," ""- N/A -   """
1.77,36.9176,0.0029739, NaN, NaN, NaN,0.0347922," ""- N/A -   """
1.78,37.2714,0.00299056, NaN, NaN, NaN,0.0347922," ""- N/A -   """
1.79,37.5073,0.00300722, NaN, NaN, NaN,0.03601294," ""- N/A -   """
1.8,37.74319,0.003021106, NaN, NaN, NaN,0.03601294," ""- N/A -   """
1.81,38.097,0.00304054, NaN, NaN, NaN,0.0347922," ""- N/A -   """
1.82,38.5688,0.003057204, NaN, NaN, NaN,0.0347922," ""- N/A -   """
1.83,38.8047,0.00307664, NaN, NaN, NaN,0.0347922," ""- N/A -   """
1.84,39.15856,0.0030933, NaN, NaN, NaN,0.0335714," ""- N/A -   """
1.85,39.5124,0.003112739, NaN, NaN, NaN,0.0323506," ""- N/A -   """
1.86,39.8662,0.00313218, NaN, NaN, NaN,0.03112983," ""- N/A -   """
1.87,40.10214,0.00314884, NaN, NaN, NaN,0.0323506," ""- N/A -   """
1.88,40.57393,0.00316272, NaN, NaN, NaN,0.0323506," ""- N/A -   """
1.89,40.8098,0.003179381, NaN, NaN, NaN,0.0323506," ""- N/A -   """
1.9,41.04572,0.00319326, NaN, NaN, NaN,0.0335714," ""- N/A -   """
1.91,41.39956,0.003209925, NaN, NaN, NaN,0.0347922," ""- N/A -   """
1.92,41.51751,0.003223809, NaN, NaN, NaN,0.0347922," ""- N/A -   """
1.93,41.9893,0.00324047, NaN, NaN, NaN,0.0347922," ""- N/A -   """
1.94,42.1072,0.003254353, NaN, NaN, NaN,0.03601294," ""- N/A -   """
1.95,42.4611,0.00327101, NaN, NaN, NaN,0.0372337," ""- N/A -   """
1.96,42.93288,0.00328767, NaN, NaN, NaN,0.0372337," ""- N/A -   """
1.97,43.1688,0.003301558, NaN, NaN, NaN,0.0372337," ""- N/A -   """
1.98,43.40467,0.00331544, NaN, NaN, NaN,0.0384545," ""- N/A -   """
1.99,43.75851,0.0033321, NaN, NaN, NaN,0.0384545," ""- N/A -   """
2,44.1124,0.00334599, NaN, NaN, NaN,0.0396753," ""- N/A -   """
2.01,44.34825,0.00335987, NaN, NaN, NaN,0.04089605," ""- N/A -   """
2.02,44.58414,0.00337375, NaN, NaN, NaN,0.04211683," ""- N/A -   """
2.03,44.93799,0.00338764, NaN, NaN, NaN,0.0433376," ""- N/A -   """
2.04,45.05593,0.00340152, NaN, NaN, NaN,0.0445584," ""- N/A -   """
2.05,45.40978,0.00341818, NaN, NaN, NaN,0.0445584," ""- N/A -   """
2.06,45.6457,0.00343484, NaN, NaN, NaN,0.04577916," ""- N/A -   """
2.07,46.23541,0.0034515, NaN, NaN, NaN,0.04577916," ""- N/A -   """
2.08,46.4713,0.00347094, NaN, NaN, NaN,0.0445584," ""- N/A -   """
2.09,46.8251,0.0034876, NaN, NaN, NaN,0.0433376," ""- N/A -   """
2.1,47.179,0.00350426, NaN, NaN, NaN,0.0433376," ""- N/A -   """
2.11,47.5328,0.00352092, NaN, NaN, NaN,0.0433376," ""- N/A -   """
2.12,47.8867,0.00353758, NaN, NaN, NaN,0.0433376," ""- N/A -   """
2.13,48.2405,0.00355702, NaN, NaN, NaN,0.04211683," ""- N/A -   """
2.14,48.7123,0.00357646, NaN, NaN, NaN,0.04089605," ""- N/A -   """
2.15,48.9482,0.00359589, NaN, NaN, NaN,0.0396753," ""- N/A -   """
2.16,49.5379,0.003615331, NaN, NaN, NaN,0.0384545," ""- N/A -   """
2.17,49.8918,0.00363754, NaN, NaN, NaN,0.0372337," ""- N/A -   """
2.18,50.2456,0.00365421, NaN, NaN, NaN,0.03601294," ""- N/A -   """
2.19,50.7174,0.00367364, NaN, NaN, NaN,0.0347922," ""- N/A -   """
2.2,50.9533,0.00369308, NaN, NaN, NaN,0.0335714," ""- N/A -   """
2.21,51.30715,0.00370974, NaN, NaN, NaN,0.0347922," ""- N/A -   """
2.22,51.7789,0.003726401, NaN, NaN, NaN,0.0335714," ""- N/A -   """
2.23,51.89689,0.00374584, NaN, NaN, NaN,0.0335714," ""- N/A -   """
2.24,52.36868,0.0037625, NaN, NaN, NaN,0.0323506," ""- N/A -   """
2.25,52.72252,0.00377916, NaN, NaN, NaN,0.0323506," ""- N/A -   """
2.26,52.9584,0.003793043, NaN, NaN, NaN,0.0335714," ""- N/A -   """
2.27,53.3123,0.00381248, NaN, NaN, NaN,0.0335714," ""- N/A -   """
2.28,53.6661,0.003829141, NaN, NaN, NaN,0.0335714," ""- N/A -   """
2.29,54.13789,0.0038458, NaN, NaN, NaN,0.0323506," ""- N/A -   """
2.3,54.3738,0.003862462, NaN, NaN, NaN,0.0323506," ""- N/A -   """
2.31,54.7276,0.00387912, NaN, NaN, NaN,0.0323506," ""- N/A -   """
2.32,55.0815,0.00389578, NaN, NaN, NaN,0.0323506," ""- N/A -   """
2.33,55.3174,0.00391244, NaN, NaN, NaN,0.0335714," ""- N/A -   """
2.34,55.6712,0.003926327, NaN, NaN, NaN,0.0335714," ""- N/A -   """
2.35,55.9071,0.00394299, NaN, NaN, NaN,0.0335714," ""- N/A -   """
2.36,56.2609,0.00395965, NaN, NaN, NaN,0.0347922," ""- N/A -   """
2.37,56.6148,0.00397631, NaN, NaN, NaN,0.0335714," ""- N/A -   """
2.38,56.9686,0.003995746, NaN, NaN, NaN,0.0323506," ""- N/A -   """
2.39,57.44042,0.00401241, NaN, NaN, NaN,0.0323506," ""- N/A -   """
2.4,57.79426,0.00403184, NaN, NaN, NaN,0.0323506," ""- N/A -   """
2.41,58.26605,0.004051281, NaN, NaN, NaN,0.0299091," ""- N/A -   """
2.42,58.6199,0.00407072, NaN, NaN, NaN,0.0286883," ""- N/A -   """
2.43,58.8558,0.00408738, NaN, NaN, NaN,0.0286883," ""- N/A -   """
2.44,59.3276,0.004104039, NaN, NaN, NaN,0.0286883," ""- N/A -   """
2.45,59.68142,0.0041207, NaN, NaN, NaN,0.0286883," ""- N/A -   """
2.46,60.0353,0.00413736, NaN, NaN, NaN,0.0286883," ""- N/A -   """
2.47,60.27116,0.004154021, NaN, NaN, NaN,0.0286883," ""- N/A -   """
2.48,60.625,0.00417068, NaN, NaN, NaN,0.0299091," ""- N/A -   """
2.49,60.97884,0.004187342, NaN, NaN, NaN,0.0299091," ""- N/A -   """
2.5,61.3327,0.00420123, NaN, NaN, NaN,0.0299091," ""- N/A -   """
2.51,61.56858,0.00421789, NaN, NaN, NaN,0.0299091," ""- N/A -   """
2.52,61.9224,0.00423177, NaN, NaN, NaN,0.03112983," ""- N/A -   """
2.53,62.1583,0.00424565, NaN, NaN, NaN,0.0323506," ""- N/A -   """
2.54,62.5122,0.004262314, NaN, NaN, NaN,0.0335714," ""- N/A -   """
2.55,62.7481,0.004276198, NaN, NaN, NaN,0.0335714," ""- N/A -   """
2.56,63.1019,0.00429008, NaN, NaN, NaN,0.0347922," ""- N/A -   """
2.57,63.33779,0.004306742, NaN, NaN, NaN,0.0347922," ""- N/A -   """
2.58,63.6916,0.00432063, NaN, NaN, NaN,0.03601294," ""- N/A -   """
2.59,63.92753,0.00433451, NaN, NaN, NaN,0.0372337," ""- N/A -   """
2.6,64.04548,0.004345617, NaN, NaN, NaN,0.0396753," ""- N/A -   """
2.61,64.28137,0.0043595, NaN, NaN, NaN,0.04089605," ""- N/A -   """
2.62,64.6352,0.004373384, NaN, NaN, NaN,0.04211683," ""- N/A -   """
2.63,64.98906,0.004387268, NaN, NaN, NaN,0.0433376," ""- N/A -   """
2.64,65.22495,0.00440393, NaN, NaN, NaN,0.0445584," ""- N/A -   """
2.65,65.5788,0.00441781, NaN, NaN, NaN,0.0445584," ""- N/A -   """
2.66,65.81469,0.004434473, NaN, NaN, NaN,0.04577916," ""- N/A -   """
2.67,66.2865,0.00444836, NaN, NaN, NaN,0.04577916," ""- N/A -   """
2.68,66.52237,0.004465017, NaN, NaN, NaN,0.04577916," ""- N/A -   """
2.69,66.87622,0.00448168, NaN, NaN, NaN,0.04577916," ""- N/A -   """
2.7,67.23006,0.004498338, NaN, NaN, NaN,0.04577916," ""- N/A -   """
2.71,67.46596,0.004515, NaN, NaN, NaN,0.04699994," ""- N/A -   """
2.72,67.9377,0.004531659, NaN, NaN, NaN,0.04577916," ""- N/A -   """
2.73,68.29159,0.004545543, NaN, NaN, NaN,0.04699994," ""- N/A -   """
2.74,68.52748,0.0045622, NaN, NaN, NaN,0.04699994," ""- N/A -   """
2.75,68.8813,0.004581641, NaN, NaN, NaN,0.04577916," ""- N/A -   """
2.76,69.35311,0.004601078, NaN, NaN, NaN,0.0445584," ""- N/A -   """
2.77,69.707,0.004620515, NaN, NaN, NaN,0.0445584," ""- N/A -   """
2.78,70.0608,0.00463718, NaN, NaN, NaN,0.0433376," ""- N/A -   """
2.79,70.5326,0.00465939, NaN, NaN, NaN,0.04211683," ""- N/A -   """
2.8,70.88643,0.004678827, NaN, NaN, NaN,0.0396753," ""- N/A -   """
2.81,71.24027,0.004695487, NaN, NaN, NaN,0.0396753," ""- N/A -   """
2.82,71.71206,0.004714925, NaN, NaN, NaN,0.0384545," ""- N/A -   """
2.83,72.06591,0.00473159, NaN, NaN, NaN,0.0384545," ""- N/A -   """
2.84,72.41975,0.004751022, NaN, NaN, NaN,0.0372337," ""- N/A -   """
2.85,72.77359,0.00477046, NaN, NaN, NaN,0.0372337," ""- N/A -   """
2.86,73.00948,0.00478712, NaN, NaN, NaN,0.03601294," ""- N/A -   """
2.87,73.48127,0.004803781, NaN, NaN, NaN,0.03601294," ""- N/A -   """
2.88,73.71717,0.00482044, NaN, NaN, NaN,0.03601294," ""- N/A -   """
2.89,74.071,0.004837102, NaN, NaN, NaN,0.0372337," ""- N/A -   """
2.9,74.42485,0.004853762, NaN, NaN, NaN,0.03601294," ""- N/A -   """
2.91,74.8966,0.004870423, NaN, NaN, NaN,0.03601294," ""- N/A -   """
2.92,75.13254,0.004887083, NaN, NaN, NaN,0.03601294," ""- N/A -   """
2.93,75.36844,0.004903744, NaN, NaN, NaN,0.03601294," ""- N/A -   """
2.94,75.8402,0.004923181, NaN, NaN, NaN,0.03601294," ""- N/A -   """
2.95,76.19407,0.004939841, NaN, NaN, NaN,0.0347922," ""- N/A -   """
2.96,76.6659,0.004959279, NaN, NaN, NaN,0.0335714," ""- N/A -   """
2.97,77.0197,0.004978716, NaN, NaN, NaN,0.0323506," ""- N/A -   """
2.98,77.37354,0.004998153, NaN, NaN, NaN,0.03112983," ""- N/A -   """
2.99,77.84533,0.00501759, NaN, NaN, NaN,0.0299091," ""- N/A -   """
3,78.19917,0.005037028, NaN, NaN, NaN,0.0286883," ""- N/A -   """
3.01,78.55301,0.00505369, NaN, NaN, NaN,0.0286883," ""- N/A -   """
3.02,78.90686,0.005070349, NaN, NaN, NaN,0.0286883," ""- N/A -   """
3.03,79.0248,0.00508979, NaN, NaN, NaN,0.0286883," ""- N/A -   """
3.04,79.4966,0.00510367, NaN, NaN, NaN,0.0286883," ""- N/A -   """
3.05,79.85043,0.00512033, NaN, NaN, NaN,0.0286883," ""- N/A -   """
3.06,80.20428,0.005136991, NaN, NaN, NaN,0.0299091," ""- N/A -   """
3.07,80.55813,0.00515365, NaN, NaN, NaN,0.0286883," ""- N/A -   """
3.08,80.912,0.00517031, NaN, NaN, NaN,0.0299091," ""- N/A -   """
3.09,81.14786,0.0051842, NaN, NaN, NaN,0.0299091," ""- N/A -   """
3.1,81.5017,0.00520086, NaN, NaN, NaN,0.0299091," ""- N/A -   """
3.11,81.7376,0.00521752, NaN, NaN, NaN,0.0299091," ""- N/A -   """
3.12,82.20939,0.005234177, NaN, NaN, NaN,0.0299091," ""- N/A -   """
3.13,82.56323,0.00525084, NaN, NaN, NaN,0.0299091," ""- N/A -   """
3.14,82.91707,0.00527028, NaN, NaN, NaN,0.0299091," ""- N/A -   """
3.15,83.15297,0.00528416, NaN, NaN, NaN,0.0299091," ""- N/A -   """
3.16,83.50681,0.00530082, NaN, NaN, NaN,0.0299091," ""- N/A -   """
3.17,83.74271,0.005314703, NaN, NaN, NaN,0.03112983," ""- N/A -   """
3.18,84.09654,0.005328587, NaN, NaN, NaN,0.0323506," ""- N/A -   """
3.19,84.33244,0.005345247, NaN, NaN, NaN,0.0323506," ""- N/A -   """
3.2,84.56834,0.00535913, NaN, NaN, NaN,0.0335714," ""- N/A -   """
3.21,84.92217,0.00537301, NaN, NaN, NaN,0.0347922," ""- N/A -   """
3.22,85.276,0.0053869, NaN, NaN, NaN,0.03601294," ""- N/A -   """
3.23,85.62987,0.00540078, NaN, NaN, NaN,0.0372337," ""- N/A -   """
3.24,85.86576,0.00541744, NaN, NaN, NaN,0.0384545," ""- N/A -   """
3.25,86.2196,0.00543133, NaN, NaN, NaN,0.0384545," ""- N/A -   """
3.26,86.33755,0.00544521, NaN, NaN, NaN,0.0396753," ""- N/A -   """
3.27,86.69139,0.00546187, NaN, NaN, NaN,0.04089605," ""- N/A -   """
3.28,87.04523,0.00547575, NaN, NaN, NaN,0.04089605," ""- N/A -   """
3.29,87.39908,0.00549242, NaN, NaN, NaN,0.04089605," ""- N/A -   """
3.3,87.75292,0.00550908, NaN, NaN, NaN,0.04089605," ""- N/A -   """
3.31,87.9888,0.00552574, NaN, NaN, NaN,0.04211683," ""- N/A -   """
3.32,88.34265,0.0055424, NaN, NaN, NaN,0.04089605," ""- N/A -   """
3.33,88.8144,0.00556183, NaN, NaN, NaN,0.04089605," ""- N/A -   """
3.34,89.16828,0.00557849, NaN, NaN, NaN,0.0396753," ""- N/A -   """
3.35,89.52213,0.005597932, NaN, NaN, NaN,0.0396753," ""- N/A -   """
3.36,89.87598,0.00561182, NaN, NaN, NaN,0.0396753," ""- N/A -   """
3.37,90.11186,0.0056257, NaN, NaN, NaN,0.04089605," ""- N/A -   """
3.38,90.4657,0.005639583, NaN, NaN, NaN,0.04211683," ""- N/A -   """
3.39,90.70161,0.00565347, NaN, NaN, NaN,0.0433376," ""- N/A -   """
3.4,90.9375,0.00567013, NaN, NaN, NaN,0.04577916," ""- N/A -   """
3.41,91.2913,0.00568401, NaN, NaN, NaN,0.04577916," ""- N/A -   """
3.42,91.64519,0.00570067, NaN, NaN, NaN,0.04577916," ""- N/A -   """
3.43,91.88108,0.00571456, NaN, NaN, NaN,0.04699994," ""- N/A -   """
3.44,92.23492,0.00573122, NaN, NaN, NaN,0.04699994," ""- N/A -   """
3.45,92.58876,0.00574788, NaN, NaN, NaN,0.04699994," ""- N/A -   """
3.46,92.94261,0.00576454, NaN, NaN, NaN,0.04699994," ""- N/A -   """
3.47,93.41439,0.00578397, NaN, NaN, NaN,0.04699994," ""- N/A -   """
3.48,93.76824,0.00580341, NaN, NaN, NaN,0.0445584," ""- N/A -   """
3.49,94.24,0.00582285, NaN, NaN, NaN,0.0433376," ""- N/A -   """
3.5,94.59387,0.00584229, NaN, NaN, NaN,0.04211683," ""- N/A -   """
3.51,95.06567,0.005861723, NaN, NaN, NaN,0.04089605," ""- N/A -   """
3.52,95.41951,0.00588116, NaN, NaN, NaN,0.0396753," ""- N/A -   """
3.53,95.8913,0.00590337, NaN, NaN, NaN,0.0372337," ""- N/A -   """
3.54,96.36309,0.00592281, NaN, NaN, NaN,0.03601294," ""- N/A -   """
3.55,96.71693,0.00594225, NaN, NaN, NaN,0.0347922," ""- N/A -   """
3.56,97.30666,0.005964463, NaN, NaN, NaN,0.0323506," ""- N/A -   """
3.57,97.54256,0.0059839, NaN, NaN, NaN,0.03112983," ""- N/A -   """
3.58,98.01435,0.00600056, NaN, NaN, NaN,0.03112983," ""- N/A -   """
3.59,98.2502,0.006017221, NaN, NaN, NaN,0.03112983," ""- N/A -   """
3.6,98.72203,0.006036659, NaN, NaN, NaN,0.0299091," ""- N/A -   """
3.61,98.9579,0.00605332, NaN, NaN, NaN,0.03112983," ""- N/A -   """
3.62,99.3118,0.00606998, NaN, NaN, NaN,0.0299091," ""- N/A -   """
3.63,99.54767,0.006083863, NaN, NaN, NaN,0.03112983," ""- N/A -   """
3.64,100.019,0.00610052, NaN, NaN, NaN,0.03112983," ""- N/A -   """
3.65,100.255,0.006114408, NaN, NaN, NaN,0.0323506," ""- N/A -   """
3.66,100.6092,0.006131068, NaN, NaN, NaN,0.0323506," ""- N/A -   """
3.67,100.963,0.006147729, NaN, NaN, NaN,0.0323506," ""- N/A -   """
3.68,101.317,0.006164389, NaN, NaN, NaN,0.0323506," ""- N/A -   """
3.69,101.671,0.00618383, NaN, NaN, NaN,0.03112983," ""- N/A -   """
3.7,102.025,0.006203264, NaN, NaN, NaN,0.0299091," ""- N/A -   """
3.71,102.3784,0.006219924, NaN, NaN, NaN,0.03112983," ""- N/A -   """
3.72,102.732,0.006236585, NaN, NaN, NaN,0.03112983," ""- N/A -   """
3.73,103.086,0.006250468, NaN, NaN, NaN,0.03112983," ""- N/A -   """
3.74,103.322,0.006267129, NaN, NaN, NaN,0.03112983," ""- N/A -   """
3.75,103.676,0.00628379, NaN, NaN, NaN,0.0323506," ""- N/A -   """
3.76,104.03,0.006297673, NaN, NaN, NaN,0.0323506," ""- N/A -   """
3.77,104.266,0.006314334, NaN, NaN, NaN,0.0323506," ""- N/A -   """
3.78,104.737,0.006330994, NaN, NaN, NaN,0.0323506," ""- N/A -   """
3.79,104.973,0.006347655, NaN, NaN, NaN,0.0323506," ""- N/A -   """
3.8,105.327,0.00636432, NaN, NaN, NaN,0.0335714," ""- N/A -   """
3.81,105.563,0.006378199, NaN, NaN, NaN,0.0335714," ""- N/A -   """
3.82,105.917,0.00639486, NaN, NaN, NaN,0.0335714," ""- N/A -   """
3.83,106.271,0.00641152, NaN, NaN, NaN,0.0335714," ""- N/A -   """
3.84,106.625,0.006425404, NaN, NaN, NaN,0.0347922," ""- N/A -   """
3.85,106.978,0.00644206, NaN, NaN, NaN,0.0347922," ""- N/A -   """
3.86,107.214,0.006455948, NaN, NaN, NaN,0.03601294," ""- N/A -   """
3.87,107.568,0.006472609, NaN, NaN, NaN,0.03601294," ""- N/A -   """
3.88,107.922,0.006489269, NaN, NaN, NaN,0.03601294," ""- N/A -   """
3.89,108.394,0.006508706, NaN, NaN, NaN,0.03601294," ""- N/A -   """
3.9,108.63,0.006525367, NaN, NaN, NaN,0.0347922," ""- N/A -   """
3.91,108.983,0.00654203, NaN, NaN, NaN,0.0347922," ""- N/A -   """
3.92,109.3373,0.006558688, NaN, NaN, NaN,0.0347922," ""- N/A -   """
3.93,109.5732,0.00657535, NaN, NaN, NaN,0.03601294," ""- N/A -   """
3.94,109.927,0.006589232, NaN, NaN, NaN,0.03601294," ""- N/A -   """
3.95,110.281,0.006605893, NaN, NaN, NaN,0.0372337," ""- N/A -   """
3.96,110.517,0.006617, NaN, NaN, NaN,0.0384545," ""- N/A -   """
3.97,110.871,0.00663366, NaN, NaN, NaN,0.0396753," ""- N/A -   """
3.98,110.989,0.00664477, NaN, NaN, NaN,0.04089605," ""- N/A -   """
3.99,111.342,0.006658651, NaN, NaN, NaN,0.04211683," ""- N/A -   """
4,111.578,0.006672535, NaN, NaN, NaN,0.0433376," ""- N/A -   """
4.01,111.696,0.00668642, NaN, NaN, NaN,0.0445584," ""- N/A -   """
4.02,112.168,0.0067003, NaN, NaN, NaN,0.04577916," ""- N/A -   """
4.03,112.522,0.006716963, NaN, NaN, NaN,0.04699994," ""- N/A -   """
4.04,112.876,0.00673362, NaN, NaN, NaN,0.04577916," ""- N/A -   """
4.05,113.112,0.006750284, NaN, NaN, NaN,0.04699994," ""- N/A -   """
4.06,113.583,0.006766944, NaN, NaN, NaN,0.04577916," ""- N/A -   """
4.07,113.819,0.006783605, NaN, NaN, NaN,0.04577916," ""- N/A -   """
4.08,114.2911,0.00680027, NaN, NaN, NaN,0.04699994," ""- N/A -   """
4.09,114.409,0.006816926, NaN, NaN, NaN,0.04699994," ""- N/A -   """
4.1,114.999,0.00683359, NaN, NaN, NaN,0.04577916," ""- N/A -   """
4.11,115.353,0.00685302, NaN, NaN, NaN,0.04577916," ""- N/A -   """
4.12,115.824,0.006872461, NaN, NaN, NaN,0.0433376," ""- N/A -   """
4.13,116.296,0.0068919, NaN, NaN, NaN,0.0433376," ""- N/A -   """
4.14,116.65,0.00691134, NaN, NaN, NaN,0.04089605," ""- N/A -   """
4.15,117.004,0.00693077, NaN, NaN, NaN,0.0396753," ""- N/A -   """
4.16,117.476,0.00695021, NaN, NaN, NaN,0.0384545," ""- N/A -   """
4.17,117.83,0.00696965, NaN, NaN, NaN,0.0372337," ""- N/A -   """
4.18,118.301,0.00698908, NaN, NaN, NaN,0.03601294," ""- N/A -   """
4.19,118.655,0.00700852, NaN, NaN, NaN,0.03601294," ""- N/A -   """
4.2,119.127,0.00702518, NaN, NaN, NaN,0.0347922," ""- N/A -   """
4.21,119.481,0.00704462, NaN, NaN, NaN,0.0335714," ""- N/A -   """
4.22,119.717,0.00706128, NaN, NaN, NaN,0.0335714," ""- N/A -   """
4.23,120.071,0.00707794, NaN, NaN, NaN,0.0335714," ""- N/A -   """
4.24,120.424,0.007094601, NaN, NaN, NaN,0.0335714," ""- N/A -   """
4.25,120.778,0.00711404, NaN, NaN, NaN,0.0323506," ""- N/A -   """
4.26,121.132,0.0071307, NaN, NaN, NaN,0.0323506," ""- N/A -   """
4.27,121.604,0.00715014, NaN, NaN, NaN,0.03112983," ""- N/A -   """
4.28,121.958,0.00716402, NaN, NaN, NaN,0.0323506," ""- N/A -   """
4.29,122.194,0.00718068, NaN, NaN, NaN,0.0335714," ""- N/A -   """
4.3,122.429,0.007194564, NaN, NaN, NaN,0.0335714," ""- N/A -   """
4.31,122.783,0.00721122, NaN, NaN, NaN,0.0335714," ""- N/A -   """
4.32,123.137,0.00722789, NaN, NaN, NaN,0.0335714," ""- N/A -   """
4.33,123.491,0.00724455, NaN, NaN, NaN,0.0335714," ""- N/A -   """
4.34,123.845,0.00726121, NaN, NaN, NaN,0.0347922," ""- N/A -   """
4.35,124.199,0.00727509, NaN, NaN, NaN,0.0347922," ""- N/A -   """
4.36,124.435,0.00729175, NaN, NaN, NaN,0.0347922," ""- N/A -   """
4.37,124.788,0.007308411, NaN, NaN, NaN,0.0347922," ""- N/A -   """
4.38,125.142,0.00732507, NaN, NaN, NaN,0.03601294," ""- N/A -   """
4.39,125.378,0.00733896, NaN, NaN, NaN,0.03601294," ""- N/A -   """
4.4,125.85,0.00735562, NaN, NaN, NaN,0.03601294," ""- N/A -   """
4.41,126.204,0.00737505, NaN, NaN, NaN,0.0347922," ""- N/A -   """
4.42,126.558,0.00739449, NaN, NaN, NaN,0.0335714," ""- N/A -   """
4.43,126.911,0.00741115, NaN, NaN, NaN,0.0335714," ""- N/A -   """
4.44,127.383,0.007430588, NaN, NaN, NaN,0.0323506," ""- N/A -   """
4.45,127.737,0.007447249, NaN, NaN, NaN,0.0323506," ""- N/A -   """
4.46,128.091,0.007466686, NaN, NaN, NaN,0.0323506," ""- N/A -   """
4.47,128.4448,0.00748335, NaN, NaN, NaN,0.03112983," ""- N/A -   """
4.48,128.799,0.007500007, NaN, NaN, NaN,0.03112983," ""- N/A -   """
4.49,129.152,0.007519444, NaN, NaN, NaN,0.0299091," ""- N/A -   """
4.5,129.624,0.007536105, NaN, NaN, NaN,0.0299091," ""- N/A -   """
4.51,129.86,0.007552765, NaN, NaN, NaN,0.0299091," ""- N/A -   """
4.52,130.214,0.00756943, NaN, NaN, NaN,0.0299091," ""- N/A -   """
4.53,130.568,0.00758331, NaN, NaN, NaN,0.03112983," ""- N/A -   """
4.54,130.804,0.007597193, NaN, NaN, NaN,0.0323506," ""- N/A -   """
4.55,131.1576,0.007611077, NaN, NaN, NaN,0.0335714," ""- N/A -   """
4.56,131.393,0.00762774, NaN, NaN, NaN,0.0335714," ""- N/A -   """
4.57,131.747,0.0076444, NaN, NaN, NaN,0.0335714," ""- N/A -   """
4.58,132.101,0.00766106, NaN, NaN, NaN,0.0335714," ""- N/A -   """
4.59,132.337,0.007674942, NaN, NaN, NaN,0.0347922," ""- N/A -   """
4.6,132.6909,0.0076916, NaN, NaN, NaN,0.03601294," ""- N/A -   """
4.61,133.045,0.007705487, NaN, NaN, NaN,0.03601294," ""- N/A -   """
4.62,133.281,0.00771937, NaN, NaN, NaN,0.0384545," ""- N/A -   """
4.63,133.517,0.00773325, NaN, NaN, NaN,0.0384545," ""- N/A -   """
4.64,133.752,0.00774436, NaN, NaN, NaN,0.04089605," ""- N/A -   """
4.65,134.224,0.00776102, NaN, NaN, NaN,0.04089605," ""- N/A -   """
4.66,134.46,0.007777682, NaN, NaN, NaN,0.04089605," ""- N/A -   """
4.67,134.814,0.007794343, NaN, NaN, NaN,0.04211683," ""- N/A -   """
4.68,135.1678,0.007811003, NaN, NaN, NaN,0.04089605," ""- N/A -   """
4.69,135.522,0.007827664, NaN, NaN, NaN,0.04089605," ""- N/A -   """
4.7,135.875,0.007844324, NaN, NaN, NaN,0.04089605," ""- N/A -   """
4.71,136.347,0.007863761, NaN, NaN, NaN,0.0396753," ""- N/A -   """
4.72,136.583,0.007880422, NaN, NaN, NaN,0.0396753," ""- N/A -   """
4.73,137.055,0.007897082, NaN, NaN, NaN,0.0396753," ""- N/A -   """
4.74,137.291,0.007913743, NaN, NaN, NaN,0.0396753," ""- N/A -   """
4.75,137.6447,0.007930404, NaN, NaN, NaN,0.0396753," ""- N/A -   """
4.76,137.999,0.007944287, NaN, NaN, NaN,0.04089605," ""- N/A -   """
4.77,138.352,0.007960948, NaN, NaN, NaN,0.04089605," ""- N/A -   """
4.78,138.706,0.007977608, NaN, NaN, NaN,0.04089605," ""- N/A -   """
4.79,139.06,0.007994269, NaN, NaN, NaN,0.04089605," ""- N/A -   """
4.8,139.296,0.008010929, NaN, NaN, NaN,0.04089605," ""- N/A -   """
4.81,139.65,0.00802759, NaN, NaN, NaN,0.04089605," ""- N/A -   """
4.82,140.004,0.00804425, NaN, NaN, NaN,0.04089605," ""- N/A -   """
4.83,140.357,0.008060911, NaN, NaN, NaN,0.04211683," ""- N/A -   """
4.84,140.829,0.008077571, NaN, NaN, NaN,0.04089605," ""- N/A -   """
4.85,141.183,0.008097008, NaN, NaN, NaN,0.04089605," ""- N/A -   """
4.86,141.537,0.008116446, NaN, NaN, NaN,0.0396753," ""- N/A -   """
4.87,141.891,0.008133106, NaN, NaN, NaN,0.0384545," ""- N/A -   """
4.88,142.3626,0.008149767, NaN, NaN, NaN,0.0384545," ""- N/A -   """
4.89,142.8344,0.008169204, NaN, NaN, NaN,0.0372337," ""- N/A -   """
4.9,143.07,0.008185864, NaN, NaN, NaN,0.0372337," ""- N/A -   """
4.91,143.424,0.008202525, NaN, NaN, NaN,0.0372337," ""- N/A -   """
4.92,143.778,0.00822196, NaN, NaN, NaN,0.0372337," ""- N/A -   """
4.93,144.132,0.008241399, NaN, NaN, NaN,0.03601294," ""- N/A -   """
4.94,144.486,0.008255283, NaN, NaN, NaN,0.03601294," ""- N/A -   """
4.95,144.8395,0.008271944, NaN, NaN, NaN,0.03601294," ""- N/A -   """
4.96,145.193,0.008288604, NaN, NaN, NaN,0.03601294," ""- N/A -   """
4.97,145.547,0.008305265, NaN, NaN, NaN,0.03601294," ""- N/A -   """
4.98,145.901,0.008324702, NaN, NaN, NaN,0.0347922," ""- N/A -   """
4.99,146.255,0.008344139, NaN, NaN, NaN,0.0347922," ""- N/A -   """
5,146.6087,0.008358023, NaN, NaN, NaN,0.0347922," ""- N/A -   """
5.01,146.963,0.008374684, NaN, NaN, NaN,0.0347922," ""- N/A -   """
5.02,147.316,0.008391344, NaN, NaN, NaN,0.0347922," ""- N/A -   """
5.03,147.67,0.008408004, NaN, NaN, NaN,0.0347922," ""- N/A -   """
5.04,148.024,0.008427442, NaN, NaN, NaN,0.0347922," ""- N/A -   """
5.05,148.378,0.0084441, NaN, NaN, NaN,0.0335714," ""- N/A -   """
5.06,148.6138,0.008460763, NaN, NaN, NaN,0.0335714," ""- N/A -   """
5.07,149.0856,0.008477423, NaN, NaN, NaN,0.0335714," ""- N/A -   """
5.08,149.439,0.008494084, NaN, NaN, NaN,0.0347922," ""- N/A -   """
5.09,149.675,0.008507968, NaN, NaN, NaN,0.0347922," ""- N/A -   """
5.1,150.029,0.008524628, NaN, NaN, NaN,0.0347922," ""- N/A -   """
5.11,150.383,0.008541289, NaN, NaN, NaN,0.0347922," ""- N/A -   """
5.12,150.737,0.008560726, NaN, NaN, NaN,0.0347922," ""- N/A -   """
5.13,151.091,0.008577387, NaN, NaN, NaN,0.0335714," ""- N/A -   """
5.14,151.5625,0.008596824, NaN, NaN, NaN,0.0323506," ""- N/A -   """
5.15,151.916,0.008613484, NaN, NaN, NaN,0.0323506," ""- N/A -   """
5.16,152.388,0.008632922, NaN, NaN, NaN,0.03112983," ""- N/A -   """
5.17,152.624,0.008649582, NaN, NaN, NaN,0.03112983," ""- N/A -   """
5.18,152.978,0.00866624, NaN, NaN, NaN,0.03112983," ""- N/A -   """
5.19,153.332,0.008682903, NaN, NaN, NaN,0.03112983," ""- N/A -   """
5.2,153.686,0.008699563, NaN, NaN, NaN,0.03112983," ""- N/A -   """
5.21,154.0394,0.008716225, NaN, NaN, NaN,0.03112983," ""- N/A -   """
5.22,154.393,0.008730108, NaN, NaN, NaN,0.0323506," ""- N/A -   """
5.23,154.629,0.008746768, NaN, NaN, NaN,0.0323506," ""- N/A -   """
5.24,154.865,0.008763429, NaN, NaN, NaN,0.0335714," ""- N/A -   """
5.25,155.337,0.008780089, NaN, NaN, NaN,0.0335714," ""- N/A -   """
5.26,155.691,0.00879675, NaN, NaN, NaN,0.0323506," ""- N/A -   """
5.27,156.0445,0.008816187, NaN, NaN, NaN,0.0323506," ""- N/A -   """
5.28,156.2804,0.00883007, NaN, NaN, NaN,0.0323506," ""- N/A -   """
5.29,156.634,0.008843955, NaN, NaN, NaN,0.0335714," ""- N/A -   """
5.3,156.87,0.008860615, NaN, NaN, NaN,0.0347922," ""- N/A -   """
5.31,157.224,0.008874499, NaN, NaN, NaN,0.0347922," ""- N/A -   """
5.32,157.46,0.008888382, NaN, NaN, NaN,0.03601294," ""- N/A -   """
5.33,157.696,0.008905044, NaN, NaN, NaN,0.03601294," ""- N/A -   """
5.34,158.168,0.008921703, NaN, NaN, NaN,0.0372337," ""- N/A -   """
5.35,158.521,0.00893559, NaN, NaN, NaN,0.0372337," ""- N/A -   """
5.36,158.7573,0.008952248, NaN, NaN, NaN,0.0384545," ""- N/A -   """
5.37,159.111,0.008966132, NaN, NaN, NaN,0.0384545," ""- N/A -   """
5.38,159.347,0.00898279, NaN, NaN, NaN,0.0384545," ""- N/A -   """
5.39,159.701,0.008996676, NaN, NaN, NaN,0.0396753," ""- N/A -   """
5.4,159.819,0.009013337, NaN, NaN, NaN,0.04089605," ""- N/A -   """
5.41,160.2906,0.00902722, NaN, NaN, NaN,0.04089605," ""- N/A -   """
5.42,160.644,0.009043881, NaN, NaN, NaN,0.04089605," ""- N/A -   """
5.43,160.998,0.009060541, NaN, NaN, NaN,0.04089605," ""- N/A -   """
5.44,161.234,0.009077202, NaN, NaN, NaN,0.04089605," ""- N/A -   """
5.45,161.588,0.009091086, NaN, NaN, NaN,0.04211683," ""- N/A -   """
5.46,161.942,0.00910497, NaN, NaN, NaN,0.0433376," ""- N/A -   """
5.47,162.178,0.009121629, NaN, NaN, NaN,0.0433376," ""- N/A -   """
5.48,162.532,0.009135514, NaN, NaN, NaN,0.0445584," ""- N/A -   """
5.49,162.885,0.009152174, NaN, NaN, NaN,0.0445584," ""- N/A -   """
5.5,163.121,0.009168834, NaN, NaN, NaN,0.04577916," ""- N/A -   """
5.51,163.475,0.009185495, NaN, NaN, NaN,0.04577916," ""- N/A -   """
5.52,163.829,0.009199379, NaN, NaN, NaN,0.04577916," ""- N/A -   """
5.53,164.301,0.009218816, NaN, NaN, NaN,0.0445584," ""- N/A -   """
5.54,164.537,0.009235477, NaN, NaN, NaN,0.0445584," ""- N/A -   """
5.55,165.009,0.009254914, NaN, NaN, NaN,0.0433376," ""- N/A -   """
5.56,165.4803,0.009271575, NaN, NaN, NaN,0.0433376," ""- N/A -   """
5.57,165.834,0.009293789, NaN, NaN, NaN,0.04211683," ""- N/A -   """
5.58,166.306,0.009313226, NaN, NaN, NaN,0.0396753," ""- N/A -   """
5.59,166.778,0.00933544, NaN, NaN, NaN,0.0384545," ""- N/A -   """
5.6,167.132,0.0093521, NaN, NaN, NaN,0.0372337," ""- N/A -   """
5.61,167.603,0.009374314, NaN, NaN, NaN,0.03601294," ""- N/A -   """
5.62,167.9572,0.009390974, NaN, NaN, NaN,0.0347922," ""- N/A -   """
5.63,168.429,0.009410412, NaN, NaN, NaN,0.0335714," ""- N/A -   """
5.64,168.783,0.00942707, NaN, NaN, NaN,0.0335714," ""- N/A -   """
5.65,169.137,0.00944651, NaN, NaN, NaN,0.0323506," ""- N/A -   """
5.66,169.491,0.009460394, NaN, NaN, NaN,0.0335714," ""- N/A -   """
5.67,169.608,0.009477054, NaN, NaN, NaN,0.0335714," ""- N/A -   """
5.68,170.08,0.009493714, NaN, NaN, NaN,0.0347922," ""- N/A -   """
5.69,170.316,0.009510376, NaN, NaN, NaN,0.0347922," ""- N/A -   """
5.7,170.67,0.009524259, NaN, NaN, NaN,0.0347922," ""- N/A -   """
5.71,171.024,0.00954092, NaN, NaN, NaN,0.0347922," ""- N/A -   """
5.72,171.378,0.00955758, NaN, NaN, NaN,0.0347922," ""- N/A -   """
5.73,171.732,0.00957424, NaN, NaN, NaN,0.0347922," ""- N/A -   """
5.74,171.9674,0.0095909, NaN, NaN, NaN,0.0347922," ""- N/A -   """
5.75,172.321,0.009607562, NaN, NaN, NaN,0.0347922," ""- N/A -   """
5.76,172.6751,0.009624222, NaN, NaN, NaN,0.0347922," ""- N/A -   """
5.77,173.029,0.009640883, NaN, NaN, NaN,0.03601294," ""- N/A -   """
5.78,173.383,0.009657542, NaN, NaN, NaN,0.0347922," ""- N/A -   """
5.79,173.737,0.009674204, NaN, NaN, NaN,0.0347922," ""- N/A -   """
5.8,174.208,0.00969364, NaN, NaN, NaN,0.0335714," ""- N/A -   """
5.81,174.4443,0.009715854, NaN, NaN, NaN,0.0323506," ""- N/A -   """
5.82,174.9161,0.009735292, NaN, NaN, NaN,0.03112983," ""- N/A -   """
5.83,175.27,0.009751952, NaN, NaN, NaN,0.03112983," ""- N/A -   """
5.84,175.742,0.009768613, NaN, NaN, NaN,0.0299091," ""- N/A -   """
5.85,176.214,0.00978805, NaN, NaN, NaN,0.0286883," ""- N/A -   """
5.86,176.449,0.009807488, NaN, NaN, NaN,0.0286883," ""- N/A -   """
[...]
24.59,845.2778,0.0409876, NaN, NaN, NaN,0.0433376," ""- N/A -   """
24.61,846.224,0.04102929, NaN, NaN, NaN,0.04089605," ""- N/A -   """
24.63,847.4068,0.0410682, NaN, NaN, NaN,0.0372337," ""- N/A -   """
24.65,848.4713,0.04110981, NaN, NaN, NaN,0.0347922," ""- N/A -   """
24.67,849.4176,0.04114869, NaN, NaN, NaN,0.03112983," ""- N/A -   """
24.69,850.364,0.0411848, NaN, NaN, NaN,0.0299091," ""- N/A -   """
24.71,851.1918,0.0412209, NaN, NaN, NaN,0.0286883," ""- N/A -   """
24.73,852.0198,0.0412542, NaN, NaN, NaN,0.0286883," ""- N/A -   """
24.75,852.729,0.0412847, NaN, NaN, NaN,0.0299091," ""- N/A -   """
24.77,853.321,0.0413153, NaN, NaN, NaN,0.03112983," ""- N/A -   """
24.79,854.149,0.04134584, NaN, NaN, NaN,0.0323506," ""- N/A -   """
24.81,854.74,0.0413736, NaN, NaN, NaN,0.0347922," ""- N/A -   """
24.83,855.4499,0.04140415, NaN, NaN, NaN,0.03601294," ""- N/A -   """
24.85,856.278,0.0414347, NaN, NaN, NaN,0.0372337," ""- N/A -   """
24.87,857.1059,0.041468, NaN, NaN, NaN,0.0384545," ""- N/A -   """
24.89,857.816,0.0414986, NaN, NaN, NaN,0.0384545," ""- N/A -   """
24.91,858.6435,0.04153743, NaN, NaN, NaN,0.0372337," ""- N/A -   """
24.93,859.8263,0.0415763, NaN, NaN, NaN,0.0347922," ""- N/A -   """
24.95,860.7725,0.0416152, NaN, NaN, NaN,0.0323506," ""- N/A -   """
24.97,861.6,0.0416485, NaN, NaN, NaN,0.03112983," ""- N/A -   """
24.99,862.4285,0.0416818, NaN, NaN, NaN,0.03112983," ""- N/A -   """
25.01,863.1382,0.0417124, NaN, NaN, NaN,0.0323506," ""- N/A -   """
25.03,863.848,0.0417429, NaN, NaN, NaN,0.0335714," ""- N/A -   """
25.05,864.558,0.0417762, NaN, NaN, NaN,0.0347922," ""- N/A -   """
25.07,865.3855,0.0418068, NaN, NaN, NaN,0.03601294," ""- N/A -   """
25.09,866.095,0.04183177, NaN, NaN, NaN,0.0384545," ""- N/A -   """
25.11,866.6866,0.0418595, NaN, NaN, NaN,0.04089605," ""- N/A -   """
25.13,867.3963,0.0418929, NaN, NaN, NaN,0.04211683," ""- N/A -   """
25.15,868.3425,0.0419262, NaN, NaN, NaN,0.04089605," ""- N/A -   """
25.17,869.289,0.0419623, NaN, NaN, NaN,0.0396753," ""- N/A -   """
25.19,870.235,0.04199837, NaN, NaN, NaN,0.0384545," ""- N/A -   """
25.21,871.063,0.0420317, NaN, NaN, NaN,0.0384545," ""- N/A -   """
25.23,871.773,0.042065, NaN, NaN, NaN,0.0396753," ""- N/A -   """
25.25,872.719,0.04209834, NaN, NaN, NaN,0.0384545," ""- N/A -   """
25.27,873.4286,0.04212888, NaN, NaN, NaN,0.0396753," ""- N/A -   """
25.29,874.3748,0.042165, NaN, NaN, NaN,0.0384545," ""- N/A -   """
25.31,875.3211,0.0422039, NaN, NaN, NaN,0.0372337," ""- N/A -   """
25.33,876.149,0.0422372, NaN, NaN, NaN,0.0372337," ""- N/A -   """
25.35,876.977,0.0422705, NaN, NaN, NaN,0.0372337," ""- N/A -   """
25.37,877.805,0.0423038, NaN, NaN, NaN,0.03601294," ""- N/A -   """
25.39,878.633,0.04233714, NaN, NaN, NaN,0.03601294," ""- N/A -   """
25.41,879.579,0.0423732, NaN, NaN, NaN,0.03601294," ""- N/A -   """
25.43,880.171,0.0424038, NaN, NaN, NaN,0.03601294," ""- N/A -   """
25.45,880.9986,0.0424371, NaN, NaN, NaN,0.03601294," ""- N/A -   """
25.47,881.827,0.04247042, NaN, NaN, NaN,0.03601294," ""- N/A -   """
25.49,882.655,0.04250652, NaN, NaN, NaN,0.0347922," ""- N/A -   """
25.51,883.719,0.0425454, NaN, NaN, NaN,0.0335714," ""- N/A -   """
25.53,884.6653,0.04258149, NaN, NaN, NaN,0.03112983," ""- N/A -   """
25.55,885.4933,0.04261481, NaN, NaN, NaN,0.0323506," ""- N/A -   """
25.57,886.3212,0.0426481, NaN, NaN, NaN,0.03112983," ""- N/A -   """
25.59,887.386,0.0426842, NaN, NaN, NaN,0.0299091," ""- N/A -   """
25.61,888.095,0.04272033, NaN, NaN, NaN,0.0286883," ""- N/A -   """
25.63,889.0417,0.04275365, NaN, NaN, NaN,0.0286883," ""- N/A -   """
25.65,889.633,0.0427842, NaN, NaN, NaN,0.03112983," ""- N/A -   """
25.67,890.3427,0.04281196, NaN, NaN, NaN,0.0323506," ""- N/A -   """
25.69,891.1707,0.0428425, NaN, NaN, NaN,0.0335714," ""- N/A -   """
25.71,891.88,0.0428758, NaN, NaN, NaN,0.0347922," ""- N/A -   """
25.73,892.7084,0.04290915, NaN, NaN, NaN,0.0347922," ""- N/A -   """
25.75,893.5364,0.0429425, NaN, NaN, NaN,0.0347922," ""- N/A -   """
25.77,894.3643,0.04297579, NaN, NaN, NaN,0.0347922," ""- N/A -   """
25.79,895.074,0.04300356, NaN, NaN, NaN,0.0372337," ""- N/A -   """
25.81,895.6654,0.0430341, NaN, NaN, NaN,0.0384545," ""- N/A -   """
25.83,896.4934,0.0430646, NaN, NaN, NaN,0.0396753," ""- N/A -   """
25.85,897.203,0.0430952, NaN, NaN, NaN,0.0396753," ""- N/A -   """
25.87,898.1493,0.0431257, NaN, NaN, NaN,0.04089605," ""- N/A -   """
25.89,898.859,0.0431563, NaN, NaN, NaN,0.04211683," ""- N/A -   """
25.91,899.4504,0.04318682, NaN, NaN, NaN,0.0433376," ""- N/A -   """
25.93,900.16,0.04321737, NaN, NaN, NaN,0.04577916," ""- N/A -   """
25.95,900.9881,0.0432479, NaN, NaN, NaN,0.04577916," ""- N/A -   """
25.97,902.053,0.04328679, NaN, NaN, NaN,0.0445584," ""- N/A -   """
25.99,902.8805,0.04332011, NaN, NaN, NaN,0.0433376," ""- N/A -   """
26.01,903.7085,0.0433534, NaN, NaN, NaN,0.0433376," ""- N/A -   """
26.03,904.6547,0.0433895, NaN, NaN, NaN,0.0433376," ""- N/A -   """
26.05,905.719,0.0434256, NaN, NaN, NaN,0.04211683," ""- N/A -   """
26.07,906.6655,0.0434673, NaN, NaN, NaN,0.0384545," ""- N/A -   """
26.09,907.73,0.0435089, NaN, NaN, NaN,0.0347922," ""- N/A -   """
26.11,908.676,0.0435478, NaN, NaN, NaN,0.0335714," ""- N/A -   """
26.13,909.5043,0.04358112, NaN, NaN, NaN,0.0323506," ""- N/A -   """
26.15,910.3322,0.0436117, NaN, NaN, NaN,0.0335714," ""- N/A -   """
26.17,911.0419,0.04364221, NaN, NaN, NaN,0.0347922," ""- N/A -   """
26.19,911.752,0.04367831, NaN, NaN, NaN,0.0347922," ""- N/A -   """
26.21,912.5796,0.0437089, NaN, NaN, NaN,0.03601294," ""- N/A -   """
26.23,913.408,0.0437422, NaN, NaN, NaN,0.03601294," ""- N/A -   """
26.25,914.236,0.0437727, NaN, NaN, NaN,0.03601294," ""- N/A -   """
26.27,915.182,0.043806, NaN, NaN, NaN,0.03601294," ""- N/A -   """
26.29,916.0097,0.0438421, NaN, NaN, NaN,0.0347922," ""- N/A -   """
26.31,916.956,0.04388101, NaN, NaN, NaN,0.0323506," ""- N/A -   """
26.33,917.9022,0.04391433, NaN, NaN, NaN,0.0323506," ""- N/A -   """
26.35,918.73,0.0439504, NaN, NaN, NaN,0.03112983," ""- N/A -   """
26.37,919.558,0.043981, NaN, NaN, NaN,0.0323506," ""- N/A -   """
26.39,920.2678,0.04401152, NaN, NaN, NaN,0.0335714," ""- N/A -   """
26.41,921.096,0.04404484, NaN, NaN, NaN,0.0335714," ""- N/A -   """
26.43,921.8055,0.04407538, NaN, NaN, NaN,0.0347922," ""- N/A -   """
26.45,922.515,0.04410593, NaN, NaN, NaN,0.03601294," ""- N/A -   """
26.47,923.225,0.0441365, NaN, NaN, NaN,0.0372337," ""- N/A -   """
26.49,923.9345,0.0441642, NaN, NaN, NaN,0.0396753," ""- N/A -   """
26.51,924.6442,0.04419201, NaN, NaN, NaN,0.04211683," ""- N/A -   """
26.53,925.2356,0.0442198, NaN, NaN, NaN,0.0445584," ""- N/A -   """
26.55,926.1818,0.04425587, NaN, NaN, NaN,0.0445584," ""- N/A -   """
26.57,926.8916,0.0442864, NaN, NaN, NaN,0.0445584," ""- N/A -   """
26.59,927.72,0.04431974, NaN, NaN, NaN,0.0445584," ""- N/A -   """
26.61,928.5475,0.04435584, NaN, NaN, NaN,0.0445584," ""- N/A -   """
26.63,929.4938,0.04438638, NaN, NaN, NaN,0.0445584," ""- N/A -   """
26.65,930.5582,0.04442803, NaN, NaN, NaN,0.04211683," ""- N/A -   """
26.67,931.504,0.0444641, NaN, NaN, NaN,0.0396753," ""- N/A -   """
26.69,932.451,0.0445002, NaN, NaN, NaN,0.0384545," ""- N/A -   """
26.71,933.397,0.0445363, NaN, NaN, NaN,0.0372337," ""- N/A -   """
26.73,934.2249,0.04457242, NaN, NaN, NaN,0.0372337," ""- N/A -   """
26.75,935.1712,0.04460852, NaN, NaN, NaN,0.03601294," ""- N/A -   """
26.77,936.117,0.0446446, NaN, NaN, NaN,0.0335714," ""- N/A -   """
26.79,936.9454,0.0446807, NaN, NaN, NaN,0.0335714," ""- N/A -   """
26.81,937.7734,0.044714, NaN, NaN, NaN,0.0323506," ""- N/A -   """
26.83,938.7196,0.0447474, NaN, NaN, NaN,0.0323506," ""- N/A -   """
26.85,939.666,0.04478623, NaN, NaN, NaN,0.03112983," ""- N/A -   """
26.87,940.494,0.0448223, NaN, NaN, NaN,0.0299091," ""- N/A -   """
26.89,941.44,0.0448584, NaN, NaN, NaN,0.0286883," ""- N/A -   """
26.91,942.3863,0.04489175, NaN, NaN, NaN,0.0274675," ""- N/A -   """
26.93,943.096,0.0449223, NaN, NaN, NaN,0.0286883," ""- N/A -   """
26.95,944.042,0.0449584, NaN, NaN, NaN,0.0274675," ""- N/A -   """
26.97,944.8702,0.0449945, NaN, NaN, NaN,0.0262467," ""- N/A -   """
26.99,945.58,0.04502781, NaN, NaN, NaN,0.0274675," ""- N/A -   """
27.01,946.4079,0.0450556, NaN, NaN, NaN,0.0286883," ""- N/A -   """
27.03,947.118,0.04508612, NaN, NaN, NaN,0.0299091," ""- N/A -   """
27.05,947.8273,0.0451167, NaN, NaN, NaN,0.0323506," ""- N/A -   """
27.07,948.5369,0.0451417, NaN, NaN, NaN,0.0347922," ""- N/A -   """
27.09,949.128,0.04516665, NaN, NaN, NaN,0.0384545," ""- N/A -   """
27.11,949.601,0.0451944, NaN, NaN, NaN,0.04089605," ""- N/A -   """
27.13,950.3111,0.04522496, NaN, NaN, NaN,0.0433376," ""- N/A -   """
27.15,951.139,0.0452555, NaN, NaN, NaN,0.0433376," ""- N/A -   """
27.17,951.9671,0.04528605, NaN, NaN, NaN,0.0445584," ""- N/A -   """
27.19,952.795,0.0453194, NaN, NaN, NaN,0.0445584," ""- N/A -   """
27.21,953.623,0.0453527, NaN, NaN, NaN,0.0445584," ""- N/A -   """
27.23,954.5693,0.0453888, NaN, NaN, NaN,0.0433376," ""- N/A -   """
27.25,955.3972,0.04542211, NaN, NaN, NaN,0.0433376," ""- N/A -   """
27.27,956.2252,0.04545543, NaN, NaN, NaN,0.0445584," ""- N/A -   """
27.29,957.053,0.045486, NaN, NaN, NaN,0.0445584," ""- N/A -   """
27.31,957.8811,0.0455193, NaN, NaN, NaN,0.0445584," ""- N/A -   """
27.33,958.8274,0.0455526, NaN, NaN, NaN,0.0445584," ""- N/A -   """
27.35,959.655,0.0455887, NaN, NaN, NaN,0.0445584," ""- N/A -   """
27.37,960.602,0.04562481, NaN, NaN, NaN,0.04211683," ""- N/A -   """
27.39,961.666,0.04566091, NaN, NaN, NaN,0.04089605," ""- N/A -   """
27.41,962.612,0.0456998, NaN, NaN, NaN,0.0396753," ""- N/A -   """
27.43,963.677,0.0457414, NaN, NaN, NaN,0.03601294," ""- N/A -   """
27.45,964.7414,0.0457831, NaN, NaN, NaN,0.0323506," ""- N/A -   """
27.47,965.6876,0.0458192, NaN, NaN, NaN,0.0299091," ""- N/A -   """
27.49,966.6339,0.04585528, NaN, NaN, NaN,0.0299091," ""- N/A -   """
27.51,967.344,0.0458886, NaN, NaN, NaN,0.0286883," ""- N/A -   """
27.53,968.2898,0.04592192, NaN, NaN, NaN,0.0299091," ""- N/A -   """
27.55,969.1178,0.04595247, NaN, NaN, NaN,0.0299091," ""- N/A -   """
27.57,969.8275,0.045983, NaN, NaN, NaN,0.03112983," ""- N/A -   """
27.59,970.655,0.04601633, NaN, NaN, NaN,0.03112983," ""- N/A -   """
27.61,971.3652,0.0460469, NaN, NaN, NaN,0.0323506," ""- N/A -   """
27.63,972.0748,0.0460774, NaN, NaN, NaN,0.0347922," ""- N/A -   """
27.65,972.9028,0.0461052, NaN, NaN, NaN,0.03601294," ""- N/A -   """
27.67,973.6124,0.04613573, NaN, NaN, NaN,0.0372337," ""- N/A -   """
27.69,974.3222,0.04616628, NaN, NaN, NaN,0.0384545," ""- N/A -   """
27.71,975.15,0.0461968, NaN, NaN, NaN,0.0396753," ""- N/A -   """
27.73,975.9781,0.04623014, NaN, NaN, NaN,0.0396753," ""- N/A -   """
27.75,976.8061,0.0462607, NaN, NaN, NaN,0.04089605," ""- N/A -   """
27.77,977.634,0.046294, NaN, NaN, NaN,0.04089605," ""- N/A -   """
27.79,978.58,0.0463301, NaN, NaN, NaN,0.0396753," ""- N/A -   """
27.81,979.408,0.04636343, NaN, NaN, NaN,0.0396753," ""- N/A -   """
27.83,980.1179,0.04639675, NaN, NaN, NaN,0.0396753," ""- N/A -   """
27.85,981.064,0.04643007, NaN, NaN, NaN,0.04089605," ""- N/A -   """
27.87,981.892,0.0464606, NaN, NaN, NaN,0.04089605," ""- N/A -   """
27.89,982.6018,0.0464939, NaN, NaN, NaN,0.04211683," ""- N/A -   """
27.91,983.3115,0.0465217, NaN, NaN, NaN,0.0433376," ""- N/A -   """
27.93,984.0212,0.04655225, NaN, NaN, NaN,0.0445584," ""- N/A -   """
27.95,984.967,0.0465856, NaN, NaN, NaN,0.0445584," ""- N/A -   """
27.97,985.7954,0.0466189, NaN, NaN, NaN,0.0445584," ""- N/A -   """
27.99,986.742,0.0466578, NaN, NaN, NaN,0.04211683," ""- N/A -   """
28.01,987.8062,0.0466966, NaN, NaN, NaN,0.0396753," ""- N/A -   """
28.03,988.871,0.0467355, NaN, NaN, NaN,0.0372337," ""- N/A -   """
28.05,989.935,0.0467772, NaN, NaN, NaN,0.0347922," ""- N/A -   """
28.07,991,0.046816, NaN, NaN, NaN,0.03112983," ""- N/A -   """
28.09,991.946,0.0468521, NaN, NaN, NaN,0.0299091," ""- N/A -   """
28.11,993.011,0.04689101, NaN, NaN, NaN,0.0274675," ""- N/A -   """
28.13,993.9568,0.0469299, NaN, NaN, NaN,0.0262467," ""- N/A -   """
28.15,994.9031,0.0469632, NaN, NaN, NaN,0.0250259," ""- N/A -   """
28.17,995.731,0.04699375, NaN, NaN, NaN,0.0262467," ""- N/A -   """
28.19,996.3224,0.04702429, NaN, NaN, NaN,0.0274675," ""- N/A -   """
28.21,997.032,0.04705484, NaN, NaN, NaN,0.0299091," ""- N/A -   """
28.23,997.624,0.0470798, NaN, NaN, NaN,0.0323506," ""- N/A -   """
28.25,998.3332,0.0471076, NaN, NaN, NaN,0.0347922," ""- N/A -   """
28.27,999.161,0.04713814, NaN, NaN, NaN,0.03601294," ""- N/A -   """
28.29,999.871,0.0471715, NaN, NaN, NaN,0.0372337," ""- N/A -   """
28.31,1000.7,0.047202, NaN, NaN, NaN,0.0372337," ""- N/A -   """
28.33,1001.645,0.0472381, NaN, NaN, NaN,0.03601294," ""- N/A -   """
28.35,1002.59,0.0472742, NaN, NaN, NaN,0.0347922," ""- N/A -   """
28.37,1003.54,0.0473103, NaN, NaN, NaN,0.0335714," ""- N/A -   """
28.39,1004.25,0.0473408, NaN, NaN, NaN,0.0347922," ""- N/A -   """
28.41,1004.84,0.0473714, NaN, NaN, NaN,0.0372337," ""- N/A -   """
28.43,1005.67,0.04740193, NaN, NaN, NaN,0.0384545," ""- N/A -   """
28.45,1006.61,0.0474325, NaN, NaN, NaN,0.0396753," ""- N/A -   """
28.47,1007.2,0.0474575, NaN, NaN, NaN,0.04211683," ""- N/A -   """
28.49,1007.91,0.0474852, NaN, NaN, NaN,0.0445584," ""- N/A -   """
28.51,1008.62,0.04751856, NaN, NaN, NaN,0.04577916," ""- N/A -   """
28.53,1009.33,0.0475491, NaN, NaN, NaN,0.04577916," ""- N/A -   """
28.55,1010.28,0.04758242, NaN, NaN, NaN,0.04577916," ""- N/A -   """
28.57,1011.23,0.0476213, NaN, NaN, NaN,0.0433376," ""- N/A -   """
28.59,1012.41,0.0476602, NaN, NaN, NaN,0.04089605," ""- N/A -   """
28.61,1013.477,0.04770182, NaN, NaN, NaN,0.0384545," ""- N/A -   """
28.63,1014.31,0.04773514, NaN, NaN, NaN,0.0372337," ""- N/A -   """
28.65,1015.15,0.0477685, NaN, NaN, NaN,0.0372337," ""- N/A -   """
28.67,1015.98,0.0478018, NaN, NaN, NaN,0.0372337," ""- N/A -   """
28.69,1016.82,0.0478351, NaN, NaN, NaN,0.0372337," ""- N/A -   """
28.71,1017.77,0.0478684, NaN, NaN, NaN,0.0372337," ""- N/A -   """
28.73,1018.6,0.0479017, NaN, NaN, NaN,0.0372337," ""- N/A -   """
28.75,1019.44,0.0479378, NaN, NaN, NaN,0.0372337," ""- N/A -   """
28.77,1020.51,0.0479712, NaN, NaN, NaN,0.03601294," ""- N/A -   """
28.79,1021.35,0.0480045, NaN, NaN, NaN,0.03601294," ""- N/A -   """
28.81,1022.18,0.04803781, NaN, NaN, NaN,0.03601294," ""- N/A -   """
28.83,1023.02,0.0480739, NaN, NaN, NaN,0.0347922," ""- N/A -   """
28.85,1023.73,0.0481045, NaN, NaN, NaN,0.03601294," ""- N/A -   """
28.87,1024.69,0.0481378, NaN, NaN, NaN,0.03601294," ""- N/A -   """
28.89,1025.64,0.04817387, NaN, NaN, NaN,0.0347922," ""- N/A -   """
28.91,1026.48,0.0482127, NaN, NaN, NaN,0.0335714," ""- N/A -   """
28.93,1027.31,0.0482433, NaN, NaN, NaN,0.0335714," ""- N/A -   """
28.95,1028.26,0.04827661, NaN, NaN, NaN,0.0335714," ""- N/A -   """
28.97,1029.099,0.04830993, NaN, NaN, NaN,0.0335714," ""- N/A -   """
28.99,1029.93,0.04834325, NaN, NaN, NaN,0.0335714," ""- N/A -   """
29.01,1030.77,0.04837657, NaN, NaN, NaN,0.0335714," ""- N/A -   """
29.03,1031.6,0.04840989, NaN, NaN, NaN,0.0335714," ""- N/A -   """
29.05,1032.32,0.0484404, NaN, NaN, NaN,0.0347922," ""- N/A -   """
29.07,1033.15,0.04847376, NaN, NaN, NaN,0.0347922," ""- N/A -   """
29.09,1034.11,0.04850708, NaN, NaN, NaN,0.0347922," ""- N/A -   """
29.11,1034.94,0.0485404, NaN, NaN, NaN,0.0347922," ""- N/A -   """
29.13,1035.78,0.0485765, NaN, NaN, NaN,0.0335714," ""- N/A -   """
29.15,1036.73,0.04860982, NaN, NaN, NaN,0.0335714," ""- N/A -   """
29.17,1037.45,0.04864314, NaN, NaN, NaN,0.0335714," ""- N/A -   """
29.19,1038.4,0.0486737, NaN, NaN, NaN,0.0347922," ""- N/A -   """
29.21,1039.12,0.04870423, NaN, NaN, NaN,0.03601294," ""- N/A -   """
29.23,1039.83,0.0487348, NaN, NaN, NaN,0.0372337," ""- N/A -   """
29.25,1040.55,0.0487653, NaN, NaN, NaN,0.0396753," ""- N/A -   """
29.27,1041.5,0.04879864, NaN, NaN, NaN,0.0396753," ""- N/A -   """
29.29,1042.34,0.0488292, NaN, NaN, NaN,0.0396753," ""- N/A -   """
29.31,1042.93,0.0488569, NaN, NaN, NaN,0.04211683," ""- N/A -   """
29.33,1043.767,0.04889027, NaN, NaN, NaN,0.04211683," ""- N/A -   """
29.35,1044.72,0.0489236, NaN, NaN, NaN,0.04211683," ""- N/A -   """
29.37,1045.56,0.0489541, NaN, NaN, NaN,0.0433376," ""- N/A -   """
29.39,1046.39,0.04898746, NaN, NaN, NaN,0.0433376," ""- N/A -   """
29.41,1047.23,0.0490236, NaN, NaN, NaN,0.04211683," ""- N/A -   """
29.43,1048.3,0.0490597, NaN, NaN, NaN,0.04089605," ""- N/A -   """
29.45,1049.25,0.04909853, NaN, NaN, NaN,0.0384545," ""- N/A -   """
29.47,1050.21,0.0491346, NaN, NaN, NaN,0.0372337," ""- N/A -   """
29.49,1051.28,0.0491735, NaN, NaN, NaN,0.0347922," ""- N/A -   """
29.51,1052.11,0.0492096, NaN, NaN, NaN,0.0335714," ""- N/A -   """
29.53,1053.07,0.0492457, NaN, NaN, NaN,0.0323506," ""- N/A -   """
29.55,1053.9,0.04927902, NaN, NaN, NaN,0.0323506," ""- N/A -   """
29.57,1054.74,0.04931234, NaN, NaN, NaN,0.0323506," ""- N/A -   """
29.59,1055.573,0.04934566, NaN, NaN, NaN,0.0323506," ""- N/A -   """
29.61,1056.41,0.04937898, NaN, NaN, NaN,0.0323506," ""- N/A -   """
29.63,1057.36,0.0494123, NaN, NaN, NaN,0.0323506," ""- N/A -   """
29.65,1058.2,0.04944562, NaN, NaN, NaN,0.0323506," ""- N/A -   """
29.67,1059.03,0.04947894, NaN, NaN, NaN,0.0323506," ""- N/A -   """
29.69,1059.99,0.04951504, NaN, NaN, NaN,0.03112983," ""- N/A -   """
29.71,1061.06,0.0495539, NaN, NaN, NaN,0.0286883," ""- N/A -   """
29.73,1061.89,0.04959, NaN, NaN, NaN,0.0286883," ""- N/A -   """
29.75,1062.728,0.0496233, NaN, NaN, NaN,0.0286883," ""- N/A -   """
29.77,1063.56,0.0496567, NaN, NaN, NaN,0.0286883," ""- N/A -   """
29.79,1064.28,0.0496844, NaN, NaN, NaN,0.0299091," ""- N/A -   """
29.81,1064.99,0.049715, NaN, NaN, NaN,0.03112983," ""- N/A -   """
29.83,1065.83,0.04974551, NaN, NaN, NaN,0.0323506," ""- N/A -   """
29.85,1066.54,0.04977328, NaN, NaN, NaN,0.0347922," ""- N/A -   """
29.87,1067.14,0.049801, NaN, NaN, NaN,0.0372337," ""- N/A -   """
29.89,1067.856,0.0498288, NaN, NaN, NaN,0.0396753," ""- N/A -   """
29.91,1068.33,0.04985658, NaN, NaN, NaN,0.0433376," ""- N/A -   """
29.93,1069.287,0.0498871, NaN, NaN, NaN,0.0433376," ""- N/A -   """
29.95,1070.12,0.0499204, NaN, NaN, NaN,0.0433376," ""- N/A -   """
29.97,1070.96,0.04995099, NaN, NaN, NaN,0.0445584," ""- N/A -   """
29.99,1071.55,0.04997876, NaN, NaN, NaN,0.04699994," ""- N/A -   """
30.01,1072.626,0.0500121, NaN, NaN, NaN,0.04699994," ""- N/A -   """
30.03,1073.34,0.0500482, NaN, NaN, NaN,0.04577916," ""- N/A -   """
30.05,1074.3,0.0500843, NaN, NaN, NaN,0.0445584," ""- N/A -   """
30.07,1075.25,0.0501176, NaN, NaN, NaN,0.0445584," ""- N/A -   """
30.09,1076.2,0.05015647, NaN, NaN, NaN,0.04211683," ""- N/A -   """
30.11,1077.28,0.0501953, NaN, NaN, NaN,0.0396753," ""- N/A -   """
30.13,1078.23,0.05023422, NaN, NaN, NaN,0.0384545," ""- N/A -   """
30.15,1079.3,0.05027032, NaN, NaN, NaN,0.03601294," ""- N/A -   """
30.17,1080.258,0.0503064, NaN, NaN, NaN,0.0347922," ""- N/A -   """
30.19,1081.21,0.05034529, NaN, NaN, NaN,0.0323506," ""- N/A -   """
30.21,1082.05,0.0503786, NaN, NaN, NaN,0.0323506," ""- N/A -   """
30.23,1082.88,0.0504119, NaN, NaN, NaN,0.0323506," ""- N/A -   """
30.25,1083.84,0.05044525, NaN, NaN, NaN,0.0323506," ""- N/A -   """
30.27,1084.67,0.05048413, NaN, NaN, NaN,0.0299091," ""- N/A -   """
30.29,1085.863,0.050523, NaN, NaN, NaN,0.0274675," ""- N/A -   """
30.31,1086.7,0.0505563, NaN, NaN, NaN,0.0274675," ""- N/A -   """
30.33,1087.53,0.0505896, NaN, NaN, NaN,0.0274675," ""- N/A -   """
30.35,1088.37,0.050623, NaN, NaN, NaN,0.0274675," ""- N/A -   """
30.37,1089.202,0.05065351, NaN, NaN, NaN,0.0286883," ""- N/A -   """
30.39,1089.92,0.05068683, NaN, NaN, NaN,0.0286883," ""- N/A -   """
30.41,1090.75,0.0507174, NaN, NaN, NaN,0.0299091," ""- N/A -   """
30.43,1091.587,0.0507507, NaN, NaN, NaN,0.03112983," ""- N/A -   """
30.433,1091.71,0.0507535, NaN, NaN, NaN,0.0323506," ""- N/A -   """