File: 2_Tensile_Data/Hamel_ForceTest_Bolt6_Test10.csv
Time, Load (lb), Position (in), AxialStrain (in), TransverseStrain (in), Auxiliary (), Control Out (V), Stress (psi)
0.0, 13.564, 0.0, NaN, NaN, NaN, -0.007935055, "- N/A -   "
0.01, 13.564, 0.0, NaN, NaN, NaN, -6.103888E-4, "- N/A -   "
0.02, 13.6819, 0.0, NaN, NaN, NaN, 0.0115974, "- N/A -   "
0.03, 13.6819, 2.776752E-6, NaN, NaN, NaN, 0.0299091, "- N/A -   "
0.04, 13.7999, 8.330256E-6, NaN, NaN, NaN, 0.04699994, "- N/A -   "
0.05, 14.0357, 2.2214e-05, NaN, NaN, NaN, 0.06164927, "- N/A -   "
0.06, 14.2716, 3.60978e-05, NaN, NaN, NaN, 0.07385705, "- N/A -   "
0.07, 14.7434, 5.83118e-05, NaN, NaN, NaN, 0.084844, "- N/A -   "
0.08, 15.3332, 8.607931E-5, NaN, NaN, NaN, 0.09216871, "- N/A -   "
0.09, 15.805, 0.000113847, NaN, NaN, NaN, 0.09949338, "- N/A -   "
0.1, 16.5126, 0.000144391, NaN, NaN, NaN, 0.101935, "- N/A -   "
0.11, 16.9844, 0.000177712, NaN, NaN, NaN, 0.095831, "- N/A -   "
0.12, 17.5742, 0.000208256, NaN, NaN, NaN, 0.0897272, "- N/A -   "
0.13, 18.046, 0.000238801, NaN, NaN, NaN, 0.08362327, "- N/A -   "
0.14, 18.6357, 0.000263791, NaN, NaN, NaN, 0.0799609, "- N/A -   "
0.15, 18.9895, 0.000288782, NaN, NaN, NaN, 0.0762986, "- N/A -   "
0.16, 19.3434, 3.109962E-4, NaN, NaN, NaN, 0.07385705, "- N/A -   "
0.17, 19.6972, 0.000330433, NaN, NaN, NaN, 0.07141549, "- N/A -   "
0.18, 20.05107, 0.000352647, NaN, NaN, NaN, 0.0701947, "- N/A -   "
0.19, 20.52286, 0.000372085, NaN, NaN, NaN, 0.06775316, "- N/A -   "
0.2, 20.7588, 0.000394299, NaN, NaN, NaN, 0.0653116, "- N/A -   "
0.21, 21.2305, 4.13736E-4, NaN, NaN, NaN, 0.0640908, "- N/A -   "
0.22, 21.46644, 4.331733E-4, NaN, NaN, NaN, 0.06287005, "- N/A -   "
0.23, 21.7023, 0.000449834, NaN, NaN, NaN, 0.06287005, "- N/A -   "
0.24, 21.93823, 0.000469271, NaN, NaN, NaN, 0.06164927, "- N/A -   "
0.25, 22.29207, 4.887083E-4, NaN, NaN, NaN, 0.06164927, "- N/A -   "
0.26, 22.6459, 5.053688E-4, NaN, NaN, NaN, 0.0604285, "- N/A -   "
0.27, 22.9998, 5.248061E-4, NaN, NaN, NaN, 0.0592077, "- N/A -   "
0.28, 23.1177, 5.442434E-4, NaN, NaN, NaN, 0.0579869, "- N/A -   "
0.29, 23.5895, 5.664574E-4, NaN, NaN, NaN, 0.05676616, "- N/A -   "
0.3, 23.9433, 5.858946E-4, NaN, NaN, NaN, 0.0555454, "- N/A -   "
0.31, 24.1792, 6.053319E-4, NaN, NaN, NaN, 0.0531038, "- N/A -   "
0.32, 24.5331, 0.000624769, NaN, NaN, NaN, 0.05188305, "- N/A -   "
0.33, 25.0049, 6.442064E-4, NaN, NaN, NaN, 0.05066227, "- N/A -   "
0.34, 25.2408, 0.00066642, NaN, NaN, NaN, 0.0494415, "- N/A -   "
0.35, 25.4767, 6.858577E-4, NaN, NaN, NaN, 0.04699994, "- N/A -   "
0.36, 25.8305, 0.000705295, NaN, NaN, NaN, 0.04577916, "- N/A -   "
0.37, 26.18434, 7.27509E-4, NaN, NaN, NaN, 0.0445584, "- N/A -   "
0.38, 26.5382, 0.000746946, NaN, NaN, NaN, 0.04211683, "- N/A -   "
0.39, 26.892, 7.663835E-4, NaN, NaN, NaN, 0.04089605, "- N/A -   "
0.4, 27.1279, 0.000785821, NaN, NaN, NaN, 0.04089605, "- N/A -   "
0.41, 27.3638, 0.000802481, NaN, NaN, NaN, 0.0396753, "- N/A -   "
0.42, 27.5997, 8.191418E-4, NaN, NaN, NaN, 0.0396753, "- N/A -   "
0.43, 28.0715, 8.358023E-4, NaN, NaN, NaN, 0.0396753, "- N/A -   "
0.44, 28.1894, 8.552396E-4, NaN, NaN, NaN, 0.0384545, "- N/A -   "
0.45, 28.54329, 0.0008719, NaN, NaN, NaN, 0.0384545, "- N/A -   "
0.46, 28.7792, 8.885606E-4, NaN, NaN, NaN, 0.0384545, "- N/A -   "
0.47, 29.133, 0.000907998, NaN, NaN, NaN, 0.0384545, "- N/A -   "
0.48, 29.3689, 9.246584E-4, NaN, NaN, NaN, 0.0372337, "- N/A -   "
0.49, 29.6048, 9.440956E-4, NaN, NaN, NaN, 0.03601294, "- N/A -   "
0.5, 29.84071, 0.000960756, NaN, NaN, NaN, 0.03601294, "- N/A -   "
0.51, 30.1946, 9.774166E-4, NaN, NaN, NaN, 0.03601294, "- N/A -   "
0.52, 30.5484, 9.996307E-4, NaN, NaN, NaN, 0.0347922, "- N/A -   "
0.53, 30.78429, 0.00101629, NaN, NaN, NaN, 0.0335714, "- N/A -   "
0.54, 31.1381, 0.00103573, NaN, NaN, NaN, 0.0323506, "- N/A -   "
0.55, 31.492, 0.00105239, NaN, NaN, NaN, 0.0323506, "- N/A -   "
0.56, 31.6099, 0.00106905, NaN, NaN, NaN, 0.0323506, "- N/A -   "
0.57, 31.9638, 0.00108571, NaN, NaN, NaN, 0.0323506, "- N/A -   "
0.58, 32.1997, 0.00110515, NaN, NaN, NaN, 0.0323506, "- N/A -   "
0.59, 32.5535, 0.00112181, NaN, NaN, NaN, 0.03112983, "- N/A -   "
0.6, 32.7894, 0.00113847, NaN, NaN, NaN, 0.03112983, "- N/A -   "
0.61, 33.02529, 0.001152352, NaN, NaN, NaN, 0.0323506, "- N/A -   "
0.62, 33.2612, 0.00116901, NaN, NaN, NaN, 0.0323506, "- N/A -   "
0.63, 33.61503, 0.00118845, NaN, NaN, NaN, 0.03112983, "- N/A -   "
0.64, 33.9689, 0.00120511, NaN, NaN, NaN, 0.03112983, "- N/A -   "
0.65, 34.08682, 0.00122177, NaN, NaN, NaN, 0.03112983, "- N/A -   "
0.66, 34.4407, 0.00123565, NaN, NaN, NaN, 0.0323506, "- N/A -   "
0.67, 34.6766, 0.00125232, NaN, NaN, NaN, 0.0323506, "- N/A -   "
0.68, 34.7945, 0.00126898, NaN, NaN, NaN, 0.0335714, "- N/A -   "
0.69, 35.1483, 0.00128286, NaN, NaN, NaN, 0.0335714, "- N/A -   "
0.7, 35.3842, 0.001296743, NaN, NaN, NaN, 0.0347922, "- N/A -   "
0.71, 35.6201, 0.00131063, NaN, NaN, NaN, 0.03601294, "- N/A -   "
0.72, 35.97398, 0.00132729, NaN, NaN, NaN, 0.03601294, "- N/A -   "
0.73, 36.0919, 0.00134117, NaN, NaN, NaN, 0.0372337, "- N/A -   "
0.74, 36.44577, 0.00135783, NaN, NaN, NaN, 0.0372337, "- N/A -   "
0.75, 36.6817, 0.00137172, NaN, NaN, NaN, 0.0384545, "- N/A -   "
0.76, 36.79961, 0.0013856, NaN, NaN, NaN, 0.0396753, "- N/A -   "
0.77, 37.0355, 0.00140226, NaN, NaN, NaN, 0.0396753, "- N/A -   "
0.78, 37.2714, 0.00141614, NaN, NaN, NaN, 0.04089605, "- N/A -   "
0.79, 37.5073, 0.00143003, NaN, NaN, NaN, 0.04211683, "- N/A -   "
0.8, 37.74319, 0.00144669, NaN, NaN, NaN, 0.04211683, "- N/A -   "
0.81, 37.9791, 0.00146335, NaN, NaN, NaN, 0.0433376, "- N/A -   "
0.82, 38.3329, 0.001477232, NaN, NaN, NaN, 0.0433376, "- N/A -   "
0.83, 38.5688, 0.00149389, NaN, NaN, NaN, 0.0445584, "- N/A -   "
0.84, 38.9227, 0.00150778, NaN, NaN, NaN, 0.0445584, "- N/A -   "
0.85, 39.04061, 0.00152444, NaN, NaN, NaN, 0.0445584, "- N/A -   "
0.86, 39.3945, 0.0015411, NaN, NaN, NaN, 0.0445584, "- N/A -   "
0.87, 39.7483, 0.00156053, NaN, NaN, NaN, 0.0433376, "- N/A -   "
0.88, 39.98419, 0.001577195, NaN, NaN, NaN, 0.0433376, "- N/A -   "
0.89, 40.33803, 0.00159386, NaN, NaN, NaN, 0.0433376, "- N/A -   "
0.9, 40.456, 0.00161052, NaN, NaN, NaN, 0.0433376, "- N/A -   "
0.91, 40.8098, 0.00162718, NaN, NaN, NaN, 0.0433376, "- N/A -   "
0.92, 41.04572, 0.00164384, NaN, NaN, NaN, 0.0433376, "- N/A -   "
0.93, 41.39956, 0.0016605, NaN, NaN, NaN, 0.0433376, "- N/A -   "
0.94, 41.6355, 0.00167993, NaN, NaN, NaN, 0.0433376, "- N/A -   "
0.95, 41.9893, 0.00169382, NaN, NaN, NaN, 0.0433376, "- N/A -   "
0.96, 42.3431, 0.00171326, NaN, NaN, NaN, 0.0433376, "- N/A -   "
0.97, 42.579, 0.00172992, NaN, NaN, NaN, 0.04211683, "- N/A -   "
0.98, 42.8149, 0.00174658, NaN, NaN, NaN, 0.04211683, "- N/A -   "
0.99, 43.1688, 0.00176601, NaN, NaN, NaN, 0.04089605, "- N/A -   "
1, 43.6406, 0.00178267, NaN, NaN, NaN, 0.04089605, "- N/A -   "
1.01, 43.87646, 0.001802112, NaN, NaN, NaN, 0.0396753, "- N/A -   "
1.02, 44.1124, 0.00181877, NaN, NaN, NaN, 0.0396753, "- N/A -   "
1.03, 44.34825, 0.001835433, NaN, NaN, NaN, 0.0396753, "- N/A -   "
1.04, 44.58414, 0.00185487, NaN, NaN, NaN, 0.0396753, "- N/A -   "
1.05, 44.93799, 0.00187153, NaN, NaN, NaN, 0.0384545, "- N/A -   "
1.06, 45.40978, 0.00189374, NaN, NaN, NaN, 0.03601294, "- N/A -   "
1.07, 45.76362, 0.00191596, NaN, NaN, NaN, 0.0347922, "- N/A -   "
1.08, 46.11746, 0.00193817, NaN, NaN, NaN, 0.0323506, "- N/A -   "
1.09, 46.4713, 0.00195761, NaN, NaN, NaN, 0.0299091, "- N/A -   "
1.1, 46.8251, 0.00197705, NaN, NaN, NaN, 0.0286883, "- N/A -   "
1.11, 47.179, 0.00199648, NaN, NaN, NaN, 0.0286883, "- N/A -   "
1.12, 47.4149, 0.002013145, NaN, NaN, NaN, 0.0274675, "- N/A -   "
1.13, 47.7687, 0.00202981, NaN, NaN, NaN, 0.0274675, "- N/A -   "
1.14, 47.8867, 0.002046466, NaN, NaN, NaN, 0.0274675, "- N/A -   "
1.15, 48.2405, 0.00206313, NaN, NaN, NaN, 0.0274675, "- N/A -   "
1.16, 48.47641, 0.00207979, NaN, NaN, NaN, 0.0274675, "- N/A -   "
1.17, 48.83025, 0.002093671, NaN, NaN, NaN, 0.0286883, "- N/A -   "
1.18, 49.0661, 0.002113108, NaN, NaN, NaN, 0.0286883, "- N/A -   "
1.19, 49.30204, 0.002126992, NaN, NaN, NaN, 0.0286883, "- N/A -   "
1.2, 49.5379, 0.00214365, NaN, NaN, NaN, 0.0286883, "- N/A -   "
1.21, 49.8918, 0.00216031, NaN, NaN, NaN, 0.0286883, "- N/A -   "
1.22, 50.2456, 0.00217697, NaN, NaN, NaN, 0.0286883, "- N/A -   "
1.23, 50.3636, 0.002193634, NaN, NaN, NaN, 0.0286883, "- N/A -   "
1.24, 50.7174, 0.00221029, NaN, NaN, NaN, 0.0286883, "- N/A -   "
1.25, 51.0713, 0.002226955, NaN, NaN, NaN, 0.0286883, "- N/A -   "
1.26, 51.1892, 0.00224084, NaN, NaN, NaN, 0.0299091, "- N/A -   "
1.27, 51.543, 0.0022575, NaN, NaN, NaN, 0.0299091, "- N/A -   "
1.28, 51.7789, 0.00227416, NaN, NaN, NaN, 0.03112983, "- N/A -   "
1.29, 52.01483, 0.00229082, NaN, NaN, NaN, 0.03112983, "- N/A -   "
1.3, 52.48662, 0.00230193, NaN, NaN, NaN, 0.0323506, "- N/A -   "
1.31, 52.6046, 0.00231859, NaN, NaN, NaN, 0.0323506, "- N/A -   "
1.32, 52.84047, 0.00233525, NaN, NaN, NaN, 0.0335714, "- N/A -   "
1.33, 53.0764, 0.002349132, NaN, NaN, NaN, 0.0335714, "- N/A -   "
1.34, 53.4302, 0.00236579, NaN, NaN, NaN, 0.0347922, "- N/A -   "
1.35, 53.54815, 0.00237968, NaN, NaN, NaN, 0.0347922, "- N/A -   "
1.36, 53.902, 0.00239634, NaN, NaN, NaN, 0.0347922, "- N/A -   "
1.37, 54.2558, 0.00241022, NaN, NaN, NaN, 0.03601294, "- N/A -   "
1.38, 54.4917, 0.0024241, NaN, NaN, NaN, 0.0372337, "- N/A -   "
1.39, 54.7276, 0.00244076, NaN, NaN, NaN, 0.0372337, "- N/A -   "
1.4, 54.9635, 0.00245465, NaN, NaN, NaN, 0.0384545, "- N/A -   "
1.41, 55.1994, 0.00247131, NaN, NaN, NaN, 0.0384545, "- N/A -   "
1.42, 55.43531, 0.00248797, NaN, NaN, NaN, 0.0396753, "- N/A -   "
1.43, 55.6712, 0.00250463, NaN, NaN, NaN, 0.0396753, "- N/A -   "
1.44, 56.143, 0.00252129, NaN, NaN, NaN, 0.0396753, "- N/A -   "
1.45, 56.2609, 0.002537951, NaN, NaN, NaN, 0.0396753, "- N/A -   "
1.46, 56.6148, 0.002551835, NaN, NaN, NaN, 0.0396753, "- N/A -   "
1.47, 56.85068, 0.0025685, NaN, NaN, NaN, 0.04089605, "- N/A -   "
1.48, 57.20452, 0.00258238, NaN, NaN, NaN, 0.04089605, "- N/A -   "
1.49, 57.32247, 0.002596263, NaN, NaN, NaN, 0.04211683, "- N/A -   "
1.5, 57.6763, 0.00261292, NaN, NaN, NaN, 0.04211683, "- N/A -   "
1.51, 57.91221, 0.00262958, NaN, NaN, NaN, 0.0433376, "- N/A -   "
1.52, 58.1481, 0.00264347, NaN, NaN, NaN, 0.0433376, "- N/A -   "
1.53, 58.5019, 0.00266013, NaN, NaN, NaN, 0.0433376, "- N/A -   "
1.54, 58.7378, 0.00267679, NaN, NaN, NaN, 0.0445584, "- N/A -   "
1.55, 58.9737, 0.00269067, NaN, NaN, NaN, 0.0445584, "- N/A -   "
1.56, 59.2096, 0.002707333, NaN, NaN, NaN, 0.0445584, "- N/A -   "
1.57, 59.4455, 0.00272399, NaN, NaN, NaN, 0.04577916, "- N/A -   "
1.58, 59.79937, 0.00273788, NaN, NaN, NaN, 0.04577916, "- N/A -   "
1.59, 59.9173, 0.002751761, NaN, NaN, NaN, 0.04699994, "- N/A -   "
1.6, 60.3891, 0.00276842, NaN, NaN, NaN, 0.04699994, "- N/A -   "
1.61, 60.625, 0.00278508, NaN, NaN, NaN, 0.04699994, "- N/A -   "
1.62, 60.97884, 0.00280174, NaN, NaN, NaN, 0.04699994, "- N/A -   "
1.63, 61.09679, 0.0028184, NaN, NaN, NaN, 0.04699994, "- N/A -   "
1.64, 61.45063, 0.00283784, NaN, NaN, NaN, 0.04699994, "- N/A -   "
1.65, 61.8045, 0.00285728, NaN, NaN, NaN, 0.04577916, "- N/A -   "
1.66, 62.2763, 0.00287671, NaN, NaN, NaN, 0.0445584, "- N/A -   "
1.67, 62.6301, 0.00289615, NaN, NaN, NaN, 0.0433376, "- N/A -   "
1.68, 62.98395, 0.00291559, NaN, NaN, NaN, 0.04089605, "- N/A -   "
1.69, 63.33779, 0.00293503, NaN, NaN, NaN, 0.0396753, "- N/A -   "
1.7, 63.6916, 0.002954464, NaN, NaN, NaN, 0.0384545, "- N/A -   "
1.71, 64.04548, 0.0029739, NaN, NaN, NaN, 0.0372337, "- N/A -   "
1.72, 64.28137, 0.00299334, NaN, NaN, NaN, 0.0372337, "- N/A -   "
1.73, 64.6352, 0.003012776, NaN, NaN, NaN, 0.03601294, "- N/A -   "
1.74, 65.107, 0.003032213, NaN, NaN, NaN, 0.0335714, "- N/A -   "
1.75, 65.4608, 0.00305165, NaN, NaN, NaN, 0.0323506, "- N/A -   "
1.76, 65.81469, 0.00307109, NaN, NaN, NaN, 0.03112983, "- N/A -   "
1.77, 66.05058, 0.003087748, NaN, NaN, NaN, 0.03112983, "- N/A -   "
1.78, 66.40443, 0.00310719, NaN, NaN, NaN, 0.0299091, "- N/A -   "
1.79, 66.64032, 0.003123846, NaN, NaN, NaN, 0.0299091, "- N/A -   "
1.8, 66.99416, 0.00314051, NaN, NaN, NaN, 0.0299091, "- N/A -   "
1.81, 67.1121, 0.003157167, NaN, NaN, NaN, 0.0299091, "- N/A -   "
1.82, 67.5839, 0.00317383, NaN, NaN, NaN, 0.0299091, "- N/A -   "
1.83, 67.70185, 0.00318771, NaN, NaN, NaN, 0.03112983, "- N/A -   "
1.84, 68.05569, 0.00320437, NaN, NaN, NaN, 0.03112983, "- N/A -   "
1.85, 68.29159, 0.00321826, NaN, NaN, NaN, 0.0323506, "- N/A -   "
1.86, 68.52748, 0.003234916, NaN, NaN, NaN, 0.0323506, "- N/A -   "
1.87, 68.8813, 0.00325158, NaN, NaN, NaN, 0.0335714, "- N/A -   "
1.88, 69.11722, 0.00326546, NaN, NaN, NaN, 0.0335714, "- N/A -   "
1.89, 69.35311, 0.00328212, NaN, NaN, NaN, 0.0335714, "- N/A -   "
1.9, 69.707, 0.003296, NaN, NaN, NaN, 0.0347922, "- N/A -   "
1.91, 69.94285, 0.003309888, NaN, NaN, NaN, 0.03601294, "- N/A -   "
1.92, 70.17874, 0.00332655, NaN, NaN, NaN, 0.03601294, "- N/A -   "
1.93, 70.41464, 0.00334321, NaN, NaN, NaN, 0.0372337, "- N/A -   "
1.94, 70.6505, 0.00335987, NaN, NaN, NaN, 0.0372337, "- N/A -   "
1.95, 71.00438, 0.00337653, NaN, NaN, NaN, 0.0372337, "- N/A -   "
1.96, 71.3582, 0.00339319, NaN, NaN, NaN, 0.0372337, "- N/A -   "
1.97, 71.59412, 0.003409851, NaN, NaN, NaN, 0.03601294, "- N/A -   "
1.98, 71.94796, 0.00342929, NaN, NaN, NaN, 0.03601294, "- N/A -   "
1.99, 72.3018, 0.00344873, NaN, NaN, NaN, 0.0347922, "- N/A -   "
2, 72.65564, 0.003468163, NaN, NaN, NaN, 0.0335714, "- N/A -   "
2.01, 73.00948, 0.00348482, NaN, NaN, NaN, 0.0323506, "- N/A -   "
2.02, 73.2454, 0.00350148, NaN, NaN, NaN, 0.0323506, "- N/A -   "
2.03, 73.59922, 0.00351814, NaN, NaN, NaN, 0.0323506, "- N/A -   "
2.04, 74.071, 0.00353481, NaN, NaN, NaN, 0.0323506, "- N/A -   "
2.05, 74.189, 0.00355147, NaN, NaN, NaN, 0.0323506, "- N/A -   "
2.06, 74.5428, 0.00356535, NaN, NaN, NaN, 0.0335714, "- N/A -   "
2.07, 74.7787, 0.00358201, NaN, NaN, NaN, 0.0347922, "- N/A -   "
2.08, 75.13254, 0.00359867, NaN, NaN, NaN, 0.0335714, "- N/A -   "
2.09, 75.36844, 0.003615331, NaN, NaN, NaN, 0.0335714, "- N/A -   "
2.1, 75.7223, 0.00363199, NaN, NaN, NaN, 0.0335714, "- N/A -   "
2.11, 76.07612, 0.00364588, NaN, NaN, NaN, 0.0347922, "- N/A -   "
2.12, 76.31202, 0.00366254, NaN, NaN, NaN, 0.03601294, "- N/A -   "
2.13, 76.5479, 0.00367642, NaN, NaN, NaN, 0.03601294, "- N/A -   "
2.14, 76.90175, 0.00369308, NaN, NaN, NaN, 0.0372337, "- N/A -   "
2.15, 77.13765, 0.003704187, NaN, NaN, NaN, 0.0384545, "- N/A -   "
2.16, 77.37354, 0.003718071, NaN, NaN, NaN, 0.0396753, "- N/A -   "
2.17, 77.6094, 0.00373473, NaN, NaN, NaN, 0.04089605, "- N/A -   "
2.18, 77.96328, 0.003748615, NaN, NaN, NaN, 0.04089605, "- N/A -   "
2.19, 78.31712, 0.00376528, NaN, NaN, NaN, 0.04089605, "- N/A -   "
2.2, 78.67096, 0.003781936, NaN, NaN, NaN, 0.04211683, "- N/A -   "
2.21, 78.90686, 0.0037986, NaN, NaN, NaN, 0.04089605, "- N/A -   "
2.22, 79.37865, 0.003815257, NaN, NaN, NaN, 0.04089605, "- N/A -   "
2.23, 79.61454, 0.00383469, NaN, NaN, NaN, 0.04089605, "- N/A -   "
2.24, 79.96838, 0.00385135, NaN, NaN, NaN, 0.0396753, "- N/A -   "
2.25, 80.32223, 0.00386802, NaN, NaN, NaN, 0.0396753, "- N/A -   "
2.26, 80.55813, 0.003884676, NaN, NaN, NaN, 0.0396753, "- N/A -   "
2.27, 80.912, 0.00390134, NaN, NaN, NaN, 0.0396753, "- N/A -   "
2.28, 81.26581, 0.003917997, NaN, NaN, NaN, 0.0396753, "- N/A -   "
2.29, 81.7376, 0.003937434, NaN, NaN, NaN, 0.0396753, "- N/A -   "
2.3, 82.09144, 0.00395409, NaN, NaN, NaN, 0.0384545, "- N/A -   "
2.31, 82.32734, 0.00397076, NaN, NaN, NaN, 0.0384545, "- N/A -   "
2.32, 82.68118, 0.00398742, NaN, NaN, NaN, 0.0384545, "- N/A -   "
2.33, 83.03502, 0.004006853, NaN, NaN, NaN, 0.0384545, "- N/A -   "
2.34, 83.38886, 0.00402351, NaN, NaN, NaN, 0.0384545, "- N/A -   "
2.35, 83.74271, 0.004040174, NaN, NaN, NaN, 0.0372337, "- N/A -   "
2.36, 84.09654, 0.00405961, NaN, NaN, NaN, 0.03601294, "- N/A -   "
2.37, 84.45039, 0.004076272, NaN, NaN, NaN, 0.03601294, "- N/A -   "
2.38, 84.92217, 0.004095709, NaN, NaN, NaN, 0.03601294, "- N/A -   "
2.39, 85.15807, 0.00410959, NaN, NaN, NaN, 0.03601294, "- N/A -   "
2.4, 85.51192, 0.00412903, NaN, NaN, NaN, 0.03601294, "- N/A -   "
2.41, 85.86576, 0.00414569, NaN, NaN, NaN, 0.03601294, "- N/A -   "
2.42, 86.1017, 0.00415957, NaN, NaN, NaN, 0.03601294, "- N/A -   "
2.43, 86.4555, 0.004176235, NaN, NaN, NaN, 0.03601294, "- N/A -   "
2.44, 86.69139, 0.0041929, NaN, NaN, NaN, 0.0372337, "- N/A -   "
2.45, 87.04523, 0.004206779, NaN, NaN, NaN, 0.0372337, "- N/A -   "
2.46, 87.39908, 0.004226216, NaN, NaN, NaN, 0.0372337, "- N/A -   "
2.47, 87.75292, 0.00424288, NaN, NaN, NaN, 0.03601294, "- N/A -   "
2.48, 88.10676, 0.00425954, NaN, NaN, NaN, 0.0372337, "- N/A -   "
2.49, 88.4606, 0.004276198, NaN, NaN, NaN, 0.03601294, "- N/A -   "
2.5, 88.8144, 0.00429286, NaN, NaN, NaN, 0.03601294, "- N/A -   "
2.51, 89.16828, 0.00430952, NaN, NaN, NaN, 0.0372337, "- N/A -   "
2.52, 89.52213, 0.004326179, NaN, NaN, NaN, 0.03601294, "- N/A -   "
2.53, 89.87598, 0.004345617, NaN, NaN, NaN, 0.03601294, "- N/A -   "
2.54, 90.34776, 0.004362277, NaN, NaN, NaN, 0.0347922, "- N/A -   "
2.55, 90.70161, 0.00438171, NaN, NaN, NaN, 0.0335714, "- N/A -   "
2.56, 91.05545, 0.004398375, NaN, NaN, NaN, 0.0335714, "- N/A -   "
2.57, 91.2913, 0.00441504, NaN, NaN, NaN, 0.0335714, "- N/A -   "
2.58, 91.76313, 0.004434473, NaN, NaN, NaN, 0.0323506, "- N/A -   "
2.59, 92.117, 0.00445391, NaN, NaN, NaN, 0.0323506, "- N/A -   "
2.6, 92.58876, 0.00447057, NaN, NaN, NaN, 0.0323506, "- N/A -   "
2.61, 92.82466, 0.004487231, NaN, NaN, NaN, 0.0323506, "- N/A -   "
2.62, 93.1785, 0.00450111, NaN, NaN, NaN, 0.0323506, "- N/A -   "
2.63, 93.65029, 0.004520552, NaN, NaN, NaN, 0.03112983, "- N/A -   "
2.64, 94.0041, 0.00453721, NaN, NaN, NaN, 0.03112983, "- N/A -   "
2.65, 94.35797, 0.00455665, NaN, NaN, NaN, 0.03112983, "- N/A -   "
2.66, 94.7118, 0.00457331, NaN, NaN, NaN, 0.0299091, "- N/A -   "
2.67, 95.18361, 0.00458997, NaN, NaN, NaN, 0.0299091, "- N/A -   "
2.68, 95.5374, 0.004609408, NaN, NaN, NaN, 0.0286883, "- N/A -   "
2.69, 95.8913, 0.00462607, NaN, NaN, NaN, 0.0286883, "- N/A -   "
2.7, 96.12719, 0.004642729, NaN, NaN, NaN, 0.0286883, "- N/A -   "
2.71, 96.481, 0.00465939, NaN, NaN, NaN, 0.0286883, "- N/A -   "
2.72, 96.83487, 0.00467605, NaN, NaN, NaN, 0.0299091, "- N/A -   "
2.73, 97.18872, 0.00468993, NaN, NaN, NaN, 0.0299091, "- N/A -   "
2.74, 97.4246, 0.00470659, NaN, NaN, NaN, 0.03112983, "- N/A -   "
2.75, 97.77845, 0.004720478, NaN, NaN, NaN, 0.03112983, "- N/A -   "
2.76, 98.01435, 0.004734362, NaN, NaN, NaN, 0.0323506, "- N/A -   "
2.77, 98.3682, 0.00475102, NaN, NaN, NaN, 0.0335714, "- N/A -   "
2.78, 98.72203, 0.004764906, NaN, NaN, NaN, 0.0335714, "- N/A -   "
2.79, 98.9579, 0.00478157, NaN, NaN, NaN, 0.0347922, "- N/A -   "
2.8, 99.42972, 0.00479545, NaN, NaN, NaN, 0.0347922, "- N/A -   "
2.81, 99.66561, 0.004812111, NaN, NaN, NaN, 0.0347922, "- N/A -   "
2.82, 100.019, 0.004825995, NaN, NaN, NaN, 0.03601294, "- N/A -   "
2.83, 100.491, 0.00484266, NaN, NaN, NaN, 0.03601294, "- N/A -   "
2.84, 100.727, 0.004859315, NaN, NaN, NaN, 0.0372337, "- N/A -   "
2.85, 100.963, 0.0048732, NaN, NaN, NaN, 0.0372337, "- N/A -   "
2.86, 101.317, 0.004887083, NaN, NaN, NaN, 0.0384545, "- N/A -   "
2.87, 101.671, 0.00490374, NaN, NaN, NaN, 0.0384545, "- N/A -   "
2.88, 102.025, 0.004920405, NaN, NaN, NaN, 0.0396753, "- N/A -   "
2.89, 102.26, 0.004937065, NaN, NaN, NaN, 0.0384545, "- N/A -   "
2.9, 102.6143, 0.00495373, NaN, NaN, NaN, 0.0396753, "- N/A -   "
2.91, 102.968, 0.004967609, NaN, NaN, NaN, 0.0396753, "- N/A -   "
2.92, 103.44, 0.00498427, NaN, NaN, NaN, 0.0396753, "- N/A -   "
2.93, 103.676, 0.00500093, NaN, NaN, NaN, 0.0396753, "- N/A -   "
2.94, 104.03, 0.00501481, NaN, NaN, NaN, 0.04089605, "- N/A -   "
2.95, 104.384, 0.005031475, NaN, NaN, NaN, 0.04211683, "- N/A -   "
2.96, 104.619, 0.00504536, NaN, NaN, NaN, 0.0433376, "- N/A -   "
2.97, 104.855, 0.00505924, NaN, NaN, NaN, 0.0433376, "- N/A -   "
2.98, 105.209, 0.00507313, NaN, NaN, NaN, 0.0445584, "- N/A -   "
2.99, 105.563, 0.00508979, NaN, NaN, NaN, 0.0445584, "- N/A -   "
3, 105.917, 0.005106447, NaN, NaN, NaN, 0.0445584, "- N/A -   "
3.01, 106.271, 0.005123107, NaN, NaN, NaN, 0.0445584, "- N/A -   "
3.02, 106.742, 0.00513977, NaN, NaN, NaN, 0.0445584, "- N/A -   "
3.03, 107.0963, 0.00515921, NaN, NaN, NaN, 0.0445584, "- N/A -   "
3.04, 107.3322, 0.005173089, NaN, NaN, NaN, 0.0445584, "- N/A -   "
3.05, 107.804, 0.00518975, NaN, NaN, NaN, 0.04577916, "- N/A -   "
3.06, 108.158, 0.00520641, NaN, NaN, NaN, 0.0445584, "- N/A -   "
3.07, 108.512, 0.005225847, NaN, NaN, NaN, 0.0445584, "- N/A -   "
3.08, 108.866, 0.00524251, NaN, NaN, NaN, 0.0433376, "- N/A -   "
3.09, 109.3373, 0.005261945, NaN, NaN, NaN, 0.0433376, "- N/A -   "
3.1, 109.8091, 0.005281382, NaN, NaN, NaN, 0.04089605, "- N/A -   "
3.11, 110.281, 0.0053036, NaN, NaN, NaN, 0.0396753, "- N/A -   "
3.12, 110.753, 0.00532303, NaN, NaN, NaN, 0.0372337, "- N/A -   "
3.13, 111.224, 0.005342471, NaN, NaN, NaN, 0.03601294, "- N/A -   "
3.14, 111.578, 0.00536191, NaN, NaN, NaN, 0.0347922, "- N/A -   "
3.15, 111.932, 0.00538412, NaN, NaN, NaN, 0.0335714, "- N/A -   "
3.16, 112.404, 0.005400782, NaN, NaN, NaN, 0.0323506, "- N/A -   "
3.17, 112.876, 0.00542022, NaN, NaN, NaN, 0.0323506, "- N/A -   "
3.18, 113.112, 0.00543688, NaN, NaN, NaN, 0.0323506, "- N/A -   "
3.19, 113.465, 0.00545076, NaN, NaN, NaN, 0.0323506, "- N/A -   "
3.2, 113.701, 0.00546465, NaN, NaN, NaN, 0.0335714, "- N/A -   "
3.21, 114.173, 0.005481308, NaN, NaN, NaN, 0.0335714, "- N/A -   "
3.22, 114.409, 0.005497969, NaN, NaN, NaN, 0.0347922, "- N/A -   "
3.23, 114.881, 0.005514629, NaN, NaN, NaN, 0.0347922, "- N/A -   "
3.24, 115.235, 0.00553129, NaN, NaN, NaN, 0.0335714, "- N/A -   "
3.25, 115.589, 0.00554517, NaN, NaN, NaN, 0.0347922, "- N/A -   "
3.26, 115.824, 0.00556183, NaN, NaN, NaN, 0.0347922, "- N/A -   "
3.27, 116.178, 0.005578494, NaN, NaN, NaN, 0.03601294, "- N/A -   "
3.28, 116.414, 0.005592378, NaN, NaN, NaN, 0.03601294, "- N/A -   "
3.29, 116.768, 0.005609039, NaN, NaN, NaN, 0.03601294, "- N/A -   "
3.3, 117.24, 0.005628476, NaN, NaN, NaN, 0.03601294, "- N/A -   "
3.31, 117.712, 0.00564236, NaN, NaN, NaN, 0.03601294, "- N/A -   "
3.32, 118.065, 0.0056618, NaN, NaN, NaN, 0.0347922, "- N/A -   "
3.33, 118.301, 0.005681234, NaN, NaN, NaN, 0.0347922, "- N/A -   "
3.34, 118.7731, 0.0056979, NaN, NaN, NaN, 0.0335714, "- N/A -   "
3.35, 119.245, 0.00571456, NaN, NaN, NaN, 0.0335714, "- N/A -   "
3.36, 119.599, 0.005733992, NaN, NaN, NaN, 0.0323506, "- N/A -   "
3.37, 120.071, 0.00575343, NaN, NaN, NaN, 0.03112983, "- N/A -   "
3.38, 120.424, 0.00577287, NaN, NaN, NaN, 0.0299091, "- N/A -   "
3.39, 120.778, 0.005792304, NaN, NaN, NaN, 0.0299091, "- N/A -   "
3.4, 121.25, 0.00580897, NaN, NaN, NaN, 0.0299091, "- N/A -   "
3.41, 121.604, 0.00582563, NaN, NaN, NaN, 0.0286883, "- N/A -   "
3.42, 121.84, 0.00583951, NaN, NaN, NaN, 0.0299091, "- N/A -   "
3.43, 122.194, 0.00585617, NaN, NaN, NaN, 0.03112983, "- N/A -   "
3.44, 122.429, 0.00587005, NaN, NaN, NaN, 0.03112983, "- N/A -   "
3.45, 122.901, 0.005886714, NaN, NaN, NaN, 0.0323506, "- N/A -   "
3.46, 123.255, 0.0059006, NaN, NaN, NaN, 0.0323506, "- N/A -   "
3.47, 123.491, 0.005917258, NaN, NaN, NaN, 0.0323506, "- N/A -   "
3.48, 123.845, 0.005933918, NaN, NaN, NaN, 0.0323506, "- N/A -   "
3.49, 124.199, 0.005947802, NaN, NaN, NaN, 0.0335714, "- N/A -   "
3.5, 124.553, 0.005961686, NaN, NaN, NaN, 0.0347922, "- N/A -   "
3.51, 124.788, 0.00597835, NaN, NaN, NaN, 0.03601294, "- N/A -   "
3.52, 125.142, 0.00599223, NaN, NaN, NaN, 0.03601294, "- N/A -   "
3.53, 125.378, 0.00600889, NaN, NaN, NaN, 0.0372337, "- N/A -   "
3.54, 125.85, 0.006022774, NaN, NaN, NaN, 0.0372337, "- N/A -   "
3.55, 126.086, 0.00603666, NaN, NaN, NaN, 0.0384545, "- N/A -   "
3.56, 126.322, 0.00605332, NaN, NaN, NaN, 0.0396753, "- N/A -   "
3.57, 126.558, 0.0060672, NaN, NaN, NaN, 0.04089605, "- N/A -   "
3.58, 126.911, 0.00607831, NaN, NaN, NaN, 0.04211683, "- N/A -   "
3.59, 127.265, 0.00609219, NaN, NaN, NaN, 0.0433376, "- N/A -   "
3.6, 127.501, 0.006108854, NaN, NaN, NaN, 0.0433376, "- N/A -   "
3.61, 127.855, 0.00612551, NaN, NaN, NaN, 0.0445584, "- N/A -   "
3.62, 128.209, 0.006139398, NaN, NaN, NaN, 0.04699994, "- N/A -   "
3.63, 128.563, 0.00615606, NaN, NaN, NaN, 0.04699994, "- N/A -   "
3.64, 128.917, 0.00617272, NaN, NaN, NaN, 0.04699994, "- N/A -   "
3.65, 129.27, 0.00618938, NaN, NaN, NaN, 0.04577916, "- N/A -   "
3.66, 129.388, 0.00620604, NaN, NaN, NaN, 0.04699994, "- N/A -   "
3.67, 129.978, 0.006219924, NaN, NaN, NaN, 0.04699994, "- N/A -   "
3.68, 130.332, 0.00623936, NaN, NaN, NaN, 0.04577916, "- N/A -   "
3.69, 130.6858, 0.0062588, NaN, NaN, NaN, 0.04577916, "- N/A -   "
3.7, 131.04, 0.006278236, NaN, NaN, NaN, 0.0433376, "- N/A -   "
3.71, 131.511, 0.00629767, NaN, NaN, NaN, 0.0433376, "- N/A -   "
3.72, 131.983, 0.00631711, NaN, NaN, NaN, 0.04089605, "- N/A -   "
3.73, 132.337, 0.006336548, NaN, NaN, NaN, 0.0396753, "- N/A -   "
3.74, 132.809, 0.00635598, NaN, NaN, NaN, 0.0384545, "- N/A -   "
3.75, 133.163, 0.00637542, NaN, NaN, NaN, 0.0384545, "- N/A -   "
3.76, 133.517, 0.006392082, NaN, NaN, NaN, 0.0372337, "- N/A -   "
3.77, 133.87, 0.00640874, NaN, NaN, NaN, 0.0372337, "- N/A -   "
3.78, 134.342, 0.00642818, NaN, NaN, NaN, 0.03601294, "- N/A -   "
3.79, 134.46, 0.00644484, NaN, NaN, NaN, 0.03601294, "- N/A -   "
3.8, 134.814, 0.006461502, NaN, NaN, NaN, 0.0372337, "- N/A -   "
3.81, 135.286, 0.00647539, NaN, NaN, NaN, 0.0372337, "- N/A -   "
3.82, 135.522, 0.00649482, NaN, NaN, NaN, 0.03601294, "- N/A -   "
3.83, 135.993, 0.00651426, NaN, NaN, NaN, 0.03601294, "- N/A -   "
3.84, 136.347, 0.00653092, NaN, NaN, NaN, 0.0347922, "- N/A -   "
3.85, 136.701, 0.00654758, NaN, NaN, NaN, 0.0347922, "- N/A -   "
3.86, 137.055, 0.006564242, NaN, NaN, NaN, 0.0347922, "- N/A -   "
3.87, 137.173, 0.0065809, NaN, NaN, NaN, 0.0347922, "- N/A -   "
3.88, 137.6447, 0.006597562, NaN, NaN, NaN, 0.0347922, "- N/A -   "
3.89, 137.999, 0.00661422, NaN, NaN, NaN, 0.0347922, "- N/A -   "
3.9, 138.47, 0.00663366, NaN, NaN, NaN, 0.0347922, "- N/A -   "
3.91, 138.706, 0.00665032, NaN, NaN, NaN, 0.0335714, "- N/A -   "
3.92, 139.06, 0.00666976, NaN, NaN, NaN, 0.0323506, "- N/A -   "
3.93, 139.532, 0.006689196, NaN, NaN, NaN, 0.03112983, "- N/A -   "
3.94, 139.8857, 0.006708632, NaN, NaN, NaN, 0.0299091, "- N/A -   "
3.95, 140.357, 0.00672529, NaN, NaN, NaN, 0.0299091, "- N/A -   "
3.96, 140.593, 0.006741954, NaN, NaN, NaN, 0.0299091, "- N/A -   "
3.97, 140.947, 0.00676139, NaN, NaN, NaN, 0.0286883, "- N/A -   "
3.98, 141.301, 0.006778052, NaN, NaN, NaN, 0.0286883, "- N/A -   "
3.99, 141.773, 0.00679749, NaN, NaN, NaN, 0.0286883, "- N/A -   "
4, 141.891, 0.00681415, NaN, NaN, NaN, 0.0274675, "- N/A -   "
4.01, 142.245, 0.00682803, NaN, NaN, NaN, 0.0286883, "- N/A -   "
4.02, 142.716, 0.006844694, NaN, NaN, NaN, 0.0286883, "- N/A -   "
4.03, 142.952, 0.006861354, NaN, NaN, NaN, 0.0286883, "- N/A -   "
4.04, 143.188, 0.006878014, NaN, NaN, NaN, 0.0286883, "- N/A -   "
4.05, 143.542, 0.00689467, NaN, NaN, NaN, 0.0286883, "- N/A -   "
4.06, 143.896, 0.006911336, NaN, NaN, NaN, 0.0286883, "- N/A -   "
4.07, 144.25, 0.00692522, NaN, NaN, NaN, 0.0299091, "- N/A -   "
4.08, 144.486, 0.00694188, NaN, NaN, NaN, 0.03112983, "- N/A -   "
4.09, 144.8395, 0.00695299, NaN, NaN, NaN, 0.0323506, "- N/A -   "
4.1, 145.0754, 0.00696965, NaN, NaN, NaN, 0.0335714, "- N/A -   "
4.11, 145.429, 0.00698353, NaN, NaN, NaN, 0.0335714, "- N/A -   "
4.12, 145.665, 0.00699741, NaN, NaN, NaN, 0.0347922, "- N/A -   "
4.13, 146.019, 0.0070113, NaN, NaN, NaN, 0.03601294, "- N/A -   "
4.14, 146.255, 0.00702518, NaN, NaN, NaN, 0.0372337, "- N/A -   "
4.15, 146.6087, 0.00703907, NaN, NaN, NaN, 0.0384545, "- N/A -   "
4.16, 146.727, 0.00705573, NaN, NaN, NaN, 0.0384545, "- N/A -   "
4.17, 147.0805, 0.00706961, NaN, NaN, NaN, 0.0396753, "- N/A -   "
4.18, 147.316, 0.007083494, NaN, NaN, NaN, 0.04089605, "- N/A -   "
4.19, 147.788, 0.00710015, NaN, NaN, NaN, 0.04211683, "- N/A -   "
4.2, 147.906, 0.00711404, NaN, NaN, NaN, 0.04211683, "- N/A -   "
4.21, 148.26, 0.00712792, NaN, NaN, NaN, 0.0433376, "- N/A -   "
4.22, 148.6138, 0.00714458, NaN, NaN, NaN, 0.0445584, "- N/A -   "
4.23, 148.968, 0.007161243, NaN, NaN, NaN, 0.0445584, "- N/A -   "
4.24, 149.3215, 0.0071779, NaN, NaN, NaN, 0.0445584, "- N/A -   "
4.25, 149.675, 0.007194564, NaN, NaN, NaN, 0.0433376, "- N/A -   "
4.26, 149.911, 0.00721122, NaN, NaN, NaN, 0.0445584, "- N/A -   "
4.27, 150.265, 0.00722511, NaN, NaN, NaN, 0.0445584, "- N/A -   "
4.28, 150.619, 0.007244546, NaN, NaN, NaN, 0.0445584, "- N/A -   "
4.29, 150.973, 0.00726121, NaN, NaN, NaN, 0.0433376, "- N/A -   "
4.3, 151.327, 0.007277867, NaN, NaN, NaN, 0.0433376, "- N/A -   "
4.31, 151.68, 0.007294527, NaN, NaN, NaN, 0.0433376, "- N/A -   "
4.32, 152.152, 0.007311188, NaN, NaN, NaN, 0.0433376, "- N/A -   "
4.33, 152.388, 0.00732785, NaN, NaN, NaN, 0.0445584, "- N/A -   "
4.34, 152.624, 0.00734173, NaN, NaN, NaN, 0.0445584, "- N/A -   "
4.35, 152.978, 0.00735839, NaN, NaN, NaN, 0.0445584, "- N/A -   "
4.36, 153.332, 0.00737228, NaN, NaN, NaN, 0.04577916, "- N/A -   "
4.37, 153.686, 0.007391713, NaN, NaN, NaN, 0.0445584, "- N/A -   "
4.38, 153.921, 0.00740837, NaN, NaN, NaN, 0.0445584, "- N/A -   "
4.39, 154.2753, 0.00742503, NaN, NaN, NaN, 0.0445584, "- N/A -   "
4.4, 154.629, 0.007441695, NaN, NaN, NaN, 0.0445584, "- N/A -   "
4.41, 155.101, 0.00746113, NaN, NaN, NaN, 0.0433376, "- N/A -   "
4.42, 155.337, 0.007477793, NaN, NaN, NaN, 0.0433376, "- N/A -   "
4.43, 155.809, 0.00749723, NaN, NaN, NaN, 0.0433376, "- N/A -   "
4.44, 156.0445, 0.00751389, NaN, NaN, NaN, 0.04211683, "- N/A -   "
4.45, 156.5163, 0.00753333, NaN, NaN, NaN, 0.04211683, "- N/A -   "
4.46, 156.988, 0.007552765, NaN, NaN, NaN, 0.0396753, "- N/A -   "
4.47, 157.342, 0.0075722, NaN, NaN, NaN, 0.0384545, "- N/A -   "
4.48, 157.696, 0.007591639, NaN, NaN, NaN, 0.0372337, "- N/A -   "
4.49, 158.0496, 0.007613853, NaN, NaN, NaN, 0.03601294, "- N/A -   "
4.5, 158.639, 0.00763329, NaN, NaN, NaN, 0.0335714, "- N/A -   "
4.51, 158.9932, 0.00765273, NaN, NaN, NaN, 0.0323506, "- N/A -   "
4.52, 159.347, 0.007672165, NaN, NaN, NaN, 0.03112983, "- N/A -   "
4.53, 159.701, 0.0076916, NaN, NaN, NaN, 0.03112983, "- N/A -   "
4.54, 160.055, 0.007705487, NaN, NaN, NaN, 0.03112983, "- N/A -   "
4.55, 160.409, 0.007722147, NaN, NaN, NaN, 0.03112983, "- N/A -   "
4.56, 160.644, 0.00774158, NaN, NaN, NaN, 0.03112983, "- N/A -   "
4.57, 161.116, 0.00775547, NaN, NaN, NaN, 0.03112983, "- N/A -   "
4.58, 161.352, 0.00777491, NaN, NaN, NaN, 0.03112983, "- N/A -   "
4.59, 161.588, 0.007788789, NaN, NaN, NaN, 0.03112983, "- N/A -   "
4.6, 161.942, 0.00780545, NaN, NaN, NaN, 0.03112983, "- N/A -   "
4.61, 162.296, 0.007819333, NaN, NaN, NaN, 0.0323506, "- N/A -   "
4.62, 162.65, 0.007835994, NaN, NaN, NaN, 0.0323506, "- N/A -   "
4.63, 162.885, 0.007852655, NaN, NaN, NaN, 0.0323506, "- N/A -   "
4.64, 163.2393, 0.007866538, NaN, NaN, NaN, 0.0335714, "- N/A -   "
4.65, 163.593, 0.007883199, NaN, NaN, NaN, 0.0335714, "- N/A -   "
4.66, 163.829, 0.007899859, NaN, NaN, NaN, 0.0335714, "- N/A -   "
4.67, 164.183, 0.007916519, NaN, NaN, NaN, 0.0335714, "- N/A -   "
4.68, 164.537, 0.007930404, NaN, NaN, NaN, 0.0347922, "- N/A -   "
4.69, 164.891, 0.007944287, NaN, NaN, NaN, 0.03601294, "- N/A -   "
4.7, 165.126, 0.007960947, NaN, NaN, NaN, 0.0372337, "- N/A -   "
4.71, 165.4803, 0.007974831, NaN, NaN, NaN, 0.0372337, "- N/A -   "
4.72, 165.7162, 0.007991492, NaN, NaN, NaN, 0.0372337, "- N/A -   "
4.73, 166.07, 0.008008153, NaN, NaN, NaN, 0.0372337, "- N/A -   "
4.74, 166.424, 0.008022036, NaN, NaN, NaN, 0.0384545, "- N/A -   "
4.75, 166.66, 0.008038697, NaN, NaN, NaN, 0.0384545, "- N/A -   "
4.76, 167.014, 0.008055357, NaN, NaN, NaN, 0.0384545, "- N/A -   "
4.77, 167.367, 0.008072018, NaN, NaN, NaN, 0.0384545, "- N/A -   "
4.78, 167.7213, 0.008088679, NaN, NaN, NaN, 0.0384545, "- N/A -   "
4.79, 167.9572, 0.008105339, NaN, NaN, NaN, 0.0384545, "- N/A -   "
4.8, 168.429, 0.008121999, NaN, NaN, NaN, 0.0384545, "- N/A -   "
4.81, 168.665, 0.008138659, NaN, NaN, NaN, 0.0384545, "- N/A -   "
4.82, 169.019, 0.008155321, NaN, NaN, NaN, 0.0384545, "- N/A -   "
4.83, 169.491, 0.008171981, NaN, NaN, NaN, 0.0384545, "- N/A -   "
4.84, 169.844, 0.008191418, NaN, NaN, NaN, 0.0372337, "- N/A -   "
4.85, 170.08, 0.008208079, NaN, NaN, NaN, 0.0372337, "- N/A -   "
4.86, 170.4341, 0.008224739, NaN, NaN, NaN, 0.0384545, "- N/A -   "
4.87, 170.788, 0.008238623, NaN, NaN, NaN, 0.0384545, "- N/A -   "
4.88, 171.142, 0.008255283, NaN, NaN, NaN, 0.0384545, "- N/A -   "
4.89, 171.378, 0.008271944, NaN, NaN, NaN, 0.0396753, "- N/A -   "
4.9, 171.732, 0.008285827, NaN, NaN, NaN, 0.0396753, "- N/A -   "
4.91, 171.9674, 0.008302487, NaN, NaN, NaN, 0.04089605, "- N/A -   "
4.92, 172.4392, 0.008316372, NaN, NaN, NaN, 0.04089605, "- N/A -   "
4.93, 172.6751, 0.008333033, NaN, NaN, NaN, 0.04211683, "- N/A -   "
4.94, 172.793, 0.008346915, NaN, NaN, NaN, 0.04211683, "- N/A -   "
4.95, 173.265, 0.008366354, NaN, NaN, NaN, 0.04211683, "- N/A -   "
4.96, 173.619, 0.008380237, NaN, NaN, NaN, 0.04211683, "- N/A -   "
4.97, 173.855, 0.008396897, NaN, NaN, NaN, 0.0433376, "- N/A -   "
4.98, 174.09, 0.008410782, NaN, NaN, NaN, 0.0433376, "- N/A -   "
4.99, 174.562, 0.008427442, NaN, NaN, NaN, 0.0445584, "- N/A -   "
5, 174.798, 0.008441325, NaN, NaN, NaN, 0.0445584, "- N/A -   "
5.01, 175.152, 0.008457986, NaN, NaN, NaN, 0.0445584, "- N/A -   "
5.02, 175.506, 0.008474647, NaN, NaN, NaN, 0.0445584, "- N/A -   "
5.03, 175.86, 0.008494084, NaN, NaN, NaN, 0.0433376, "- N/A -   "
5.04, 176.331, 0.008510745, NaN, NaN, NaN, 0.0433376, "- N/A -   "
5.05, 176.567, 0.008530182, NaN, NaN, NaN, 0.0433376, "- N/A -   "
5.06, 177.039, 0.00854962, NaN, NaN, NaN, 0.04211683, "- N/A -   "
5.07, 177.393, 0.008569056, NaN, NaN, NaN, 0.04089605, "- N/A -   "
5.08, 177.865, 0.00858572, NaN, NaN, NaN, 0.0396753, "- N/A -   "
5.09, 178.219, 0.008607931, NaN, NaN, NaN, 0.0372337, "- N/A -   "
5.1, 178.572, 0.008627368, NaN, NaN, NaN, 0.03601294, "- N/A -   "
5.11, 179.044, 0.008646806, NaN, NaN, NaN, 0.0347922, "- N/A -   "
5.12, 179.516, 0.008666243, NaN, NaN, NaN, 0.0335714, "- N/A -   "
5.13, 179.87, 0.00868568, NaN, NaN, NaN, 0.0323506, "- N/A -   "
5.14, 180.224, 0.008705118, NaN, NaN, NaN, 0.03112983, "- N/A -   "
5.15, 180.578, 0.00872455, NaN, NaN, NaN, 0.0299091, "- N/A -   "
5.16, 180.931, 0.008741215, NaN, NaN, NaN, 0.0299091, "- N/A -   "
5.17, 181.285, 0.008760652, NaN, NaN, NaN, 0.0286883, "- N/A -   "
5.18, 181.639, 0.008780089, NaN, NaN, NaN, 0.0286883, "- N/A -   "
5.19, 182.1109, 0.00879675, NaN, NaN, NaN, 0.0286883, "- N/A -   "
5.2, 182.3468, 0.00881341, NaN, NaN, NaN, 0.0286883, "- N/A -   "
5.21, 182.701, 0.008827294, NaN, NaN, NaN, 0.0286883, "- N/A -   "
5.22, 182.937, 0.008841177, NaN, NaN, NaN, 0.0299091, "- N/A -   "
5.23, 183.172, 0.008855062, NaN, NaN, NaN, 0.03112983, "- N/A -   "
5.24, 183.526, 0.008868946, NaN, NaN, NaN, 0.0323506, "- N/A -   "
5.25, 183.8801, 0.008885606, NaN, NaN, NaN, 0.0335714, "- N/A -   "
5.26, 184.116, 0.008899489, NaN, NaN, NaN, 0.0335714, "- N/A -   "
5.27, 184.47, 0.00891615, NaN, NaN, NaN, 0.0335714, "- N/A -   "
5.28, 184.706, 0.008932811, NaN, NaN, NaN, 0.0347922, "- N/A -   "
5.29, 185.06, 0.008946694, NaN, NaN, NaN, 0.0347922, "- N/A -   "
5.3, 185.413, 0.008966132, NaN, NaN, NaN, 0.0335714, "- N/A -   "
5.31, 185.885, 0.008982792, NaN, NaN, NaN, 0.0335714, "- N/A -   "
5.32, 186.121, 0.008999453, NaN, NaN, NaN, 0.0347922, "- N/A -   "
5.33, 186.357, 0.009013336, NaN, NaN, NaN, 0.0347922, "- N/A -   "
5.34, 186.829, 0.009032774, NaN, NaN, NaN, 0.0347922, "- N/A -   "
5.35, 187.183, 0.009046658, NaN, NaN, NaN, 0.0347922, "- N/A -   "
5.36, 187.419, 0.009063318, NaN, NaN, NaN, 0.0347922, "- N/A -   "
5.37, 187.772, 0.009079978, NaN, NaN, NaN, 0.0347922, "- N/A -   "
5.38, 188.008, 0.009096639, NaN, NaN, NaN, 0.0347922, "- N/A -   "
5.39, 188.48, 0.009116076, NaN, NaN, NaN, 0.0335714, "- N/A -   "
5.4, 188.952, 0.009132737, NaN, NaN, NaN, 0.0335714, "- N/A -   "
5.41, 189.188, 0.009152174, NaN, NaN, NaN, 0.0323506, "- N/A -   "
5.42, 189.5416, 0.009168834, NaN, NaN, NaN, 0.0323506, "- N/A -   "
5.43, 190.013, 0.009188272, NaN, NaN, NaN, 0.0323506, "- N/A -   "
5.44, 190.249, 0.00920493, NaN, NaN, NaN, 0.0323506, "- N/A -   "
5.45, 190.603, 0.009218816, NaN, NaN, NaN, 0.0323506, "- N/A -   "
5.46, 190.839, 0.009235476, NaN, NaN, NaN, 0.0323506, "- N/A -   "
5.47, 191.193, 0.00924936, NaN, NaN, NaN, 0.0347922, "- N/A -   "
5.48, 191.429, 0.009263244, NaN, NaN, NaN, 0.0347922, "- N/A -   "
5.49, 191.665, 0.009277128, NaN, NaN, NaN, 0.03601294, "- N/A -   "
5.5, 192.136, 0.009293788, NaN, NaN, NaN, 0.03601294, "- N/A -   "
5.51, 192.372, 0.009307672, NaN, NaN, NaN, 0.0372337, "- N/A -   "
5.52, 192.726, 0.009324333, NaN, NaN, NaN, 0.0372337, "- N/A -   "
5.53, 192.962, 0.009340994, NaN, NaN, NaN, 0.0372337, "- N/A -   "
5.54, 193.198, 0.009354877, NaN, NaN, NaN, 0.0384545, "- N/A -   "
5.55, 193.5518, 0.00936876, NaN, NaN, NaN, 0.0396753, "- N/A -   "
5.56, 193.906, 0.009382645, NaN, NaN, NaN, 0.04089605, "- N/A -   "
5.57, 194.259, 0.009396528, NaN, NaN, NaN, 0.04211683, "- N/A -   "
5.58, 194.495, 0.009413188, NaN, NaN, NaN, 0.0433376, "- N/A -   "
5.59, 194.731, 0.00942707, NaN, NaN, NaN, 0.0433376, "- N/A -   "
5.6, 195.085, 0.00944651, NaN, NaN, NaN, 0.0433376, "- N/A -   "
5.61, 195.439, 0.009463171, NaN, NaN, NaN, 0.04211683, "- N/A -   "
5.62, 195.911, 0.00947983, NaN, NaN, NaN, 0.04211683, "- N/A -   "
5.63, 196.265, 0.009496491, NaN, NaN, NaN, 0.04211683, "- N/A -   "
5.64, 196.618, 0.009513152, NaN, NaN, NaN, 0.04211683, "- N/A -   "
5.65, 196.972, 0.009532589, NaN, NaN, NaN, 0.04211683, "- N/A -   "
5.66, 197.326, 0.009552026, NaN, NaN, NaN, 0.04089605, "- N/A -   "
5.67, 197.68, 0.009568687, NaN, NaN, NaN, 0.0396753, "- N/A -   "
5.68, 198.034, 0.009585348, NaN, NaN, NaN, 0.0396753, "- N/A -   "
5.69, 198.388, 0.009602008, NaN, NaN, NaN, 0.0396753, "- N/A -   "
5.7, 198.741, 0.009618668, NaN, NaN, NaN, 0.0396753, "- N/A -   "
5.71, 199.095, 0.009635328, NaN, NaN, NaN, 0.0396753, "- N/A -   "
5.72, 199.449, 0.009654766, NaN, NaN, NaN, 0.0396753, "- N/A -   "
5.73, 199.567, 0.00966865, NaN, NaN, NaN, 0.0396753, "- N/A -   "
5.74, 200.157, 0.009685311, NaN, NaN, NaN, 0.0396753, "- N/A -   "
5.75, 200.275, 0.009704748, NaN, NaN, NaN, 0.0396753, "- N/A -   "
5.76, 200.865, 0.009721409, NaN, NaN, NaN, 0.0384545, "- N/A -   "
5.77, 201.2184, 0.009740844, NaN, NaN, NaN, 0.0384545, "- N/A -   "
5.78, 201.572, 0.00975473, NaN, NaN, NaN, 0.0384545, "- N/A -   "
5.79, 201.808, 0.00977139, NaN, NaN, NaN, 0.0384545, "- N/A -   "
5.8, 202.162, 0.009790827, NaN, NaN, NaN, 0.0372337, "- N/A -   "
5.81, 202.634, 0.009807487, NaN, NaN, NaN, 0.0372337, "- N/A -   "
5.82, 202.87, 0.009826925, NaN, NaN, NaN, 0.0372337, "- N/A -   "
5.83, 203.2235, 0.009846362, NaN, NaN, NaN, 0.03601294, "- N/A -   "
5.84, 203.695, 0.009863023, NaN, NaN, NaN, 0.0347922, "- N/A -   "
5.85, 204.049, 0.009879682, NaN, NaN, NaN, 0.0347922, "- N/A -   "
5.86, 204.285, 0.009896343, NaN, NaN, NaN, 0.0347922, "- N/A -   "
5.87, 204.521, 0.009913004, NaN, NaN, NaN, 0.0347922, "- N/A -   "
5.88, 204.875, 0.009929664, NaN, NaN, NaN, 0.0347922, "- N/A -   "
5.89, 205.2286, 0.009943549, NaN, NaN, NaN, 0.03601294, "- N/A -   "
5.9, 205.582, 0.009962985, NaN, NaN, NaN, 0.03601294, "- N/A -   "
5.91, 205.936, 0.00997687, NaN, NaN, NaN, 0.03601294, "- N/A -   "
5.92, 206.172, 0.00999353, NaN, NaN, NaN, 0.03601294, "- N/A -   "
5.93, 206.644, 0.01001019, NaN, NaN, NaN, 0.03601294, "- N/A -   "
5.94, 206.9978, 0.0100296, NaN, NaN, NaN, 0.0347922, "- N/A -   "
5.95, 207.352, 0.0100463, NaN, NaN, NaN, 0.0347922, "- N/A -   "
5.96, 207.705, 0.0100657, NaN, NaN, NaN, 0.0335714, "- N/A -   "
[...]
35.44, 1458.17, 0.05920035, NaN, NaN, NaN, 0.0335714, "- N/A -   "
35.47, 1459.36, 0.0592448, NaN, NaN, NaN, 0.03601294, "- N/A -   "
35.5, 1460.79, 0.0592948, NaN, NaN, NaN, 0.03601294, "- N/A -   "
35.53, 1462.1, 0.059342, NaN, NaN, NaN, 0.0372337, "- N/A -   "
35.56, 1463.53, 0.05939472, NaN, NaN, NaN, 0.03601294, "- N/A -   "
35.59, 1464.85, 0.0594419, NaN, NaN, NaN, 0.0372337, "- N/A -   "
35.62, 1466.04, 0.0594836, NaN, NaN, NaN, 0.04089605, "- N/A -   "
35.65, 1467.23, 0.0595252, NaN, NaN, NaN, 0.0445584, "- N/A -   "
35.68, 1468.42, 0.05957521, NaN, NaN, NaN, 0.0445584, "- N/A -   "
35.71, 1469.97, 0.0596224, NaN, NaN, NaN, 0.04577916, "- N/A -   "
35.74, 1471.29, 0.0596724, NaN, NaN, NaN, 0.04577916, "- N/A -   "
35.77, 1472.84, 0.05972793, NaN, NaN, NaN, 0.0433376, "- N/A -   "
35.8, 1474.62, 0.0597862, NaN, NaN, NaN, 0.04089605, "- N/A -   "
35.83, 1476.17, 0.0598418, NaN, NaN, NaN, 0.0372337, "- N/A -   "
35.86, 1477.72, 0.0598973, NaN, NaN, NaN, 0.0347922, "- N/A -   "
35.89, 1479.28, 0.0599501, NaN, NaN, NaN, 0.0335714, "- N/A -   "
35.92, 1480.587, 0.0600001, NaN, NaN, NaN, 0.0335714, "- N/A -   "
35.95, 1482.02, 0.06005, NaN, NaN, NaN, 0.0347922, "- N/A -   "
35.98, 1483.33, 0.06009724, NaN, NaN, NaN, 0.0347922, "- N/A -   "
36.01, 1484.64, 0.0601444, NaN, NaN, NaN, 0.03601294, "- N/A -   "
36.04, 1485.95, 0.06019165, NaN, NaN, NaN, 0.0372337, "- N/A -   "
36.07, 1487.38, 0.0602444, NaN, NaN, NaN, 0.0372337, "- N/A -   "
36.1, 1489.05, 0.0602999, NaN, NaN, NaN, 0.0335714, "- N/A -   "
36.13, 1490.48, 0.0603555, NaN, NaN, NaN, 0.0323506, "- N/A -   "
36.16, 1491.8, 0.0603999, NaN, NaN, NaN, 0.0335714, "- N/A -   "
36.19, 1492.99, 0.0604443, NaN, NaN, NaN, 0.03601294, "- N/A -   "
36.22, 1494.18, 0.06048876, NaN, NaN, NaN, 0.0384545, "- N/A -   "
36.25, 1495.49, 0.0605332, NaN, NaN, NaN, 0.04089605, "- N/A -   "
36.28, 1496.69, 0.06058317, NaN, NaN, NaN, 0.04211683, "- N/A -   "
36.31, 1498, 0.0606304, NaN, NaN, NaN, 0.0433376, "- N/A -   "
36.34, 1499.43, 0.0606804, NaN, NaN, NaN, 0.04211683, "- N/A -   "
36.37, 1501.1, 0.0607359, NaN, NaN, NaN, 0.04089605, "- N/A -   "
36.4, 1502.29, 0.06078032, NaN, NaN, NaN, 0.04211683, "- N/A -   "
36.43, 1503.84, 0.0608303, NaN, NaN, NaN, 0.04211683, "- N/A -   "
36.46, 1505.27, 0.06088584, NaN, NaN, NaN, 0.0396753, "- N/A -   "
36.49, 1506.94, 0.0609414, NaN, NaN, NaN, 0.0372337, "- N/A -   "
36.52, 1508.492, 0.06099691, NaN, NaN, NaN, 0.03601294, "- N/A -   "
36.55, 1509.923, 0.0610497, NaN, NaN, NaN, 0.0347922, "- N/A -   "
36.58, 1511.354, 0.06109965, NaN, NaN, NaN, 0.0335714, "- N/A -   "
36.61, 1512.67, 0.0611524, NaN, NaN, NaN, 0.0335714, "- N/A -   "
36.64, 1514.1, 0.0612024, NaN, NaN, NaN, 0.0335714, "- N/A -   "
36.67, 1515.53, 0.0612551, NaN, NaN, NaN, 0.0323506, "- N/A -   "
36.7, 1516.96, 0.06130235, NaN, NaN, NaN, 0.0323506, "- N/A -   "
36.73, 1518.27, 0.06135233, NaN, NaN, NaN, 0.0335714, "- N/A -   "
36.76, 1519.58, 0.0614023, NaN, NaN, NaN, 0.0335714, "- N/A -   "
36.79, 1521.13, 0.0614523, NaN, NaN, NaN, 0.0335714, "- N/A -   "
36.82, 1522.56, 0.0615023, NaN, NaN, NaN, 0.0323506, "- N/A -   "
36.85, 1523.88, 0.0615523, NaN, NaN, NaN, 0.0323506, "- N/A -   "
36.88, 1525.19, 0.0616022, NaN, NaN, NaN, 0.0335714, "- N/A -   "
36.91, 1526.62, 0.0616494, NaN, NaN, NaN, 0.0335714, "- N/A -   "
36.94, 1527.93, 0.0616994, NaN, NaN, NaN, 0.0347922, "- N/A -   "
36.97, 1529.24, 0.0617439, NaN, NaN, NaN, 0.0372337, "- N/A -   "
37, 1530.43, 0.06178828, NaN, NaN, NaN, 0.0396753, "- N/A -   "
37.03, 1531.63, 0.06183271, NaN, NaN, NaN, 0.04211683, "- N/A -   "
37.06, 1532.94, 0.0618771, NaN, NaN, NaN, 0.0433376, "- N/A -   "
37.09, 1534.25, 0.06192434, NaN, NaN, NaN, 0.0445584, "- N/A -   "
37.12, 1535.44, 0.06197155, NaN, NaN, NaN, 0.04577916, "- N/A -   "
37.15, 1536.99, 0.0620215, NaN, NaN, NaN, 0.04699994, "- N/A -   "
37.18, 1538.3, 0.0620743, NaN, NaN, NaN, 0.04577916, "- N/A -   "
37.21, 1539.97, 0.06212982, NaN, NaN, NaN, 0.0433376, "- N/A -   "
37.24, 1541.644, 0.0621881, NaN, NaN, NaN, 0.0384545, "- N/A -   "
37.27, 1543.31, 0.0622437, NaN, NaN, NaN, 0.03601294, "- N/A -   "
37.3, 1544.74, 0.0622964, NaN, NaN, NaN, 0.0347922, "- N/A -   "
37.33, 1546.18, 0.0623492, NaN, NaN, NaN, 0.0347922, "- N/A -   "
37.36, 1547.85, 0.0624019, NaN, NaN, NaN, 0.0323506, "- N/A -   "
37.39, 1549.16, 0.0624519, NaN, NaN, NaN, 0.0323506, "- N/A -   "
37.42, 1550.47, 0.06250191, NaN, NaN, NaN, 0.0335714, "- N/A -   "
37.45, 1551.9, 0.0625519, NaN, NaN, NaN, 0.0323506, "- N/A -   "
37.48, 1553.57, 0.06261298, NaN, NaN, NaN, 0.0286883, "- N/A -   "
37.51, 1555, 0.06266296, NaN, NaN, NaN, 0.0274675, "- N/A -   "
37.54, 1556.312, 0.06271016, NaN, NaN, NaN, 0.0286883, "- N/A -   "
37.57, 1557.39, 0.0627518, NaN, NaN, NaN, 0.0323506, "- N/A -   "
37.6, 1558.697, 0.06279624, NaN, NaN, NaN, 0.0347922, "- N/A -   "
37.63, 1559.77, 0.06284345, NaN, NaN, NaN, 0.0372337, "- N/A -   "
37.66, 1561.082, 0.06288788, NaN, NaN, NaN, 0.0384545, "- N/A -   "
37.69, 1562.16, 0.06292675, NaN, NaN, NaN, 0.0433376, "- N/A -   "
37.72, 1563.467, 0.062974, NaN, NaN, NaN, 0.0445584, "- N/A -   "
37.75, 1564.78, 0.06302116, NaN, NaN, NaN, 0.04699994, "- N/A -   "
37.78, 1566.09, 0.06306836, NaN, NaN, NaN, 0.04699994, "- N/A -   "
37.81, 1567.52, 0.0631211, NaN, NaN, NaN, 0.04699994, "- N/A -   "
37.84, 1569.19, 0.0631767, NaN, NaN, NaN, 0.0433376, "- N/A -   "
37.87, 1570.86, 0.06323775, NaN, NaN, NaN, 0.0384545, "- N/A -   "
37.9, 1572.65, 0.06329884, NaN, NaN, NaN, 0.0347922, "- N/A -   "
37.93, 1574.319, 0.0633571, NaN, NaN, NaN, 0.03112983, "- N/A -   "
37.96, 1575.63, 0.06340713, NaN, NaN, NaN, 0.03112983, "- N/A -   "
37.99, 1576.94, 0.06345711, NaN, NaN, NaN, 0.03112983, "- N/A -   "
38.02, 1578.612, 0.06350987, NaN, NaN, NaN, 0.0299091, "- N/A -   "
38.05, 1579.924, 0.06355707, NaN, NaN, NaN, 0.0299091, "- N/A -   "
38.08, 1581.24, 0.06360705, NaN, NaN, NaN, 0.0299091, "- N/A -   "
38.11, 1582.67, 0.06365704, NaN, NaN, NaN, 0.0299091, "- N/A -   "
38.14, 1583.98, 0.06370702, NaN, NaN, NaN, 0.0299091, "- N/A -   "
38.17, 1585.29, 0.063757, NaN, NaN, NaN, 0.03112983, "- N/A -   "
38.2, 1586.6, 0.0638042, NaN, NaN, NaN, 0.03112983, "- N/A -   "
38.23, 1587.91, 0.06384863, NaN, NaN, NaN, 0.0335714, "- N/A -   "
38.26, 1588.987, 0.0638903, NaN, NaN, NaN, 0.0372337, "- N/A -   "
38.29, 1590.06, 0.0639292, NaN, NaN, NaN, 0.04211683, "- N/A -   "
38.32, 1591.25, 0.06397358, NaN, NaN, NaN, 0.0445584, "- N/A -   "
38.35, 1592.68, 0.06402356, NaN, NaN, NaN, 0.0445584, "- N/A -   "
38.38, 1594.234, 0.06407632, NaN, NaN, NaN, 0.0445584, "- N/A -   "
38.41, 1595.55, 0.0641263, NaN, NaN, NaN, 0.0433376, "- N/A -   "
38.44, 1596.98, 0.06417629, NaN, NaN, NaN, 0.0433376, "- N/A -   "
38.47, 1598.29, 0.06422627, NaN, NaN, NaN, 0.0433376, "- N/A -   "
38.5, 1599.839, 0.06427625, NaN, NaN, NaN, 0.0433376, "- N/A -   "
38.53, 1601.15, 0.0643262, NaN, NaN, NaN, 0.0433376, "- N/A -   "
38.56, 1602.82, 0.06438176, NaN, NaN, NaN, 0.04211683, "- N/A -   "
38.59, 1604.37, 0.0644373, NaN, NaN, NaN, 0.0396753, "- N/A -   "
38.62, 1606.04, 0.0644984, NaN, NaN, NaN, 0.0335714, "- N/A -   "
38.65, 1607.71, 0.0645567, NaN, NaN, NaN, 0.0299091, "- N/A -   "
38.68, 1609.14, 0.06460946, NaN, NaN, NaN, 0.0286883, "- N/A -   "
38.71, 1610.57, 0.06465945, NaN, NaN, NaN, 0.0286883, "- N/A -   "
38.74, 1611.88, 0.0647094, NaN, NaN, NaN, 0.0286883, "- N/A -   "
38.77, 1613.2, 0.06475663, NaN, NaN, NaN, 0.03112983, "- N/A -   "
38.8, 1614.39, 0.06480106, NaN, NaN, NaN, 0.0323506, "- N/A -   "
38.83, 1615.82, 0.06484826, NaN, NaN, NaN, 0.0335714, "- N/A -   "
38.86, 1617.13, 0.0648982, NaN, NaN, NaN, 0.0347922, "- N/A -   "
38.89, 1618.323, 0.06494267, NaN, NaN, NaN, 0.03601294, "- N/A -   "
38.92, 1619.63, 0.06499265, NaN, NaN, NaN, 0.03601294, "- N/A -   "
38.95, 1621.185, 0.06504264, NaN, NaN, NaN, 0.03601294, "- N/A -   "
38.98, 1622.616, 0.0650926, NaN, NaN, NaN, 0.03601294, "- N/A -   "
39.01, 1623.69, 0.06513704, NaN, NaN, NaN, 0.0384545, "- N/A -   "
39.04, 1625, 0.06518425, NaN, NaN, NaN, 0.04089605, "- N/A -   "
39.07, 1626.19, 0.06522868, NaN, NaN, NaN, 0.04211683, "- N/A -   "
39.1, 1627.51, 0.0652759, NaN, NaN, NaN, 0.0433376, "- N/A -   "
39.13, 1628.94, 0.0653231, NaN, NaN, NaN, 0.0445584, "- N/A -   "
39.16, 1630.37, 0.06537584, NaN, NaN, NaN, 0.0433376, "- N/A -   "
39.19, 1632.04, 0.06543416, NaN, NaN, NaN, 0.0396753, "- N/A -   "
39.22, 1633.59, 0.0654952, NaN, NaN, NaN, 0.03601294, "- N/A -   "
39.25, 1635.5, 0.06555355, NaN, NaN, NaN, 0.03112983, "- N/A -   "
39.28, 1636.93, 0.06560909, NaN, NaN, NaN, 0.0299091, "- N/A -   "
39.31, 1638.238, 0.0656563, NaN, NaN, NaN, 0.0299091, "- N/A -   "
39.34, 1639.55, 0.0657035, NaN, NaN, NaN, 0.0323506, "- N/A -   "
39.37, 1640.86, 0.0657507, NaN, NaN, NaN, 0.0335714, "- N/A -   "
39.4, 1642.05, 0.06579514, NaN, NaN, NaN, 0.0347922, "- N/A -   "
39.43, 1643.49, 0.06584512, NaN, NaN, NaN, 0.03601294, "- N/A -   "
39.46, 1644.92, 0.0658951, NaN, NaN, NaN, 0.0347922, "- N/A -   "
39.49, 1646.35, 0.06594785, NaN, NaN, NaN, 0.0335714, "- N/A -   "
39.52, 1647.78, 0.06600061, NaN, NaN, NaN, 0.0335714, "- N/A -   "
39.55, 1649.21, 0.0660506, NaN, NaN, NaN, 0.0323506, "- N/A -   "
39.58, 1650.521, 0.0660978, NaN, NaN, NaN, 0.0335714, "- N/A -   "
39.61, 1651.952, 0.066145, NaN, NaN, NaN, 0.03601294, "- N/A -   "
39.64, 1653.03, 0.06619221, NaN, NaN, NaN, 0.03601294, "- N/A -   "
39.67, 1654.22, 0.06623664, NaN, NaN, NaN, 0.0384545, "- N/A -   "
39.7, 1655.41, 0.06627829, NaN, NaN, NaN, 0.04211683, "- N/A -   "
39.73, 1656.84, 0.06633105, NaN, NaN, NaN, 0.04089605, "- N/A -   "
39.76, 1658.39, 0.06638381, NaN, NaN, NaN, 0.0396753, "- N/A -   "
39.79, 1659.82, 0.06643657, NaN, NaN, NaN, 0.0384545, "- N/A -   "
39.82, 1661.25, 0.0664838, NaN, NaN, NaN, 0.04089605, "- N/A -   "
39.85, 1662.57, 0.06653375, NaN, NaN, NaN, 0.04089605, "- N/A -   "
39.88, 1663.76, 0.06658095, NaN, NaN, NaN, 0.04211683, "- N/A -   "
39.91, 1665.31, 0.06663371, NaN, NaN, NaN, 0.04089605, "- N/A -   "
39.94, 1666.86, 0.0666892, NaN, NaN, NaN, 0.0384545, "- N/A -   "
39.97, 1668.29, 0.06673923, NaN, NaN, NaN, 0.0384545, "- N/A -   "
40, 1669.6, 0.06678921, NaN, NaN, NaN, 0.0384545, "- N/A -   "
40.03, 1671.03, 0.0668392, NaN, NaN, NaN, 0.0384545, "- N/A -   "
40.06, 1672.46, 0.06689195, NaN, NaN, NaN, 0.0384545, "- N/A -   "
40.09, 1674.01, 0.06694749, NaN, NaN, NaN, 0.03601294, "- N/A -   "
40.12, 1675.564, 0.06700025, NaN, NaN, NaN, 0.0335714, "- N/A -   "
40.15, 1676.995, 0.067053, NaN, NaN, NaN, 0.0323506, "- N/A -   "
40.18, 1678.31, 0.0671002, NaN, NaN, NaN, 0.0335714, "- N/A -   "
40.21, 1679.62, 0.06715019, NaN, NaN, NaN, 0.0335714, "- N/A -   "
40.24, 1681.05, 0.06720017, NaN, NaN, NaN, 0.0335714, "- N/A -   "
40.27, 1682.36, 0.0672502, NaN, NaN, NaN, 0.0347922, "- N/A -   "
40.3, 1683.79, 0.06730013, NaN, NaN, NaN, 0.0335714, "- N/A -   "
40.33, 1685.22, 0.06735289, NaN, NaN, NaN, 0.0335714, "- N/A -   "
40.36, 1686.42, 0.06739732, NaN, NaN, NaN, 0.0347922, "- N/A -   "
40.39, 1687.61, 0.06744175, NaN, NaN, NaN, 0.0372337, "- N/A -   "
40.42, 1688.92, 0.06748895, NaN, NaN, NaN, 0.0384545, "- N/A -   "
40.45, 1690.23, 0.06753616, NaN, NaN, NaN, 0.0396753, "- N/A -   "
40.48, 1691.42, 0.06758336, NaN, NaN, NaN, 0.04211683, "- N/A -   "
40.51, 1692.74, 0.06763057, NaN, NaN, NaN, 0.0433376, "- N/A -   "
40.54, 1694.29, 0.06767777, NaN, NaN, NaN, 0.0433376, "- N/A -   "
40.57, 1695.6, 0.06773053, NaN, NaN, NaN, 0.0433376, "- N/A -   "
40.6, 1697.03, 0.06778051, NaN, NaN, NaN, 0.04211683, "- N/A -   "
40.63, 1698.82, 0.0678416, NaN, NaN, NaN, 0.0372337, "- N/A -   "
40.66, 1700.49, 0.06789991, NaN, NaN, NaN, 0.0335714, "- N/A -   "
40.69, 1701.92, 0.06795267, NaN, NaN, NaN, 0.0323506, "- N/A -   "
40.72, 1703.23, 0.06800265, NaN, NaN, NaN, 0.0335714, "- N/A -   "
40.75, 1704.66, 0.0680526, NaN, NaN, NaN, 0.0323506, "- N/A -   "
40.78, 1705.97, 0.06810261, NaN, NaN, NaN, 0.0323506, "- N/A -   "
40.81, 1707.285, 0.0681526, NaN, NaN, NaN, 0.0323506, "- N/A -   "
40.84, 1708.6, 0.06820258, NaN, NaN, NaN, 0.0335714, "- N/A -   "
40.87, 1710.147, 0.0682581, NaN, NaN, NaN, 0.03112983, "- N/A -   "
40.9, 1711.7, 0.06831365, NaN, NaN, NaN, 0.0286883, "- N/A -   "
40.93, 1713.13, 0.06836085, NaN, NaN, NaN, 0.0286883, "- N/A -   "
40.96, 1714.32, 0.06840806, NaN, NaN, NaN, 0.0299091, "- N/A -   "
40.99, 1715.63, 0.0684525, NaN, NaN, NaN, 0.0323506, "- N/A -   "
41.02, 1716.83, 0.06849691, NaN, NaN, NaN, 0.0347922, "- N/A -   "
41.05, 1718.02, 0.06854134, NaN, NaN, NaN, 0.0372337, "- N/A -   "
41.08, 1718.97, 0.068583, NaN, NaN, NaN, 0.04211683, "- N/A -   "
41.11, 1720.16, 0.0686246, NaN, NaN, NaN, 0.0445584, "- N/A -   "
41.14, 1721.476, 0.06867185, NaN, NaN, NaN, 0.04577916, "- N/A -   "
41.17, 1722.79, 0.06871905, NaN, NaN, NaN, 0.04699994, "- N/A -   "
41.2, 1724.22, 0.06876626, NaN, NaN, NaN, 0.0482207, "- N/A -   "
41.23, 1725.65, 0.06882457, NaN, NaN, NaN, 0.04577916, "- N/A -   "
41.26, 1727.2, 0.0688801, NaN, NaN, NaN, 0.0433376, "- N/A -   "
41.29, 1728.75, 0.06893564, NaN, NaN, NaN, 0.04089605, "- N/A -   "
41.32, 1730.3, 0.06899118, NaN, NaN, NaN, 0.0384545, "- N/A -   "
41.35, 1731.73, 0.06904671, NaN, NaN, NaN, 0.0347922, "- N/A -   "
41.38, 1733.16, 0.06909391, NaN, NaN, NaN, 0.03601294, "- N/A -   "
41.41, 1734.59, 0.06914667, NaN, NaN, NaN, 0.03601294, "- N/A -   "
41.44, 1735.91, 0.06919666, NaN, NaN, NaN, 0.0347922, "- N/A -   "
41.47, 1737.69, 0.069255, NaN, NaN, NaN, 0.03112983, "- N/A -   "
41.5, 1738.89, 0.06930495, NaN, NaN, NaN, 0.03112983, "- N/A -   "
41.53, 1740.32, 0.06935771, NaN, NaN, NaN, 0.03112983, "- N/A -   "
41.56, 1741.99, 0.0694132, NaN, NaN, NaN, 0.0274675, "- N/A -   "
41.59, 1743.42, 0.069466, NaN, NaN, NaN, 0.0262467, "- N/A -   "
41.62, 1744.73, 0.06951598, NaN, NaN, NaN, 0.0262467, "- N/A -   "
41.65, 1745.92, 0.06956041, NaN, NaN, NaN, 0.0286883, "- N/A -   "
41.68, 1746.88, 0.0695993, NaN, NaN, NaN, 0.0335714, "- N/A -   "
41.71, 1747.95, 0.0696382, NaN, NaN, NaN, 0.0384545, "- N/A -   "
41.74, 1748.78, 0.06967703, NaN, NaN, NaN, 0.0445584, "- N/A -   "
41.77, 1749.977, 0.06971869, NaN, NaN, NaN, 0.04699994, "- N/A -   "
41.8, 1751.289, 0.06976867, NaN, NaN, NaN, 0.0482207, "- N/A -   "
41.83, 1752.72, 0.0698186, NaN, NaN, NaN, 0.04699994, "- N/A -   "
41.86, 1754.151, 0.0698686, NaN, NaN, NaN, 0.04699994, "- N/A -   "
41.89, 1755.46, 0.06992138, NaN, NaN, NaN, 0.04577916, "- N/A -   "
41.92, 1756.89, 0.06997415, NaN, NaN, NaN, 0.0445584, "- N/A -   "
41.95, 1758.21, 0.07002135, NaN, NaN, NaN, 0.04577916, "- N/A -   "
41.98, 1759.64, 0.07007133, NaN, NaN, NaN, 0.04577916, "- N/A -   "
42.01, 1761.306, 0.07013242, NaN, NaN, NaN, 0.04211683, "- N/A -   "
42.04, 1763.21, 0.0701991, NaN, NaN, NaN, 0.0335714, "- N/A -   "
42.07, 1765, 0.0702629, NaN, NaN, NaN, 0.0274675, "- N/A -   "
42.1, 1766.67, 0.07031568, NaN, NaN, NaN, 0.0262467, "- N/A -   "
42.13, 1767.98, 0.07036845, NaN, NaN, NaN, 0.0262467, "- N/A -   "
42.16, 1769.3, 0.0704184, NaN, NaN, NaN, 0.0250259, "- N/A -   "
42.19, 1770.49, 0.07046285, NaN, NaN, NaN, 0.0274675, "- N/A -   "
42.22, 1771.56, 0.07050451, NaN, NaN, NaN, 0.0323506, "- N/A -   "
42.25, 1772.87, 0.07055171, NaN, NaN, NaN, 0.0323506, "- N/A -   "
42.28, 1774.19, 0.0706017, NaN, NaN, NaN, 0.0323506, "- N/A -   "
42.31, 1775.62, 0.0706489, NaN, NaN, NaN, 0.0347922, "- N/A -   "
42.34, 1776.69, 0.0706961, NaN, NaN, NaN, 0.03601294, "- N/A -   "
42.37, 1778.12, 0.07074331, NaN, NaN, NaN, 0.03601294, "- N/A -   "
42.4, 1779.55, 0.0707933, NaN, NaN, NaN, 0.03601294, "- N/A -   "
42.43, 1780.51, 0.0708349, NaN, NaN, NaN, 0.0396753, "- N/A -   "
42.46, 1781.7, 0.07087659, NaN, NaN, NaN, 0.0433376, "- N/A -   "
42.49, 1783.01, 0.0709238, NaN, NaN, NaN, 0.0445584, "- N/A -   "
42.52, 1784.2, 0.070971, NaN, NaN, NaN, 0.04577916, "- N/A -   "
42.55, 1785.51, 0.07102098, NaN, NaN, NaN, 0.04577916, "- N/A -   "
42.58, 1787.06, 0.07107651, NaN, NaN, NaN, 0.0433376, "- N/A -   "
42.61, 1788.734, 0.07113483, NaN, NaN, NaN, 0.0396753, "- N/A -   "
42.64, 1790.4, 0.0711931, NaN, NaN, NaN, 0.03601294, "- N/A -   "
42.67, 1791.95, 0.07125145, NaN, NaN, NaN, 0.0335714, "- N/A -   "
42.7, 1793.5, 0.07130421, NaN, NaN, NaN, 0.0323506, "- N/A -   "
42.73, 1794.94, 0.07135697, NaN, NaN, NaN, 0.0299091, "- N/A -   "
42.76, 1796.01, 0.0714014, NaN, NaN, NaN, 0.0323506, "- N/A -   "
42.79, 1797.44, 0.0714486, NaN, NaN, NaN, 0.0335714, "- N/A -   "
42.82, 1798.51, 0.07149025, NaN, NaN, NaN, 0.0372337, "- N/A -   "
42.85, 1799.71, 0.07153746, NaN, NaN, NaN, 0.0384545, "- N/A -   "
42.88, 1801.017, 0.0715847, NaN, NaN, NaN, 0.0396753, "- N/A -   "
42.91, 1802.33, 0.07163742, NaN, NaN, NaN, 0.0396753, "- N/A -   "
42.94, 1804, 0.07169296, NaN, NaN, NaN, 0.03601294, "- N/A -   "
42.97, 1805.55, 0.0717485, NaN, NaN, NaN, 0.0347922, "- N/A -   "
43, 1806.98, 0.07179847, NaN, NaN, NaN, 0.0335714, "- N/A -   "
43.03, 1808.29, 0.07184845, NaN, NaN, NaN, 0.0335714, "- N/A -   "
43.06, 1809.72, 0.07189843, NaN, NaN, NaN, 0.0335714, "- N/A -   "
43.09, 1810.91, 0.0719429, NaN, NaN, NaN, 0.03601294, "- N/A -   "
43.12, 1812.11, 0.0719901, NaN, NaN, NaN, 0.0372337, "- N/A -   "
43.15, 1813.42, 0.07204005, NaN, NaN, NaN, 0.0372337, "- N/A -   "
43.18, 1814.85, 0.07208726, NaN, NaN, NaN, 0.0396753, "- N/A -   "
43.21, 1816.16, 0.07213446, NaN, NaN, NaN, 0.0396753, "- N/A -   "
43.24, 1817.47, 0.0721844, NaN, NaN, NaN, 0.0396753, "- N/A -   "
43.27, 1818.9, 0.0722372, NaN, NaN, NaN, 0.0384545, "- N/A -   "
43.3, 1820.46, 0.07229273, NaN, NaN, NaN, 0.0372337, "- N/A -   "
43.33, 1821.89, 0.0723427, NaN, NaN, NaN, 0.03601294, "- N/A -   "
43.36, 1823.32, 0.0723927, NaN, NaN, NaN, 0.0372337, "- N/A -   "
43.39, 1824.51, 0.0724399, NaN, NaN, NaN, 0.0372337, "- N/A -   "
43.42, 1825.94, 0.07249266, NaN, NaN, NaN, 0.03601294, "- N/A -   "
43.45, 1827.37, 0.07254542, NaN, NaN, NaN, 0.0347922, "- N/A -   "
43.48, 1828.8, 0.0725954, NaN, NaN, NaN, 0.0347922, "- N/A -   "
43.51, 1830.23, 0.07265093, NaN, NaN, NaN, 0.0323506, "- N/A -   "
43.54, 1831.66, 0.07270092, NaN, NaN, NaN, 0.0323506, "- N/A -   "
43.57, 1833.1, 0.0727537, NaN, NaN, NaN, 0.0323506, "- N/A -   "
43.6, 1834.41, 0.0728009, NaN, NaN, NaN, 0.0323506, "- N/A -   "
43.63, 1835.84, 0.07285364, NaN, NaN, NaN, 0.0323506, "- N/A -   "
43.66, 1837.15, 0.07290085, NaN, NaN, NaN, 0.0323506, "- N/A -   "
43.69, 1838.34, 0.072948, NaN, NaN, NaN, 0.0335714, "- N/A -   "
43.72, 1839.65, 0.072998, NaN, NaN, NaN, 0.0347922, "- N/A -   "
43.75, 1840.97, 0.07304523, NaN, NaN, NaN, 0.0347922, "- N/A -   "
43.78, 1842.4, 0.07309522, NaN, NaN, NaN, 0.03601294, "- N/A -   "
43.81, 1843.47, 0.0731369, NaN, NaN, NaN, 0.0384545, "- N/A -   "
43.84, 1844.78, 0.07318407, NaN, NaN, NaN, 0.0396753, "- N/A -   "
43.87, 1845.86, 0.07322849, NaN, NaN, NaN, 0.04211683, "- N/A -   "
43.9, 1847.17, 0.07327848, NaN, NaN, NaN, 0.0433376, "- N/A -   "
43.93, 1848.48, 0.07332291, NaN, NaN, NaN, 0.0445584, "- N/A -   "
43.96, 1849.91, 0.0733757, NaN, NaN, NaN, 0.0445584, "- N/A -   "
43.99, 1851.222, 0.07342287, NaN, NaN, NaN, 0.0445584, "- N/A -   "
44.02, 1852.65, 0.07347563, NaN, NaN, NaN, 0.0445584, "- N/A -   "
44.05, 1854.32, 0.07353394, NaN, NaN, NaN, 0.0396753, "- N/A -   "
44.08, 1855.99, 0.07359225, NaN, NaN, NaN, 0.03601294, "- N/A -   "
44.11, 1857.42, 0.07364779, NaN, NaN, NaN, 0.0335714, "- N/A -   "
44.14, 1858.97, 0.07369777, NaN, NaN, NaN, 0.0335714, "- N/A -   "
44.17, 1860.166, 0.073745, NaN, NaN, NaN, 0.0347922, "- N/A -   "
44.2, 1861.48, 0.07379496, NaN, NaN, NaN, 0.0347922, "- N/A -   "
44.23, 1862.91, 0.07384772, NaN, NaN, NaN, 0.0335714, "- N/A -   "
44.26, 1864.46, 0.0739005, NaN, NaN, NaN, 0.0323506, "- N/A -   "
44.29, 1865.89, 0.073956, NaN, NaN, NaN, 0.03112983, "- N/A -   "
44.32, 1867.321, 0.07400599, NaN, NaN, NaN, 0.0299091, "- N/A -   "
44.35, 1868.87, 0.07405875, NaN, NaN, NaN, 0.0299091, "- N/A -   "
44.364, 1869.47, 0.07408096, NaN, NaN, NaN, 0.0299091, "- N/A -   "