File: 2_Tensile_Data/Hamel_ForceTest_Bolt3_Test9.csv
Time, Load (lb), Position (in), AxialStrain (in), TransverseStrain (in), Auxiliary (), Control Out (V), Stress (psi)
0.0, 11.4409, 0.0, NaN, NaN, NaN, -0.006714277, "- N/A -   "
0.01, 11.4409, 2.776752E-6, NaN, NaN, NaN, -6.103888E-4, "- N/A -   "
0.02, 11.4409, 2.776752E-6, NaN, NaN, NaN, 0.006714277, "- N/A -   "
0.03, 11.4409, 2.776752E-6, NaN, NaN, NaN, 0.0250259, "- N/A -   "
0.04, 11.5589, 8.330256E-6, NaN, NaN, NaN, 0.04211683, "- N/A -   "
0.05, 11.5589, 1.94373e-05, NaN, NaN, NaN, 0.05676616, "- N/A -   "
0.06, 11.9127, 3.3321e-05, NaN, NaN, NaN, 0.0701947, "- N/A -   "
0.07, 12.14859, 5.5535e-05, NaN, NaN, NaN, 0.0799609, "- N/A -   "
0.08, 12.5024, 8.05258E-5, NaN, NaN, NaN, 0.0897272, "- N/A -   "
0.09, 12.8563, 0.000108293, NaN, NaN, NaN, 0.09705182, "- N/A -   "
0.1, 13.3281, 1.388376E-4, NaN, NaN, NaN, 0.100714, "- N/A -   "
0.11, 13.6819, 0.000172159, NaN, NaN, NaN, 0.09338949, "- N/A -   "
0.12, 14.0357, 0.000199926, NaN, NaN, NaN, 0.0872856, "- N/A -   "
0.13, 14.5075, 0.000227694, NaN, NaN, NaN, 0.08240249, "- N/A -   "
0.14, 14.8614, 2.526844E-4, NaN, NaN, NaN, 0.07874016, "- N/A -   "
0.15, 15.0973, 0.000280452, NaN, NaN, NaN, 0.0750778, "- N/A -   "
0.16, 15.4511, 2.998892E-4, NaN, NaN, NaN, 0.07263627, "- N/A -   "
0.17, 15.687, 3.221032E-4, NaN, NaN, NaN, 0.07141549, "- N/A -   "
0.18, 16.0409, 0.00034154, NaN, NaN, NaN, 0.0689739, "- N/A -   "
0.19, 16.1588, 0.000360978, NaN, NaN, NaN, 0.0689739, "- N/A -   "
0.2, 16.5126, 3.80415E-4, NaN, NaN, NaN, 0.06775316, "- N/A -   "
0.21, 16.6306, 0.000397076, NaN, NaN, NaN, 0.06653238, "- N/A -   "
0.22, 16.9844, 0.000416513, NaN, NaN, NaN, 0.0653116, "- N/A -   "
0.23, 17.2203, 0.00043595, NaN, NaN, NaN, 0.0653116, "- N/A -   "
0.24, 17.4562, 0.000452611, NaN, NaN, NaN, 0.0640908, "- N/A -   "
0.25, 17.6921, 4.720478E-4, NaN, NaN, NaN, 0.06287005, "- N/A -   "
0.26, 17.928, 0.000491485, NaN, NaN, NaN, 0.06287005, "- N/A -   "
0.27, 18.2819, 0.000510922, NaN, NaN, NaN, 0.0604285, "- N/A -   "
0.28, 18.3998, 0.00053036, NaN, NaN, NaN, 0.0592077, "- N/A -   "
0.29, 18.7536, 0.000549797, NaN, NaN, NaN, 0.0579869, "- N/A -   "
0.3, 18.9895, 5.720109E-4, NaN, NaN, NaN, 0.05676616, "- N/A -   "
0.31, 19.3434, 0.000591448, NaN, NaN, NaN, 0.0543246, "- N/A -   "
0.32, 19.6972, 6.136621E-4, NaN, NaN, NaN, 0.05188305, "- N/A -   "
0.33, 20.05107, 0.000635876, NaN, NaN, NaN, 0.05066227, "- N/A -   "
0.34, 20.287, 0.000655313, NaN, NaN, NaN, 0.0482207, "- N/A -   "
0.35, 20.6408, 6.747507E-4, NaN, NaN, NaN, 0.04699994, "- N/A -   "
0.36, 20.8767, 0.000694188, NaN, NaN, NaN, 0.04577916, "- N/A -   "
0.37, 21.1126, 7.136252E-4, NaN, NaN, NaN, 0.04577916, "- N/A -   "
0.38, 21.46644, 7.302857E-4, NaN, NaN, NaN, 0.0445584, "- N/A -   "
0.39, 21.7023, 0.0007525, NaN, NaN, NaN, 0.0433376, "- N/A -   "
0.4, 22.0562, 7.71937E-4, NaN, NaN, NaN, 0.04089605, "- N/A -   "
0.41, 22.29207, 7.885975E-4, NaN, NaN, NaN, 0.04089605, "- N/A -   "
0.42, 22.528, 8.080348E-4, NaN, NaN, NaN, 0.0396753, "- N/A -   "
0.43, 22.7639, 8.27472E-4, NaN, NaN, NaN, 0.0384545, "- N/A -   "
0.44, 23.1177, 0.000844133, NaN, NaN, NaN, 0.0384545, "- N/A -   "
0.45, 23.3536, 0.000860793, NaN, NaN, NaN, 0.0384545, "- N/A -   "
0.46, 23.7074, 8.774536E-4, NaN, NaN, NaN, 0.0384545, "- N/A -   "
0.47, 23.9433, 8.941141E-4, NaN, NaN, NaN, 0.0384545, "- N/A -   "
0.48, 24.29718, 0.000913551, NaN, NaN, NaN, 0.0372337, "- N/A -   "
0.49, 24.65102, 9.329886E-4, NaN, NaN, NaN, 0.0372337, "- N/A -   "
0.5, 24.8869, 0.000949649, NaN, NaN, NaN, 0.03601294, "- N/A -   "
0.51, 25.1228, 0.000969086, NaN, NaN, NaN, 0.0347922, "- N/A -   "
0.52, 25.4767, 9.885236E-4, NaN, NaN, NaN, 0.0335714, "- N/A -   "
0.53, 25.7125, 0.00100796, NaN, NaN, NaN, 0.0323506, "- N/A -   "
0.54, 26.0664, 0.00102462, NaN, NaN, NaN, 0.0323506, "- N/A -   "
0.55, 26.3023, 0.00104406, NaN, NaN, NaN, 0.03112983, "- N/A -   "
0.56, 26.7741, 0.00106072, NaN, NaN, NaN, 0.03112983, "- N/A -   "
0.57, 26.892, 0.00107738, NaN, NaN, NaN, 0.03112983, "- N/A -   "
0.58, 27.2459, 0.001096817, NaN, NaN, NaN, 0.03112983, "- N/A -   "
0.59, 27.4818, 0.0011107, NaN, NaN, NaN, 0.03112983, "- N/A -   "
0.6, 27.8356, 0.00112736, NaN, NaN, NaN, 0.03112983, "- N/A -   "
0.61, 28.0715, 0.00114402, NaN, NaN, NaN, 0.03112983, "- N/A -   "
0.62, 28.3074, 0.00116068, NaN, NaN, NaN, 0.03112983, "- N/A -   "
0.63, 28.6612, 0.00117734, NaN, NaN, NaN, 0.03112983, "- N/A -   "
0.64, 28.89713, 0.001194, NaN, NaN, NaN, 0.03112983, "- N/A -   "
0.65, 29.133, 0.00121066, NaN, NaN, NaN, 0.03112983, "- N/A -   "
0.66, 29.6048, 0.0012301, NaN, NaN, NaN, 0.03112983, "- N/A -   "
0.67, 29.84071, 0.00124676, NaN, NaN, NaN, 0.03112983, "- N/A -   "
0.68, 30.0766, 0.00126065, NaN, NaN, NaN, 0.03112983, "- N/A -   "
0.69, 30.4304, 0.00127731, NaN, NaN, NaN, 0.03112983, "- N/A -   "
0.7, 30.6663, 0.00129119, NaN, NaN, NaN, 0.0323506, "- N/A -   "
0.71, 30.9022, 0.00130785, NaN, NaN, NaN, 0.0323506, "- N/A -   "
0.72, 31.1381, 0.00132173, NaN, NaN, NaN, 0.0335714, "- N/A -   "
0.73, 31.492, 0.00133562, NaN, NaN, NaN, 0.0347922, "- N/A -   "
0.74, 31.72787, 0.00135228, NaN, NaN, NaN, 0.03601294, "- N/A -   "
0.75, 31.9638, 0.00136616, NaN, NaN, NaN, 0.03601294, "- N/A -   "
0.76, 32.1997, 0.00138005, NaN, NaN, NaN, 0.0372337, "- N/A -   "
0.77, 32.4356, 0.00139393, NaN, NaN, NaN, 0.0384545, "- N/A -   "
0.78, 32.67145, 0.00140781, NaN, NaN, NaN, 0.0396753, "- N/A -   "
0.79, 33.02529, 0.00142447, NaN, NaN, NaN, 0.0396753, "- N/A -   "
0.8, 33.2612, 0.00143836, NaN, NaN, NaN, 0.04089605, "- N/A -   "
0.81, 33.49708, 0.001455018, NaN, NaN, NaN, 0.04089605, "- N/A -   "
0.82, 33.73298, 0.00147168, NaN, NaN, NaN, 0.04089605, "- N/A -   "
0.83, 34.08682, 0.00148834, NaN, NaN, NaN, 0.04089605, "- N/A -   "
0.84, 34.3227, 0.001505, NaN, NaN, NaN, 0.04211683, "- N/A -   "
0.85, 34.6766, 0.00151888, NaN, NaN, NaN, 0.04211683, "- N/A -   "
0.86, 34.9125, 0.00153554, NaN, NaN, NaN, 0.0433376, "- N/A -   "
0.87, 35.2663, 0.00154943, NaN, NaN, NaN, 0.0433376, "- N/A -   "
0.88, 35.6201, 0.00156886, NaN, NaN, NaN, 0.0433376, "- N/A -   "
0.89, 35.85603, 0.00158275, NaN, NaN, NaN, 0.0433376, "- N/A -   "
0.9, 36.0919, 0.001599409, NaN, NaN, NaN, 0.0433376, "- N/A -   "
0.91, 36.32782, 0.00161607, NaN, NaN, NaN, 0.0445584, "- N/A -   "
0.92, 36.6817, 0.00162995, NaN, NaN, NaN, 0.04577916, "- N/A -   "
0.93, 36.9176, 0.00164384, NaN, NaN, NaN, 0.04577916, "- N/A -   "
0.94, 37.2714, 0.0016605, NaN, NaN, NaN, 0.04577916, "- N/A -   "
0.95, 37.5073, 0.001677158, NaN, NaN, NaN, 0.04577916, "- N/A -   "
0.96, 37.8611, 0.0016966, NaN, NaN, NaN, 0.04577916, "- N/A -   "
0.97, 38.215, 0.00171048, NaN, NaN, NaN, 0.04577916, "- N/A -   "
0.98, 38.4509, 0.00172714, NaN, NaN, NaN, 0.04577916, "- N/A -   "
0.99, 38.8047, 0.00174658, NaN, NaN, NaN, 0.0445584, "- N/A -   "
1, 39.15856, 0.00176324, NaN, NaN, NaN, 0.0445584, "- N/A -   "
1.01, 39.3945, 0.00178267, NaN, NaN, NaN, 0.0433376, "- N/A -   "
1.02, 39.8662, 0.00179934, NaN, NaN, NaN, 0.0433376, "- N/A -   "
1.03, 40.10214, 0.00182155, NaN, NaN, NaN, 0.04211683, "- N/A -   "
1.04, 40.456, 0.00184099, NaN, NaN, NaN, 0.04089605, "- N/A -   "
1.05, 40.8098, 0.001857647, NaN, NaN, NaN, 0.0396753, "- N/A -   "
1.06, 41.16367, 0.00187708, NaN, NaN, NaN, 0.0384545, "- N/A -   "
1.07, 41.6355, 0.00189652, NaN, NaN, NaN, 0.0372337, "- N/A -   "
1.08, 41.8714, 0.00191596, NaN, NaN, NaN, 0.03601294, "- N/A -   "
1.09, 42.3431, 0.001935396, NaN, NaN, NaN, 0.0347922, "- N/A -   "
1.1, 42.697, 0.00195483, NaN, NaN, NaN, 0.0335714, "- N/A -   "
1.11, 43.0508, 0.00197427, NaN, NaN, NaN, 0.0323506, "- N/A -   "
1.12, 43.40467, 0.00199371, NaN, NaN, NaN, 0.03112983, "- N/A -   "
1.13, 43.6406, 0.00201037, NaN, NaN, NaN, 0.03112983, "- N/A -   "
1.14, 44.1124, 0.00202703, NaN, NaN, NaN, 0.03112983, "- N/A -   "
1.15, 44.34825, 0.00204369, NaN, NaN, NaN, 0.03112983, "- N/A -   "
1.16, 44.70209, 0.00206313, NaN, NaN, NaN, 0.03112983, "- N/A -   "
1.17, 44.93799, 0.00207979, NaN, NaN, NaN, 0.0299091, "- N/A -   "
1.18, 45.17388, 0.00209645, NaN, NaN, NaN, 0.0299091, "- N/A -   "
1.19, 45.6457, 0.002113108, NaN, NaN, NaN, 0.0299091, "- N/A -   "
1.2, 45.9995, 0.00213255, NaN, NaN, NaN, 0.0286883, "- N/A -   "
1.21, 46.23541, 0.00215198, NaN, NaN, NaN, 0.0274675, "- N/A -   "
1.22, 46.7072, 0.00217142, NaN, NaN, NaN, 0.0274675, "- N/A -   "
1.23, 47.061, 0.00218808, NaN, NaN, NaN, 0.0274675, "- N/A -   "
1.24, 47.2969, 0.00220196, NaN, NaN, NaN, 0.0274675, "- N/A -   "
1.25, 47.65078, 0.00221862, NaN, NaN, NaN, 0.0274675, "- N/A -   "
1.26, 47.8867, 0.00223529, NaN, NaN, NaN, 0.0274675, "- N/A -   "
1.27, 48.2405, 0.002249169, NaN, NaN, NaN, 0.0286883, "- N/A -   "
1.28, 48.47641, 0.00226583, NaN, NaN, NaN, 0.0286883, "- N/A -   "
1.29, 48.83025, 0.00227971, NaN, NaN, NaN, 0.0299091, "- N/A -   "
1.3, 48.9482, 0.002293597, NaN, NaN, NaN, 0.03112983, "- N/A -   "
1.31, 49.30204, 0.00231026, NaN, NaN, NaN, 0.0323506, "- N/A -   "
1.32, 49.6559, 0.00232414, NaN, NaN, NaN, 0.0335714, "- N/A -   "
1.33, 49.8918, 0.002338025, NaN, NaN, NaN, 0.0347922, "- N/A -   "
1.34, 50.1277, 0.00235191, NaN, NaN, NaN, 0.0347922, "- N/A -   "
1.35, 50.3636, 0.00236857, NaN, NaN, NaN, 0.0347922, "- N/A -   "
1.36, 50.7174, 0.00238523, NaN, NaN, NaN, 0.0347922, "- N/A -   "
1.37, 51.0713, 0.002404667, NaN, NaN, NaN, 0.0347922, "- N/A -   "
1.38, 51.30715, 0.00241855, NaN, NaN, NaN, 0.0347922, "- N/A -   "
1.39, 51.66099, 0.00243243, NaN, NaN, NaN, 0.03601294, "- N/A -   "
1.4, 52.01483, 0.002449095, NaN, NaN, NaN, 0.03601294, "- N/A -   "
1.41, 52.25073, 0.00246576, NaN, NaN, NaN, 0.03601294, "- N/A -   "
1.42, 52.6046, 0.002485193, NaN, NaN, NaN, 0.03601294, "- N/A -   "
1.43, 52.9584, 0.00249908, NaN, NaN, NaN, 0.03601294, "- N/A -   "
1.44, 53.19431, 0.00251574, NaN, NaN, NaN, 0.03601294, "- N/A -   "
1.45, 53.54815, 0.0025324, NaN, NaN, NaN, 0.03601294, "- N/A -   "
1.46, 53.784, 0.00254628, NaN, NaN, NaN, 0.0372337, "- N/A -   "
1.47, 54.0199, 0.00256017, NaN, NaN, NaN, 0.0384545, "- N/A -   "
1.48, 54.3738, 0.00257683, NaN, NaN, NaN, 0.0384545, "- N/A -   "
1.49, 54.7276, 0.002593486, NaN, NaN, NaN, 0.0384545, "- N/A -   "
1.5, 55.0815, 0.00261015, NaN, NaN, NaN, 0.0384545, "- N/A -   "
1.51, 55.3174, 0.00262403, NaN, NaN, NaN, 0.0396753, "- N/A -   "
1.52, 55.55326, 0.00263791, NaN, NaN, NaN, 0.04089605, "- N/A -   "
1.53, 55.9071, 0.00265457, NaN, NaN, NaN, 0.04211683, "- N/A -   "
1.54, 56.143, 0.00266846, NaN, NaN, NaN, 0.04211683, "- N/A -   "
1.55, 56.4968, 0.00268512, NaN, NaN, NaN, 0.0433376, "- N/A -   "
1.56, 56.85068, 0.002699, NaN, NaN, NaN, 0.0433376, "- N/A -   "
1.57, 57.08658, 0.00271566, NaN, NaN, NaN, 0.0445584, "- N/A -   "
1.58, 57.20452, 0.00272955, NaN, NaN, NaN, 0.0445584, "- N/A -   "
1.59, 57.6763, 0.002743431, NaN, NaN, NaN, 0.04577916, "- N/A -   "
1.6, 57.91221, 0.00276009, NaN, NaN, NaN, 0.04699994, "- N/A -   "
1.61, 58.26605, 0.00277398, NaN, NaN, NaN, 0.04699994, "- N/A -   "
1.62, 58.6199, 0.00279064, NaN, NaN, NaN, 0.04699994, "- N/A -   "
1.63, 58.9737, 0.00281007, NaN, NaN, NaN, 0.04699994, "- N/A -   "
1.64, 59.3276, 0.00282673, NaN, NaN, NaN, 0.04699994, "- N/A -   "
1.65, 59.5635, 0.002843394, NaN, NaN, NaN, 0.04577916, "- N/A -   "
1.66, 59.9173, 0.00286283, NaN, NaN, NaN, 0.0445584, "- N/A -   "
1.67, 60.3891, 0.00288227, NaN, NaN, NaN, 0.0433376, "- N/A -   "
1.68, 60.7429, 0.00290448, NaN, NaN, NaN, 0.04211683, "- N/A -   "
1.69, 61.2147, 0.00292114, NaN, NaN, NaN, 0.04089605, "- N/A -   "
1.7, 61.56858, 0.002943357, NaN, NaN, NaN, 0.0384545, "- N/A -   "
1.71, 62.0404, 0.00296279, NaN, NaN, NaN, 0.0384545, "- N/A -   "
1.72, 62.3942, 0.00298223, NaN, NaN, NaN, 0.0372337, "- N/A -   "
1.73, 62.7481, 0.003001669, NaN, NaN, NaN, 0.03601294, "- N/A -   "
1.74, 63.1019, 0.00301833, NaN, NaN, NaN, 0.0347922, "- N/A -   "
1.75, 63.45574, 0.00303499, NaN, NaN, NaN, 0.0347922, "- N/A -   "
1.76, 63.80958, 0.00305165, NaN, NaN, NaN, 0.0347922, "- N/A -   "
1.77, 64.16342, 0.00307386, NaN, NaN, NaN, 0.0335714, "- N/A -   "
1.78, 64.3993, 0.00309052, NaN, NaN, NaN, 0.0335714, "- N/A -   "
1.79, 64.87111, 0.00310719, NaN, NaN, NaN, 0.0323506, "- N/A -   "
1.8, 65.22495, 0.003123846, NaN, NaN, NaN, 0.0335714, "- N/A -   "
1.81, 65.5788, 0.00313773, NaN, NaN, NaN, 0.0335714, "- N/A -   "
1.82, 65.69674, 0.00315439, NaN, NaN, NaN, 0.0347922, "- N/A -   "
1.83, 66.05058, 0.003168274, NaN, NaN, NaN, 0.0347922, "- N/A -   "
1.84, 66.40443, 0.00318216, NaN, NaN, NaN, 0.03601294, "- N/A -   "
1.85, 66.64032, 0.003198818, NaN, NaN, NaN, 0.03601294, "- N/A -   "
1.86, 66.87622, 0.00321548, NaN, NaN, NaN, 0.03601294, "- N/A -   "
1.87, 67.34801, 0.00322936, NaN, NaN, NaN, 0.0372337, "- N/A -   "
1.88, 67.5839, 0.003246023, NaN, NaN, NaN, 0.0372337, "- N/A -   "
1.89, 67.9377, 0.00326268, NaN, NaN, NaN, 0.0372337, "- N/A -   "
1.9, 68.29159, 0.003279344, NaN, NaN, NaN, 0.0372337, "- N/A -   "
1.91, 68.52748, 0.003296, NaN, NaN, NaN, 0.0372337, "- N/A -   "
1.92, 69.11722, 0.00331544, NaN, NaN, NaN, 0.0372337, "- N/A -   "
1.93, 69.47106, 0.0033321, NaN, NaN, NaN, 0.03601294, "- N/A -   "
1.94, 69.707, 0.00334876, NaN, NaN, NaN, 0.03601294, "- N/A -   "
1.95, 70.0608, 0.00336542, NaN, NaN, NaN, 0.03601294, "- N/A -   "
1.96, 70.41464, 0.00338208, NaN, NaN, NaN, 0.03601294, "- N/A -   "
1.97, 70.7685, 0.00339874, NaN, NaN, NaN, 0.03601294, "- N/A -   "
1.98, 71.24027, 0.00341818, NaN, NaN, NaN, 0.0347922, "- N/A -   "
1.99, 71.59412, 0.00343762, NaN, NaN, NaN, 0.0347922, "- N/A -   "
2, 71.83001, 0.00345428, NaN, NaN, NaN, 0.0347922, "- N/A -   "
2.01, 72.1838, 0.00347094, NaN, NaN, NaN, 0.0335714, "- N/A -   "
2.02, 72.65564, 0.00349038, NaN, NaN, NaN, 0.0335714, "- N/A -   "
2.03, 73.00948, 0.00350704, NaN, NaN, NaN, 0.0323506, "- N/A -   "
2.04, 73.36333, 0.003523698, NaN, NaN, NaN, 0.0323506, "- N/A -   "
2.05, 73.71717, 0.00354314, NaN, NaN, NaN, 0.0323506, "- N/A -   "
2.06, 74.071, 0.003559796, NaN, NaN, NaN, 0.03112983, "- N/A -   "
2.07, 74.42485, 0.00357368, NaN, NaN, NaN, 0.0323506, "- N/A -   "
2.08, 74.66075, 0.00359034, NaN, NaN, NaN, 0.0323506, "- N/A -   "
2.09, 74.8966, 0.003604224, NaN, NaN, NaN, 0.0335714, "- N/A -   "
2.1, 75.25049, 0.00362088, NaN, NaN, NaN, 0.0347922, "- N/A -   "
2.11, 75.6043, 0.00363477, NaN, NaN, NaN, 0.0347922, "- N/A -   "
2.12, 75.95817, 0.00364865, NaN, NaN, NaN, 0.03601294, "- N/A -   "
2.13, 76.19407, 0.00366531, NaN, NaN, NaN, 0.03601294, "- N/A -   "
2.14, 76.5479, 0.0036792, NaN, NaN, NaN, 0.0372337, "- N/A -   "
2.15, 76.7838, 0.00369308, NaN, NaN, NaN, 0.0384545, "- N/A -   "
2.16, 77.13765, 0.00370974, NaN, NaN, NaN, 0.0384545, "- N/A -   "
2.17, 77.37354, 0.00372362, NaN, NaN, NaN, 0.0396753, "- N/A -   "
2.18, 77.72738, 0.00374028, NaN, NaN, NaN, 0.0396753, "- N/A -   "
2.19, 78.19917, 0.00375695, NaN, NaN, NaN, 0.04089605, "- N/A -   "
2.2, 78.4351, 0.003773606, NaN, NaN, NaN, 0.04089605, "- N/A -   "
2.21, 78.78891, 0.00379027, NaN, NaN, NaN, 0.04089605, "- N/A -   "
2.22, 79.14275, 0.00380693, NaN, NaN, NaN, 0.0396753, "- N/A -   "
2.23, 79.4966, 0.00382359, NaN, NaN, NaN, 0.0396753, "- N/A -   "
2.24, 79.96838, 0.00384302, NaN, NaN, NaN, 0.0384545, "- N/A -   "
2.25, 80.32223, 0.003859685, NaN, NaN, NaN, 0.0384545, "- N/A -   "
2.26, 80.55813, 0.00387635, NaN, NaN, NaN, 0.0384545, "- N/A -   "
2.27, 80.912, 0.00389301, NaN, NaN, NaN, 0.0384545, "- N/A -   "
2.28, 81.14786, 0.00390967, NaN, NaN, NaN, 0.0396753, "- N/A -   "
2.29, 81.5017, 0.00392355, NaN, NaN, NaN, 0.0396753, "- N/A -   "
2.3, 81.8555, 0.003937434, NaN, NaN, NaN, 0.04089605, "- N/A -   "
2.31, 82.09144, 0.00395409, NaN, NaN, NaN, 0.04089605, "- N/A -   "
2.32, 82.44528, 0.00397076, NaN, NaN, NaN, 0.04089605, "- N/A -   "
2.33, 82.91707, 0.00399019, NaN, NaN, NaN, 0.0396753, "- N/A -   "
2.34, 83.27091, 0.004006853, NaN, NaN, NaN, 0.0396753, "- N/A -   "
2.35, 83.74271, 0.00402629, NaN, NaN, NaN, 0.0384545, "- N/A -   "
2.36, 84.09654, 0.00404295, NaN, NaN, NaN, 0.0384545, "- N/A -   "
2.37, 84.45039, 0.004062388, NaN, NaN, NaN, 0.0372337, "- N/A -   "
2.38, 84.80424, 0.00408183, NaN, NaN, NaN, 0.0372337, "- N/A -   "
2.39, 85.15807, 0.00409849, NaN, NaN, NaN, 0.0372337, "- N/A -   "
2.4, 85.51192, 0.004115146, NaN, NaN, NaN, 0.03601294, "- N/A -   "
2.41, 85.86576, 0.00413181, NaN, NaN, NaN, 0.03601294, "- N/A -   "
2.42, 86.2196, 0.004151244, NaN, NaN, NaN, 0.03601294, "- N/A -   "
2.43, 86.57345, 0.0041679, NaN, NaN, NaN, 0.03601294, "- N/A -   "
2.44, 86.92729, 0.004184565, NaN, NaN, NaN, 0.0347922, "- N/A -   "
2.45, 87.28113, 0.00420123, NaN, NaN, NaN, 0.0347922, "- N/A -   "
2.46, 87.63497, 0.00421789, NaN, NaN, NaN, 0.0347922, "- N/A -   "
2.47, 87.8709, 0.004234547, NaN, NaN, NaN, 0.03601294, "- N/A -   "
2.48, 88.22471, 0.00424843, NaN, NaN, NaN, 0.03601294, "- N/A -   "
2.49, 88.57855, 0.004265091, NaN, NaN, NaN, 0.03601294, "- N/A -   "
2.5, 89.05035, 0.004284528, NaN, NaN, NaN, 0.0347922, "- N/A -   "
2.51, 89.28623, 0.00430119, NaN, NaN, NaN, 0.03601294, "- N/A -   "
2.52, 89.6401, 0.00431785, NaN, NaN, NaN, 0.03601294, "- N/A -   "
2.53, 89.99392, 0.00433451, NaN, NaN, NaN, 0.03601294, "- N/A -   "
2.54, 90.34776, 0.00435117, NaN, NaN, NaN, 0.0347922, "- N/A -   "
2.55, 90.81956, 0.00437061, NaN, NaN, NaN, 0.0335714, "- N/A -   "
2.56, 91.1734, 0.00439004, NaN, NaN, NaN, 0.0335714, "- N/A -   "
2.57, 91.64519, 0.00440671, NaN, NaN, NaN, 0.0323506, "- N/A -   "
2.58, 91.88108, 0.004426142, NaN, NaN, NaN, 0.0323506, "- N/A -   "
2.59, 92.23492, 0.004442803, NaN, NaN, NaN, 0.03112983, "- N/A -   "
2.6, 92.70671, 0.00445946, NaN, NaN, NaN, 0.0323506, "- N/A -   "
2.61, 92.82466, 0.004473347, NaN, NaN, NaN, 0.0323506, "- N/A -   "
2.62, 93.1785, 0.00449001, NaN, NaN, NaN, 0.0323506, "- N/A -   "
2.63, 93.53234, 0.00450667, NaN, NaN, NaN, 0.0323506, "- N/A -   "
2.64, 94.0041, 0.004523329, NaN, NaN, NaN, 0.0323506, "- N/A -   "
2.65, 94.35797, 0.00453999, NaN, NaN, NaN, 0.0323506, "- N/A -   "
2.66, 94.59387, 0.00455665, NaN, NaN, NaN, 0.0335714, "- N/A -   "
2.67, 95.06567, 0.00457053, NaN, NaN, NaN, 0.0335714, "- N/A -   "
2.68, 95.30156, 0.004587194, NaN, NaN, NaN, 0.0335714, "- N/A -   "
2.69, 95.5374, 0.00460385, NaN, NaN, NaN, 0.0335714, "- N/A -   "
2.7, 96.00924, 0.004620515, NaN, NaN, NaN, 0.0335714, "- N/A -   "
2.71, 96.36309, 0.00463718, NaN, NaN, NaN, 0.0335714, "- N/A -   "
2.72, 96.71693, 0.004656613, NaN, NaN, NaN, 0.0335714, "- N/A -   "
2.73, 97.18872, 0.00467327, NaN, NaN, NaN, 0.0335714, "- N/A -   "
2.74, 97.4246, 0.004687157, NaN, NaN, NaN, 0.0335714, "- N/A -   "
2.75, 97.6605, 0.00470659, NaN, NaN, NaN, 0.0323506, "- N/A -   "
2.76, 98.13229, 0.004723255, NaN, NaN, NaN, 0.0323506, "- N/A -   "
2.77, 98.4861, 0.00473992, NaN, NaN, NaN, 0.0323506, "- N/A -   "
2.78, 98.83998, 0.00475935, NaN, NaN, NaN, 0.0323506, "- N/A -   "
2.79, 99.1938, 0.004776013, NaN, NaN, NaN, 0.0323506, "- N/A -   "
2.8, 99.54767, 0.0047899, NaN, NaN, NaN, 0.0323506, "- N/A -   "
2.81, 99.7836, 0.004806557, NaN, NaN, NaN, 0.0323506, "- N/A -   "
2.82, 100.137, 0.00482044, NaN, NaN, NaN, 0.0335714, "- N/A -   "
2.83, 100.491, 0.0048371, NaN, NaN, NaN, 0.0335714, "- N/A -   "
2.84, 100.727, 0.00485099, NaN, NaN, NaN, 0.0347922, "- N/A -   "
2.85, 101.081, 0.004867646, NaN, NaN, NaN, 0.0347922, "- N/A -   "
2.86, 101.199, 0.00488153, NaN, NaN, NaN, 0.03601294, "- N/A -   "
2.87, 101.671, 0.00489541, NaN, NaN, NaN, 0.0372337, "- N/A -   "
2.88, 101.907, 0.004909297, NaN, NaN, NaN, 0.0384545, "- N/A -   "
2.89, 102.143, 0.004925958, NaN, NaN, NaN, 0.0384545, "- N/A -   "
2.9, 102.496, 0.00494262, NaN, NaN, NaN, 0.0396753, "- N/A -   "
2.91, 102.732, 0.004956502, NaN, NaN, NaN, 0.0396753, "- N/A -   "
2.92, 103.086, 0.004970386, NaN, NaN, NaN, 0.04089605, "- N/A -   "
2.93, 103.44, 0.004987046, NaN, NaN, NaN, 0.04089605, "- N/A -   "
2.94, 103.912, 0.005003707, NaN, NaN, NaN, 0.04089605, "- N/A -   "
2.95, 104.148, 0.00502037, NaN, NaN, NaN, 0.04089605, "- N/A -   "
2.96, 104.501, 0.005034251, NaN, NaN, NaN, 0.04211683, "- N/A -   "
2.97, 104.737, 0.00505091, NaN, NaN, NaN, 0.04211683, "- N/A -   "
2.98, 105.091, 0.0050648, NaN, NaN, NaN, 0.0433376, "- N/A -   "
2.99, 105.327, 0.00507868, NaN, NaN, NaN, 0.0445584, "- N/A -   "
3, 105.563, 0.005092563, NaN, NaN, NaN, 0.04577916, "- N/A -   "
3.01, 105.917, 0.00510645, NaN, NaN, NaN, 0.04699994, "- N/A -   "
3.02, 106.271, 0.005125884, NaN, NaN, NaN, 0.04577916, "- N/A -   "
3.03, 106.742, 0.00514254, NaN, NaN, NaN, 0.04577916, "- N/A -   "
3.04, 107.214, 0.00516198, NaN, NaN, NaN, 0.0445584, "- N/A -   "
3.05, 107.3322, 0.00517864, NaN, NaN, NaN, 0.0445584, "- N/A -   "
3.06, 107.804, 0.005198079, NaN, NaN, NaN, 0.0445584, "- N/A -   "
3.07, 108.158, 0.00521474, NaN, NaN, NaN, 0.0433376, "- N/A -   "
3.08, 108.394, 0.0052314, NaN, NaN, NaN, 0.0433376, "- N/A -   "
3.09, 108.866, 0.00525084, NaN, NaN, NaN, 0.0433376, "- N/A -   "
3.1, 109.219, 0.00527028, NaN, NaN, NaN, 0.04089605, "- N/A -   "
3.11, 109.691, 0.00528971, NaN, NaN, NaN, 0.0396753, "- N/A -   "
3.12, 110.045, 0.00530915, NaN, NaN, NaN, 0.0384545, "- N/A -   "
3.13, 110.399, 0.005328587, NaN, NaN, NaN, 0.0372337, "- N/A -   "
3.14, 110.989, 0.00534802, NaN, NaN, NaN, 0.03601294, "- N/A -   "
3.15, 111.342, 0.00536746, NaN, NaN, NaN, 0.0347922, "- N/A -   "
3.16, 111.696, 0.0053869, NaN, NaN, NaN, 0.0347922, "- N/A -   "
3.17, 112.0501, 0.00540078, NaN, NaN, NaN, 0.0347922, "- N/A -   "
3.18, 112.404, 0.00541744, NaN, NaN, NaN, 0.0347922, "- N/A -   "
3.19, 112.64, 0.00543133, NaN, NaN, NaN, 0.03601294, "- N/A -   "
3.2, 112.994, 0.00544799, NaN, NaN, NaN, 0.03601294, "- N/A -   "
3.21, 113.348, 0.00546465, NaN, NaN, NaN, 0.03601294, "- N/A -   "
3.22, 113.583, 0.00548408, NaN, NaN, NaN, 0.03601294, "- N/A -   "
3.23, 113.937, 0.00550075, NaN, NaN, NaN, 0.03601294, "- N/A -   "
3.24, 114.2911, 0.005517406, NaN, NaN, NaN, 0.03601294, "- N/A -   "
3.25, 114.645, 0.00553407, NaN, NaN, NaN, 0.03601294, "- N/A -   "
3.26, 115.117, 0.005550727, NaN, NaN, NaN, 0.0347922, "- N/A -   "
3.27, 115.353, 0.00556739, NaN, NaN, NaN, 0.03601294, "- N/A -   "
3.28, 115.706, 0.00558127, NaN, NaN, NaN, 0.03601294, "- N/A -   "
3.29, 115.942, 0.005597932, NaN, NaN, NaN, 0.03601294, "- N/A -   "
3.3, 116.414, 0.005614592, NaN, NaN, NaN, 0.03601294, "- N/A -   "
3.31, 116.768, 0.00563125, NaN, NaN, NaN, 0.03601294, "- N/A -   "
3.32, 117.004, 0.00564791, NaN, NaN, NaN, 0.03601294, "- N/A -   "
3.33, 117.476, 0.00566735, NaN, NaN, NaN, 0.03601294, "- N/A -   "
3.34, 117.83, 0.005686788, NaN, NaN, NaN, 0.0335714, "- N/A -   "
3.35, 118.301, 0.00570345, NaN, NaN, NaN, 0.0335714, "- N/A -   "
3.36, 118.655, 0.00572566, NaN, NaN, NaN, 0.0323506, "- N/A -   "
3.37, 119.009, 0.00574232, NaN, NaN, NaN, 0.03112983, "- N/A -   "
3.38, 119.363, 0.00576176, NaN, NaN, NaN, 0.03112983, "- N/A -   "
3.39, 119.717, 0.00577842, NaN, NaN, NaN, 0.0299091, "- N/A -   "
3.4, 120.071, 0.00579508, NaN, NaN, NaN, 0.0299091, "- N/A -   "
3.41, 120.424, 0.005814519, NaN, NaN, NaN, 0.0286883, "- N/A -   "
3.42, 120.896, 0.00583118, NaN, NaN, NaN, 0.0286883, "- N/A -   "
3.43, 121.132, 0.00584784, NaN, NaN, NaN, 0.0286883, "- N/A -   "
3.44, 121.486, 0.005861723, NaN, NaN, NaN, 0.0299091, "- N/A -   "
3.45, 121.84, 0.00587838, NaN, NaN, NaN, 0.0299091, "- N/A -   "
3.46, 122.194, 0.00589504, NaN, NaN, NaN, 0.0299091, "- N/A -   "
3.47, 122.429, 0.005908928, NaN, NaN, NaN, 0.03112983, "- N/A -   "
3.48, 122.783, 0.005925589, NaN, NaN, NaN, 0.03112983, "- N/A -   "
3.49, 123.137, 0.005939472, NaN, NaN, NaN, 0.0323506, "- N/A -   "
3.5, 123.373, 0.00595336, NaN, NaN, NaN, 0.0335714, "- N/A -   "
3.51, 123.609, 0.00596724, NaN, NaN, NaN, 0.0347922, "- N/A -   "
3.52, 123.845, 0.00598112, NaN, NaN, NaN, 0.03601294, "- N/A -   "
3.53, 124.081, 0.005997784, NaN, NaN, NaN, 0.0372337, "- N/A -   "
3.54, 124.435, 0.006008891, NaN, NaN, NaN, 0.0384545, "- N/A -   "
3.55, 124.67, 0.00602277, NaN, NaN, NaN, 0.0396753, "- N/A -   "
3.56, 124.906, 0.006036659, NaN, NaN, NaN, 0.04089605, "- N/A -   "
3.57, 125.26, 0.006050542, NaN, NaN, NaN, 0.04211683, "- N/A -   "
3.58, 125.496, 0.006064426, NaN, NaN, NaN, 0.0433376, "- N/A -   "
3.59, 125.85, 0.00608109, NaN, NaN, NaN, 0.0433376, "- N/A -   "
3.6, 126.204, 0.006097747, NaN, NaN, NaN, 0.0433376, "- N/A -   "
3.61, 126.558, 0.006114408, NaN, NaN, NaN, 0.0445584, "- N/A -   "
3.62, 126.911, 0.006128291, NaN, NaN, NaN, 0.04577916, "- N/A -   "
3.63, 127.147, 0.006144952, NaN, NaN, NaN, 0.04577916, "- N/A -   "
3.64, 127.501, 0.00615884, NaN, NaN, NaN, 0.04699994, "- N/A -   "
3.65, 127.855, 0.006175496, NaN, NaN, NaN, 0.04699994, "- N/A -   "
3.66, 128.091, 0.006192157, NaN, NaN, NaN, 0.04699994, "- N/A -   "
3.67, 128.563, 0.006208817, NaN, NaN, NaN, 0.04699994, "- N/A -   "
3.68, 128.799, 0.006225478, NaN, NaN, NaN, 0.04699994, "- N/A -   "
3.69, 129.152, 0.006242138, NaN, NaN, NaN, 0.04699994, "- N/A -   "
3.7, 129.624, 0.0062588, NaN, NaN, NaN, 0.04699994, "- N/A -   "
3.71, 129.978, 0.00628101, NaN, NaN, NaN, 0.04577916, "- N/A -   "
3.72, 130.4499, 0.00630045, NaN, NaN, NaN, 0.0433376, "- N/A -   "
3.73, 130.922, 0.006319887, NaN, NaN, NaN, 0.04211683, "- N/A -   "
3.74, 131.276, 0.006342101, NaN, NaN, NaN, 0.04089605, "- N/A -   "
3.75, 131.747, 0.006358762, NaN, NaN, NaN, 0.0396753, "- N/A -   "
3.76, 132.337, 0.006380976, NaN, NaN, NaN, 0.0372337, "- N/A -   "
3.77, 132.573, 0.006397636, NaN, NaN, NaN, 0.0372337, "- N/A -   "
3.78, 132.9268, 0.00641707, NaN, NaN, NaN, 0.03601294, "- N/A -   "
3.79, 133.399, 0.006433734, NaN, NaN, NaN, 0.03601294, "- N/A -   "
3.8, 133.634, 0.006450394, NaN, NaN, NaN, 0.03601294, "- N/A -   "
3.81, 133.988, 0.006469832, NaN, NaN, NaN, 0.03601294, "- N/A -   "
3.82, 134.342, 0.006486492, NaN, NaN, NaN, 0.0347922, "- N/A -   "
3.83, 134.814, 0.006503153, NaN, NaN, NaN, 0.0347922, "- N/A -   "
3.84, 135.05, 0.00652259, NaN, NaN, NaN, 0.0347922, "- N/A -   "
3.85, 135.4037, 0.00653925, NaN, NaN, NaN, 0.0347922, "- N/A -   "
3.86, 135.64, 0.00655313, NaN, NaN, NaN, 0.0347922, "- N/A -   "
3.87, 135.993, 0.006569795, NaN, NaN, NaN, 0.0347922, "- N/A -   "
3.88, 136.465, 0.00658646, NaN, NaN, NaN, 0.0347922, "- N/A -   "
3.89, 136.701, 0.00660589, NaN, NaN, NaN, 0.0335714, "- N/A -   "
3.9, 137.173, 0.00662255, NaN, NaN, NaN, 0.0335714, "- N/A -   "
3.91, 137.527, 0.00663921, NaN, NaN, NaN, 0.0335714, "- N/A -   "
3.92, 137.8806, 0.006658651, NaN, NaN, NaN, 0.0323506, "- N/A -   "
3.93, 138.234, 0.006678088, NaN, NaN, NaN, 0.03112983, "- N/A -   "
3.94, 138.706, 0.00669753, NaN, NaN, NaN, 0.0299091, "- N/A -   "
3.95, 139.06, 0.006716963, NaN, NaN, NaN, 0.0286883, "- N/A -   "
3.96, 139.532, 0.00673362, NaN, NaN, NaN, 0.0286883, "- N/A -   "
3.97, 139.8857, 0.006750284, NaN, NaN, NaN, 0.0286883, "- N/A -   "
3.98, 140.1216, 0.00676972, NaN, NaN, NaN, 0.0286883, "- N/A -   "
3.99, 140.593, 0.00678638, NaN, NaN, NaN, 0.0274675, "- N/A -   "
4, 140.947, 0.00680304, NaN, NaN, NaN, 0.0274675, "- N/A -   "
4.01, 141.301, 0.006819702, NaN, NaN, NaN, 0.0274675, "- N/A -   "
4.02, 141.6549, 0.006836363, NaN, NaN, NaN, 0.0274675, "- N/A -   "
4.03, 141.891, 0.00685302, NaN, NaN, NaN, 0.0274675, "- N/A -   "
4.04, 142.3626, 0.00686968, NaN, NaN, NaN, 0.0274675, "- N/A -   "
4.05, 142.5985, 0.00688634, NaN, NaN, NaN, 0.0274675, "- N/A -   "
4.06, 142.952, 0.00690301, NaN, NaN, NaN, 0.0274675, "- N/A -   "
4.07, 143.188, 0.006916889, NaN, NaN, NaN, 0.0286883, "- N/A -   "
4.08, 143.542, 0.00693077, NaN, NaN, NaN, 0.0299091, "- N/A -   "
4.09, 143.778, 0.006947433, NaN, NaN, NaN, 0.03112983, "- N/A -   "
4.1, 144.132, 0.00696132, NaN, NaN, NaN, 0.03112983, "- N/A -   "
4.11, 144.368, 0.0069752, NaN, NaN, NaN, 0.0323506, "- N/A -   "
4.12, 144.722, 0.00699186, NaN, NaN, NaN, 0.0335714, "- N/A -   "
4.13, 144.957, 0.007005745, NaN, NaN, NaN, 0.0335714, "- N/A -   "
4.14, 145.311, 0.007019629, NaN, NaN, NaN, 0.0347922, "- N/A -   "
4.15, 145.547, 0.00703351, NaN, NaN, NaN, 0.03601294, "- N/A -   "
4.16, 145.901, 0.007047396, NaN, NaN, NaN, 0.0372337, "- N/A -   "
4.17, 146.255, 0.00706128, NaN, NaN, NaN, 0.0384545, "- N/A -   "
4.18, 146.3728, 0.00707794, NaN, NaN, NaN, 0.0396753, "- N/A -   "
4.19, 146.727, 0.00709182, NaN, NaN, NaN, 0.0396753, "- N/A -   "
4.2, 146.963, 0.007105708, NaN, NaN, NaN, 0.04089605, "- N/A -   "
4.21, 147.316, 0.007119592, NaN, NaN, NaN, 0.04211683, "- N/A -   "
4.22, 147.67, 0.00713625, NaN, NaN, NaN, 0.0433376, "- N/A -   "
4.23, 148.024, 0.00715014, NaN, NaN, NaN, 0.0433376, "- N/A -   "
4.24, 148.26, 0.0071668, NaN, NaN, NaN, 0.0445584, "- N/A -   "
4.25, 148.6138, 0.00718068, NaN, NaN, NaN, 0.0445584, "- N/A -   "
4.26, 148.968, 0.00719734, NaN, NaN, NaN, 0.04577916, "- N/A -   "
4.27, 149.204, 0.00721122, NaN, NaN, NaN, 0.04577916, "- N/A -   "
4.28, 149.557, 0.00722511, NaN, NaN, NaN, 0.04699994, "- N/A -   "
4.29, 150.029, 0.00724455, NaN, NaN, NaN, 0.04699994, "- N/A -   "
4.3, 150.265, 0.00725843, NaN, NaN, NaN, 0.04699994, "- N/A -   "
4.31, 150.619, 0.00727509, NaN, NaN, NaN, 0.04699994, "- N/A -   "
4.32, 151.091, 0.00729453, NaN, NaN, NaN, 0.04699994, "- N/A -   "
4.33, 151.445, 0.00731119, NaN, NaN, NaN, 0.04577916, "- N/A -   "
4.34, 151.798, 0.007330625, NaN, NaN, NaN, 0.04577916, "- N/A -   "
4.35, 152.152, 0.00734729, NaN, NaN, NaN, 0.0445584, "- N/A -   "
4.36, 152.624, 0.00736395, NaN, NaN, NaN, 0.0445584, "- N/A -   "
4.37, 152.86, 0.00738061, NaN, NaN, NaN, 0.0445584, "- N/A -   "
4.38, 153.214, 0.007400044, NaN, NaN, NaN, 0.0445584, "- N/A -   "
4.39, 153.686, 0.0074167, NaN, NaN, NaN, 0.0445584, "- N/A -   "
4.4, 154.0394, 0.00743336, NaN, NaN, NaN, 0.0445584, "- N/A -   "
4.41, 154.393, 0.00745003, NaN, NaN, NaN, 0.0433376, "- N/A -   "
4.42, 154.747, 0.00746946, NaN, NaN, NaN, 0.0433376, "- N/A -   "
4.43, 155.219, 0.00748612, NaN, NaN, NaN, 0.04211683, "- N/A -   "
4.44, 155.573, 0.00750556, NaN, NaN, NaN, 0.04211683, "- N/A -   "
4.45, 155.927, 0.00752222, NaN, NaN, NaN, 0.04089605, "- N/A -   "
4.46, 156.2804, 0.007541658, NaN, NaN, NaN, 0.0396753, "- N/A -   "
4.47, 156.752, 0.0075611, NaN, NaN, NaN, 0.0384545, "- N/A -   "
4.48, 157.224, 0.00758331, NaN, NaN, NaN, 0.0372337, "- N/A -   "
4.49, 157.578, 0.00760275, NaN, NaN, NaN, 0.0347922, "- N/A -   "
4.5, 157.932, 0.00762218, NaN, NaN, NaN, 0.0347922, "- N/A -   "
4.51, 158.521, 0.007641621, NaN, NaN, NaN, 0.0323506, "- N/A -   "
4.52, 158.875, 0.007658282, NaN, NaN, NaN, 0.0323506, "- N/A -   "
4.53, 159.229, 0.007677719, NaN, NaN, NaN, 0.03112983, "- N/A -   "
4.54, 159.583, 0.007697156, NaN, NaN, NaN, 0.03112983, "- N/A -   "
4.55, 159.937, 0.00771382, NaN, NaN, NaN, 0.03112983, "- N/A -   "
4.56, 160.2906, 0.0077277, NaN, NaN, NaN, 0.03112983, "- N/A -   "
4.57, 160.5265, 0.007747138, NaN, NaN, NaN, 0.03112983, "- N/A -   "
4.58, 160.998, 0.007763798, NaN, NaN, NaN, 0.03112983, "- N/A -   "
4.59, 161.234, 0.007780459, NaN, NaN, NaN, 0.03112983, "- N/A -   "
4.6, 161.588, 0.007794343, NaN, NaN, NaN, 0.03112983, "- N/A -   "
4.61, 161.824, 0.007808226, NaN, NaN, NaN, 0.0323506, "- N/A -   "
4.62, 162.178, 0.007824887, NaN, NaN, NaN, 0.0323506, "- N/A -   "
4.63, 162.414, 0.007841547, NaN, NaN, NaN, 0.0335714, "- N/A -   "
4.64, 162.885, 0.007855431, NaN, NaN, NaN, 0.0335714, "- N/A -   "
4.65, 163.121, 0.007872092, NaN, NaN, NaN, 0.0335714, "- N/A -   "
4.66, 163.475, 0.007888752, NaN, NaN, NaN, 0.0335714, "- N/A -   "
4.67, 163.829, 0.007905412, NaN, NaN, NaN, 0.0335714, "- N/A -   "
4.68, 164.065, 0.007922073, NaN, NaN, NaN, 0.0335714, "- N/A -   "
4.69, 164.419, 0.007935957, NaN, NaN, NaN, 0.0347922, "- N/A -   "
4.7, 164.773, 0.007949841, NaN, NaN, NaN, 0.03601294, "- N/A -   "
4.71, 165.126, 0.007966501, NaN, NaN, NaN, 0.03601294, "- N/A -   "
4.72, 165.598, 0.007983162, NaN, NaN, NaN, 0.0372337, "- N/A -   "
4.73, 165.834, 0.007997045, NaN, NaN, NaN, 0.0372337, "- N/A -   "
4.74, 166.07, 0.008013706, NaN, NaN, NaN, 0.0372337, "- N/A -   "
4.75, 166.542, 0.008030366, NaN, NaN, NaN, 0.0372337, "- N/A -   "
4.76, 166.778, 0.008047027, NaN, NaN, NaN, 0.0372337, "- N/A -   "
4.77, 167.25, 0.008063687, NaN, NaN, NaN, 0.0372337, "- N/A -   "
4.78, 167.603, 0.008080348, NaN, NaN, NaN, 0.0372337, "- N/A -   "
4.79, 167.9572, 0.008097008, NaN, NaN, NaN, 0.0372337, "- N/A -   "
4.8, 168.311, 0.008113669, NaN, NaN, NaN, 0.0372337, "- N/A -   "
4.81, 168.783, 0.008133106, NaN, NaN, NaN, 0.0372337, "- N/A -   "
4.82, 169.019, 0.008149767, NaN, NaN, NaN, 0.03601294, "- N/A -   "
4.83, 169.373, 0.008166427, NaN, NaN, NaN, 0.03601294, "- N/A -   "
4.84, 169.608, 0.008183088, NaN, NaN, NaN, 0.03601294, "- N/A -   "
4.85, 169.962, 0.008199749, NaN, NaN, NaN, 0.03601294, "- N/A -   "
4.86, 170.316, 0.008213632, NaN, NaN, NaN, 0.0372337, "- N/A -   "
4.87, 170.67, 0.008230292, NaN, NaN, NaN, 0.0372337, "- N/A -   "
4.88, 171.024, 0.008244176, NaN, NaN, NaN, 0.0384545, "- N/A -   "
4.89, 171.378, 0.008258061, NaN, NaN, NaN, 0.0396753, "- N/A -   "
4.9, 171.614, 0.00827472, NaN, NaN, NaN, 0.04089605, "- N/A -   "
4.91, 171.849, 0.008288604, NaN, NaN, NaN, 0.04089605, "- N/A -   "
4.92, 172.321, 0.008302488, NaN, NaN, NaN, 0.04211683, "- N/A -   "
4.93, 172.557, 0.008319149, NaN, NaN, NaN, 0.04211683, "- N/A -   "
4.94, 172.793, 0.008333032, NaN, NaN, NaN, 0.0433376, "- N/A -   "
4.95, 173.1469, 0.008349693, NaN, NaN, NaN, 0.0433376, "- N/A -   "
4.96, 173.501, 0.008366354, NaN, NaN, NaN, 0.0433376, "- N/A -   "
4.97, 173.737, 0.008383014, NaN, NaN, NaN, 0.0433376, "- N/A -   "
4.98, 174.208, 0.008399675, NaN, NaN, NaN, 0.0445584, "- N/A -   "
4.99, 174.562, 0.008416335, NaN, NaN, NaN, 0.0445584, "- N/A -   "
5, 174.798, 0.008433, NaN, NaN, NaN, 0.0445584, "- N/A -   "
5.01, 175.27, 0.008449656, NaN, NaN, NaN, 0.0433376, "- N/A -   "
5.02, 175.624, 0.008463539, NaN, NaN, NaN, 0.0445584, "- N/A -   "
5.03, 175.86, 0.008482977, NaN, NaN, NaN, 0.0445584, "- N/A -   "
5.04, 176.449, 0.008499637, NaN, NaN, NaN, 0.0433376, "- N/A -   "
5.05, 176.6853, 0.008519075, NaN, NaN, NaN, 0.04211683, "- N/A -   "
5.06, 177.1571, 0.00853851, NaN, NaN, NaN, 0.04089605, "- N/A -   "
5.07, 177.629, 0.008560726, NaN, NaN, NaN, 0.0396753, "- N/A -   "
5.08, 178.1007, 0.008580163, NaN, NaN, NaN, 0.0384545, "- N/A -   "
5.09, 178.455, 0.008599601, NaN, NaN, NaN, 0.03601294, "- N/A -   "
5.1, 178.926, 0.008616261, NaN, NaN, NaN, 0.03601294, "- N/A -   "
5.11, 179.28, 0.008635699, NaN, NaN, NaN, 0.0347922, "- N/A -   "
5.12, 179.634, 0.00865514, NaN, NaN, NaN, 0.0347922, "- N/A -   "
5.13, 179.988, 0.008671796, NaN, NaN, NaN, 0.0335714, "- N/A -   "
5.14, 180.342, 0.008694011, NaN, NaN, NaN, 0.0323506, "- N/A -   "
5.15, 180.931, 0.00871345, NaN, NaN, NaN, 0.03112983, "- N/A -   "
5.16, 181.167, 0.008730108, NaN, NaN, NaN, 0.0299091, "- N/A -   "
5.17, 181.521, 0.008752322, NaN, NaN, NaN, 0.0286883, "- N/A -   "
5.18, 181.993, 0.008768982, NaN, NaN, NaN, 0.0274675, "- N/A -   "
5.19, 182.465, 0.00878842, NaN, NaN, NaN, 0.0274675, "- N/A -   "
5.2, 182.701, 0.00880508, NaN, NaN, NaN, 0.0262467, "- N/A -   "
5.21, 183.172, 0.008821741, NaN, NaN, NaN, 0.0262467, "- N/A -   "
5.22, 183.408, 0.008838401, NaN, NaN, NaN, 0.0262467, "- N/A -   "
5.23, 183.762, 0.008852284, NaN, NaN, NaN, 0.0274675, "- N/A -   "
5.24, 183.998, 0.008866169, NaN, NaN, NaN, 0.0286883, "- N/A -   "
5.25, 184.234, 0.008880053, NaN, NaN, NaN, 0.0299091, "- N/A -   "
5.26, 184.5878, 0.008893937, NaN, NaN, NaN, 0.03112983, "- N/A -   "
5.27, 184.824, 0.00890782, NaN, NaN, NaN, 0.0323506, "- N/A -   "
5.28, 185.06, 0.008921703, NaN, NaN, NaN, 0.0335714, "- N/A -   "
5.29, 185.295, 0.00893559, NaN, NaN, NaN, 0.0347922, "- N/A -   "
5.3, 185.531, 0.008949472, NaN, NaN, NaN, 0.03601294, "- N/A -   "
5.31, 185.885, 0.008966132, NaN, NaN, NaN, 0.03601294, "- N/A -   "
5.32, 186.239, 0.008980015, NaN, NaN, NaN, 0.0372337, "- N/A -   "
5.33, 186.593, 0.008999453, NaN, NaN, NaN, 0.03601294, "- N/A -   "
5.34, 187.065, 0.009016113, NaN, NaN, NaN, 0.0372337, "- N/A -   "
5.35, 187.301, 0.009032774, NaN, NaN, NaN, 0.0372337, "- N/A -   "
5.36, 187.654, 0.009049434, NaN, NaN, NaN, 0.0372337, "- N/A -   "
5.37, 188.008, 0.009066095, NaN, NaN, NaN, 0.03601294, "- N/A -   "
5.38, 188.3621, 0.009085532, NaN, NaN, NaN, 0.03601294, "- N/A -   "
5.39, 188.834, 0.00910497, NaN, NaN, NaN, 0.0347922, "- N/A -   "
5.4, 189.188, 0.009121629, NaN, NaN, NaN, 0.0335714, "- N/A -   "
5.41, 189.5416, 0.009138291, NaN, NaN, NaN, 0.0335714, "- N/A -   "
5.42, 189.895, 0.00915773, NaN, NaN, NaN, 0.0323506, "- N/A -   "
5.43, 190.249, 0.009174388, NaN, NaN, NaN, 0.0323506, "- N/A -   "
5.44, 190.603, 0.009193826, NaN, NaN, NaN, 0.0323506, "- N/A -   "
5.45, 190.957, 0.009210486, NaN, NaN, NaN, 0.0323506, "- N/A -   "
5.46, 191.193, 0.00922437, NaN, NaN, NaN, 0.0323506, "- N/A -   "
5.47, 191.547, 0.00924103, NaN, NaN, NaN, 0.0323506, "- N/A -   "
5.48, 191.7826, 0.009257691, NaN, NaN, NaN, 0.0323506, "- N/A -   "
5.49, 192.136, 0.009271575, NaN, NaN, NaN, 0.0335714, "- N/A -   "
5.5, 192.49, 0.009285458, NaN, NaN, NaN, 0.0347922, "- N/A -   "
5.51, 192.726, 0.009302119, NaN, NaN, NaN, 0.03601294, "- N/A -   "
5.52, 193.08, 0.009316003, NaN, NaN, NaN, 0.03601294, "- N/A -   "
5.53, 193.3159, 0.009332663, NaN, NaN, NaN, 0.0372337, "- N/A -   "
5.54, 193.67, 0.009346547, NaN, NaN, NaN, 0.0372337, "- N/A -   "
5.55, 193.906, 0.009363207, NaN, NaN, NaN, 0.0384545, "- N/A -   "
5.56, 194.259, 0.009377091, NaN, NaN, NaN, 0.0384545, "- N/A -   "
5.57, 194.495, 0.009390975, NaN, NaN, NaN, 0.0396753, "- N/A -   "
5.58, 194.731, 0.009404859, NaN, NaN, NaN, 0.04089605, "- N/A -   "
5.59, 194.967, 0.009418742, NaN, NaN, NaN, 0.04211683, "- N/A -   "
5.6, 195.321, 0.009435403, NaN, NaN, NaN, 0.04211683, "- N/A -   "
5.61, 195.5569, 0.009452064, NaN, NaN, NaN, 0.04211683, "- N/A -   "
5.62, 195.911, 0.009468724, NaN, NaN, NaN, 0.04211683, "- N/A -   "
5.63, 196.383, 0.009488161, NaN, NaN, NaN, 0.04089605, "- N/A -   "
5.64, 196.618, 0.009504822, NaN, NaN, NaN, 0.04089605, "- N/A -   "
5.65, 196.972, 0.00952148, NaN, NaN, NaN, 0.04089605, "- N/A -   "
5.66, 197.326, 0.009538143, NaN, NaN, NaN, 0.04089605, "- N/A -   "
5.67, 197.68, 0.009554803, NaN, NaN, NaN, 0.04089605, "- N/A -   "
5.68, 198.034, 0.00957424, NaN, NaN, NaN, 0.04089605, "- N/A -   "
5.69, 198.388, 0.009590901, NaN, NaN, NaN, 0.0396753, "- N/A -   "
5.7, 198.741, 0.009607561, NaN, NaN, NaN, 0.0396753, "- N/A -   "
5.71, 198.977, 0.009624222, NaN, NaN, NaN, 0.04089605, "- N/A -   "
5.72, 199.331, 0.00963811, NaN, NaN, NaN, 0.04089605, "- N/A -   "
5.73, 199.567, 0.009657542, NaN, NaN, NaN, 0.0396753, "- N/A -   "
5.74, 200.039, 0.009674203, NaN, NaN, NaN, 0.0396753, "- N/A -   "
5.75, 200.275, 0.009690863, NaN, NaN, NaN, 0.0396753, "- N/A -   "
5.76, 200.629, 0.009707525, NaN, NaN, NaN, 0.0396753, "- N/A -   "
5.77, 200.9825, 0.009726961, NaN, NaN, NaN, 0.0396753, "- N/A -   "
5.78, 201.2184, 0.009743623, NaN, NaN, NaN, 0.0384545, "- N/A -   "
5.79, 201.454, 0.009760284, NaN, NaN, NaN, 0.0384545, "- N/A -   "
5.8, 201.926, 0.009776944, NaN, NaN, NaN, 0.0384545, "- N/A -   "
5.81, 202.28, 0.009793604, NaN, NaN, NaN, 0.0384545, "- N/A -   "
5.82, 202.634, 0.009813041, NaN, NaN, NaN, 0.0372337, "- N/A -   "
5.83, 202.87, 0.009829702, NaN, NaN, NaN, 0.0372337, "- N/A -   "
5.84, 203.2235, 0.00984914, NaN, NaN, NaN, 0.03601294, "- N/A -   "
5.85, 203.695, 0.0098658, NaN, NaN, NaN, 0.03601294, "- N/A -   "
5.86, 203.931, 0.00988246, NaN, NaN, NaN, 0.03601294, "- N/A -   "
5.87, 204.167, 0.009899121, NaN, NaN, NaN, 0.0372337, "- N/A -   "
5.88, 204.521, 0.009913003, NaN, NaN, NaN, 0.0372337, "- N/A -   "
5.89, 204.7568, 0.009932441, NaN, NaN, NaN, 0.0372337, "- N/A -   "
5.9, 205.111, 0.009949101, NaN, NaN, NaN, 0.0372337, "- N/A -   "
5.91, 205.347, 0.009962986, NaN, NaN, NaN, 0.0372337, "- N/A -   "
5.92, 205.7, 0.009982424, NaN, NaN, NaN, 0.0372337, "- N/A -   "
5.93, 206.054, 0.009999084, NaN, NaN, NaN, 0.03601294, "- N/A -   "
5.94, 206.408, 0.0100157, NaN, NaN, NaN, 0.03601294, "- N/A -   "
5.95, 206.762, 0.0100352, NaN, NaN, NaN, 0.0347922, "- N/A -   "
[...]
37.8, 1472, 0.0630906, NaN, NaN, NaN, 0.04699994, "- N/A -   "
37.81, 1472.72, 0.06311002, NaN, NaN, NaN, 0.04577916, "- N/A -   "
37.82, 1473.19, 0.0631295, NaN, NaN, NaN, 0.0445584, "- N/A -   "
37.83, 1473.67, 0.06314889, NaN, NaN, NaN, 0.0433376, "- N/A -   "
37.84, 1474.27, 0.0631711, NaN, NaN, NaN, 0.04211683, "- N/A -   "
37.85, 1474.74, 0.06318777, NaN, NaN, NaN, 0.04089605, "- N/A -   "
37.86, 1475.34, 0.06320998, NaN, NaN, NaN, 0.0384545, "- N/A -   "
37.87, 1475.936, 0.06322942, NaN, NaN, NaN, 0.0372337, "- N/A -   "
37.88, 1476.41, 0.06324886, NaN, NaN, NaN, 0.03601294, "- N/A -   "
37.89, 1476.89, 0.06326552, NaN, NaN, NaN, 0.03601294, "- N/A -   "
37.9, 1477.37, 0.063285, NaN, NaN, NaN, 0.0347922, "- N/A -   "
37.91, 1477.84, 0.06330439, NaN, NaN, NaN, 0.0347922, "- N/A -   "
37.92, 1478.32, 0.0633211, NaN, NaN, NaN, 0.0335714, "- N/A -   "
37.93, 1478.8, 0.06333771, NaN, NaN, NaN, 0.0335714, "- N/A -   "
37.94, 1479.28, 0.06335437, NaN, NaN, NaN, 0.0335714, "- N/A -   "
37.95, 1479.75, 0.06337103, NaN, NaN, NaN, 0.0335714, "- N/A -   "
37.96, 1480.23, 0.06338769, NaN, NaN, NaN, 0.0335714, "- N/A -   "
37.97, 1480.587, 0.06340435, NaN, NaN, NaN, 0.0335714, "- N/A -   "
37.98, 1481.064, 0.06342379, NaN, NaN, NaN, 0.0335714, "- N/A -   "
37.99, 1481.541, 0.06344045, NaN, NaN, NaN, 0.0323506, "- N/A -   "
38, 1481.9, 0.06345711, NaN, NaN, NaN, 0.0323506, "- N/A -   "
38.01, 1482.495, 0.06347655, NaN, NaN, NaN, 0.0323506, "- N/A -   "
38.02, 1482.85, 0.06349321, NaN, NaN, NaN, 0.03112983, "- N/A -   "
38.03, 1483.33, 0.0635099, NaN, NaN, NaN, 0.03112983, "- N/A -   "
38.04, 1483.926, 0.0635293, NaN, NaN, NaN, 0.0299091, "- N/A -   "
38.05, 1484.4, 0.06354597, NaN, NaN, NaN, 0.0299091, "- N/A -   "
38.06, 1484.88, 0.0635654, NaN, NaN, NaN, 0.0299091, "- N/A -   "
38.07, 1485.36, 0.06358207, NaN, NaN, NaN, 0.0286883, "- N/A -   "
38.08, 1485.834, 0.06359873, NaN, NaN, NaN, 0.0286883, "- N/A -   "
38.09, 1486.19, 0.06361539, NaN, NaN, NaN, 0.0286883, "- N/A -   "
38.1, 1486.67, 0.06363483, NaN, NaN, NaN, 0.0286883, "- N/A -   "
38.11, 1487.15, 0.06365149, NaN, NaN, NaN, 0.0286883, "- N/A -   "
38.12, 1487.62, 0.06366815, NaN, NaN, NaN, 0.0286883, "- N/A -   "
38.13, 1488.1, 0.0636848, NaN, NaN, NaN, 0.0286883, "- N/A -   "
38.14, 1488.46, 0.0637015, NaN, NaN, NaN, 0.0286883, "- N/A -   "
38.15, 1488.93, 0.0637181, NaN, NaN, NaN, 0.0274675, "- N/A -   "
38.16, 1489.41, 0.0637348, NaN, NaN, NaN, 0.0274675, "- N/A -   "
38.17, 1489.89, 0.0637514, NaN, NaN, NaN, 0.0274675, "- N/A -   "
38.18, 1490.37, 0.0637681, NaN, NaN, NaN, 0.0274675, "- N/A -   "
38.19, 1490.72, 0.06378476, NaN, NaN, NaN, 0.0274675, "- N/A -   "
38.2, 1491.2, 0.06379865, NaN, NaN, NaN, 0.0286883, "- N/A -   "
38.21, 1491.439, 0.06381532, NaN, NaN, NaN, 0.0286883, "- N/A -   "
38.22, 1491.916, 0.0638292, NaN, NaN, NaN, 0.0299091, "- N/A -   "
38.23, 1492.27, 0.06384308, NaN, NaN, NaN, 0.03112983, "- N/A -   "
38.24, 1492.63, 0.06385974, NaN, NaN, NaN, 0.0323506, "- N/A -   "
38.25, 1492.99, 0.06387085, NaN, NaN, NaN, 0.0335714, "- N/A -   "
38.26, 1493.35, 0.0638847, NaN, NaN, NaN, 0.0347922, "- N/A -   "
38.27, 1493.7, 0.0638986, NaN, NaN, NaN, 0.03601294, "- N/A -   "
38.28, 1494.06, 0.0639125, NaN, NaN, NaN, 0.0372337, "- N/A -   "
38.29, 1494.42, 0.0639264, NaN, NaN, NaN, 0.0384545, "- N/A -   "
38.3, 1494.9, 0.06394304, NaN, NaN, NaN, 0.0396753, "- N/A -   "
38.31, 1495.14, 0.06395693, NaN, NaN, NaN, 0.04089605, "- N/A -   "
38.32, 1495.37, 0.06396803, NaN, NaN, NaN, 0.04211683, "- N/A -   "
38.33, 1495.73, 0.06398191, NaN, NaN, NaN, 0.0433376, "- N/A -   "
38.34, 1496.209, 0.06399858, NaN, NaN, NaN, 0.0445584, "- N/A -   "
38.35, 1496.57, 0.06401247, NaN, NaN, NaN, 0.0445584, "- N/A -   "
38.36, 1497.04, 0.06402913, NaN, NaN, NaN, 0.0445584, "- N/A -   "
38.37, 1497.4, 0.06404579, NaN, NaN, NaN, 0.0445584, "- N/A -   "
38.38, 1498, 0.06406245, NaN, NaN, NaN, 0.0445584, "- N/A -   "
38.39, 1498.36, 0.0640791, NaN, NaN, NaN, 0.0445584, "- N/A -   "
38.4, 1498.83, 0.0640985, NaN, NaN, NaN, 0.0445584, "- N/A -   "
38.41, 1499.31, 0.0641152, NaN, NaN, NaN, 0.0433376, "- N/A -   "
38.42, 1499.79, 0.06413186, NaN, NaN, NaN, 0.0433376, "- N/A -   "
38.43, 1500.14, 0.06414852, NaN, NaN, NaN, 0.0445584, "- N/A -   "
38.44, 1500.5, 0.0641624, NaN, NaN, NaN, 0.0445584, "- N/A -   "
38.45, 1500.98, 0.06417629, NaN, NaN, NaN, 0.04577916, "- N/A -   "
38.46, 1501.34, 0.06419573, NaN, NaN, NaN, 0.04577916, "- N/A -   "
38.47, 1501.81, 0.06420962, NaN, NaN, NaN, 0.04577916, "- N/A -   "
38.48, 1502.29, 0.06422628, NaN, NaN, NaN, 0.04577916, "- N/A -   "
38.49, 1502.65, 0.06424294, NaN, NaN, NaN, 0.04699994, "- N/A -   "
38.5, 1503.13, 0.0642596, NaN, NaN, NaN, 0.04699994, "- N/A -   "
38.51, 1503.6, 0.0642763, NaN, NaN, NaN, 0.04699994, "- N/A -   "
38.52, 1504.08, 0.0642929, NaN, NaN, NaN, 0.04577916, "- N/A -   "
38.53, 1504.56, 0.0643096, NaN, NaN, NaN, 0.04577916, "- N/A -   "
38.54, 1505.03, 0.06432901, NaN, NaN, NaN, 0.04577916, "- N/A -   "
38.55, 1505.63, 0.06434567, NaN, NaN, NaN, 0.0445584, "- N/A -   "
38.56, 1506.23, 0.06436511, NaN, NaN, NaN, 0.0433376, "- N/A -   "
38.57, 1506.58, 0.06438733, NaN, NaN, NaN, 0.04089605, "- N/A -   "
38.58, 1507.18, 0.06440676, NaN, NaN, NaN, 0.0396753, "- N/A -   "
38.59, 1507.78, 0.06442898, NaN, NaN, NaN, 0.0384545, "- N/A -   "
38.6, 1508.25, 0.06444841, NaN, NaN, NaN, 0.0372337, "- N/A -   "
38.61, 1508.85, 0.06447063, NaN, NaN, NaN, 0.0347922, "- N/A -   "
38.62, 1509.45, 0.0644901, NaN, NaN, NaN, 0.0323506, "- N/A -   "
38.63, 1510.16, 0.06451228, NaN, NaN, NaN, 0.03112983, "- N/A -   "
38.64, 1510.52, 0.06453171, NaN, NaN, NaN, 0.0286883, "- N/A -   "
38.65, 1511.12, 0.06455115, NaN, NaN, NaN, 0.0274675, "- N/A -   "
38.66, 1511.47, 0.06456781, NaN, NaN, NaN, 0.0286883, "- N/A -   "
38.67, 1511.95, 0.06458447, NaN, NaN, NaN, 0.0286883, "- N/A -   "
38.68, 1512.308, 0.06459836, NaN, NaN, NaN, 0.0286883, "- N/A -   "
38.69, 1512.785, 0.06461502, NaN, NaN, NaN, 0.0286883, "- N/A -   "
38.7, 1513.26, 0.06463168, NaN, NaN, NaN, 0.0286883, "- N/A -   "
38.71, 1513.62, 0.06464834, NaN, NaN, NaN, 0.0286883, "- N/A -   "
38.72, 1514.1, 0.064665, NaN, NaN, NaN, 0.0286883, "- N/A -   "
38.73, 1514.45, 0.06468166, NaN, NaN, NaN, 0.0299091, "- N/A -   "
38.74, 1514.93, 0.06469832, NaN, NaN, NaN, 0.0286883, "- N/A -   "
38.75, 1515.41, 0.0647122, NaN, NaN, NaN, 0.0299091, "- N/A -   "
38.76, 1515.77, 0.0647261, NaN, NaN, NaN, 0.03112983, "- N/A -   "
38.77, 1516.124, 0.06474275, NaN, NaN, NaN, 0.0323506, "- N/A -   "
38.78, 1516.6, 0.06475663, NaN, NaN, NaN, 0.0323506, "- N/A -   "
38.79, 1516.96, 0.06477329, NaN, NaN, NaN, 0.0323506, "- N/A -   "
38.8, 1517.32, 0.06478718, NaN, NaN, NaN, 0.0335714, "- N/A -   "
38.81, 1517.67, 0.06480384, NaN, NaN, NaN, 0.0335714, "- N/A -   "
38.82, 1518.15, 0.06481772, NaN, NaN, NaN, 0.0347922, "- N/A -   "
38.83, 1518.63, 0.06483438, NaN, NaN, NaN, 0.03601294, "- N/A -   "
38.84, 1518.99, 0.06484827, NaN, NaN, NaN, 0.03601294, "- N/A -   "
38.85, 1519.46, 0.0648649, NaN, NaN, NaN, 0.03601294, "- N/A -   "
38.86, 1519.82, 0.0648816, NaN, NaN, NaN, 0.03601294, "- N/A -   "
38.87, 1520.298, 0.0648982, NaN, NaN, NaN, 0.0372337, "- N/A -   "
38.88, 1520.77, 0.0649149, NaN, NaN, NaN, 0.0372337, "- N/A -   "
38.89, 1521.13, 0.06492879, NaN, NaN, NaN, 0.0372337, "- N/A -   "
38.9, 1521.49, 0.06494545, NaN, NaN, NaN, 0.0384545, "- N/A -   "
38.91, 1521.97, 0.06495933, NaN, NaN, NaN, 0.0384545, "- N/A -   "
38.92, 1522.56, 0.06497877, NaN, NaN, NaN, 0.0372337, "- N/A -   "
38.93, 1522.92, 0.06499821, NaN, NaN, NaN, 0.03601294, "- N/A -   "
38.94, 1523.4, 0.06501765, NaN, NaN, NaN, 0.03601294, "- N/A -   "
38.95, 1523.76, 0.06503431, NaN, NaN, NaN, 0.03601294, "- N/A -   "
38.96, 1524.35, 0.06505097, NaN, NaN, NaN, 0.0347922, "- N/A -   "
38.97, 1524.95, 0.0650704, NaN, NaN, NaN, 0.0347922, "- N/A -   "
38.98, 1525.19, 0.0650843, NaN, NaN, NaN, 0.0347922, "- N/A -   "
38.99, 1525.66, 0.0651009, NaN, NaN, NaN, 0.0347922, "- N/A -   "
39, 1526.14, 0.06511483, NaN, NaN, NaN, 0.03601294, "- N/A -   "
39.01, 1526.5, 0.06512872, NaN, NaN, NaN, 0.0372337, "- N/A -   "
39.02, 1526.74, 0.0651426, NaN, NaN, NaN, 0.0384545, "- N/A -   "
39.03, 1527.1, 0.06515926, NaN, NaN, NaN, 0.0396753, "- N/A -   "
39.04, 1527.453, 0.06517314, NaN, NaN, NaN, 0.0396753, "- N/A -   "
39.05, 1527.93, 0.06518703, NaN, NaN, NaN, 0.04089605, "- N/A -   "
39.06, 1528.407, 0.06520091, NaN, NaN, NaN, 0.04211683, "- N/A -   "
39.07, 1528.65, 0.0652148, NaN, NaN, NaN, 0.0433376, "- N/A -   "
39.08, 1529.12, 0.06523146, NaN, NaN, NaN, 0.0433376, "- N/A -   "
39.09, 1529.48, 0.06524812, NaN, NaN, NaN, 0.0445584, "- N/A -   "
39.1, 1529.838, 0.065262, NaN, NaN, NaN, 0.0445584, "- N/A -   "
39.11, 1530.43, 0.06527866, NaN, NaN, NaN, 0.0445584, "- N/A -   "
39.12, 1530.67, 0.0652981, NaN, NaN, NaN, 0.0445584, "- N/A -   "
39.13, 1531.269, 0.06531198, NaN, NaN, NaN, 0.0445584, "- N/A -   "
39.14, 1531.75, 0.06532864, NaN, NaN, NaN, 0.0445584, "- N/A -   "
39.15, 1532.1, 0.0653453, NaN, NaN, NaN, 0.0445584, "- N/A -   "
39.16, 1532.7, 0.06536474, NaN, NaN, NaN, 0.0433376, "- N/A -   "
39.17, 1533.18, 0.06538418, NaN, NaN, NaN, 0.04211683, "- N/A -   "
39.18, 1533.77, 0.06540361, NaN, NaN, NaN, 0.04089605, "- N/A -   "
39.19, 1534.37, 0.06542305, NaN, NaN, NaN, 0.0396753, "- N/A -   "
39.2, 1534.85, 0.06544527, NaN, NaN, NaN, 0.0372337, "- N/A -   "
39.21, 1535.32, 0.0654647, NaN, NaN, NaN, 0.03601294, "- N/A -   "
39.22, 1535.92, 0.0654841, NaN, NaN, NaN, 0.0347922, "- N/A -   "
39.23, 1536.64, 0.06550358, NaN, NaN, NaN, 0.0335714, "- N/A -   "
39.24, 1536.99, 0.06552301, NaN, NaN, NaN, 0.0323506, "- N/A -   "
39.25, 1537.59, 0.06554245, NaN, NaN, NaN, 0.0323506, "- N/A -   "
39.26, 1537.95, 0.06556189, NaN, NaN, NaN, 0.03112983, "- N/A -   "
39.27, 1538.54, 0.06557855, NaN, NaN, NaN, 0.0299091, "- N/A -   "
39.28, 1539.02, 0.06559799, NaN, NaN, NaN, 0.0286883, "- N/A -   "
39.29, 1539.5, 0.06561743, NaN, NaN, NaN, 0.0286883, "- N/A -   "
39.3, 1539.97, 0.06563409, NaN, NaN, NaN, 0.0274675, "- N/A -   "
39.31, 1540.45, 0.0656507, NaN, NaN, NaN, 0.0274675, "- N/A -   "
39.32, 1540.81, 0.0656674, NaN, NaN, NaN, 0.0286883, "- N/A -   "
39.33, 1541.29, 0.06568407, NaN, NaN, NaN, 0.0286883, "- N/A -   "
39.34, 1541.76, 0.06569795, NaN, NaN, NaN, 0.0299091, "- N/A -   "
39.35, 1541.88, 0.06571183, NaN, NaN, NaN, 0.0299091, "- N/A -   "
39.36, 1542.36, 0.0657257, NaN, NaN, NaN, 0.03112983, "- N/A -   "
39.37, 1542.72, 0.06574238, NaN, NaN, NaN, 0.0323506, "- N/A -   "
39.38, 1543.19, 0.06575626, NaN, NaN, NaN, 0.0335714, "- N/A -   "
39.39, 1543.43, 0.06577015, NaN, NaN, NaN, 0.0335714, "- N/A -   "
39.4, 1543.91, 0.06578403, NaN, NaN, NaN, 0.0347922, "- N/A -   "
39.41, 1544.27, 0.06580069, NaN, NaN, NaN, 0.0347922, "- N/A -   "
39.42, 1544.63, 0.06581458, NaN, NaN, NaN, 0.03601294, "- N/A -   "
39.43, 1545.1, 0.06583124, NaN, NaN, NaN, 0.03601294, "- N/A -   "
39.44, 1545.58, 0.0658479, NaN, NaN, NaN, 0.03601294, "- N/A -   "
39.45, 1545.937, 0.0658646, NaN, NaN, NaN, 0.03601294, "- N/A -   "
39.46, 1546.53, 0.06588122, NaN, NaN, NaN, 0.03601294, "- N/A -   "
39.47, 1546.891, 0.06589788, NaN, NaN, NaN, 0.03601294, "- N/A -   "
39.48, 1547.368, 0.06591731, NaN, NaN, NaN, 0.03601294, "- N/A -   "
39.49, 1547.96, 0.06593398, NaN, NaN, NaN, 0.0347922, "- N/A -   "
39.5, 1548.44, 0.06595341, NaN, NaN, NaN, 0.0335714, "- N/A -   "
39.51, 1548.92, 0.06597008, NaN, NaN, NaN, 0.0335714, "- N/A -   "
39.52, 1549.51, 0.06598951, NaN, NaN, NaN, 0.0335714, "- N/A -   "
39.53, 1549.99, 0.06600617, NaN, NaN, NaN, 0.0323506, "- N/A -   "
39.54, 1550.35, 0.06602561, NaN, NaN, NaN, 0.03112983, "- N/A -   "
39.55, 1550.95, 0.06604227, NaN, NaN, NaN, 0.03112983, "- N/A -   "
39.56, 1551.3, 0.0660589, NaN, NaN, NaN, 0.03112983, "- N/A -   "
39.57, 1551.78, 0.06607559, NaN, NaN, NaN, 0.03112983, "- N/A -   "
39.58, 1552.14, 0.06608947, NaN, NaN, NaN, 0.0323506, "- N/A -   "
39.59, 1552.5, 0.06610613, NaN, NaN, NaN, 0.0323506, "- N/A -   "
39.6, 1552.97, 0.06612001, NaN, NaN, NaN, 0.0335714, "- N/A -   "
39.61, 1553.45, 0.06613668, NaN, NaN, NaN, 0.0335714, "- N/A -   "
39.62, 1553.81, 0.06615334, NaN, NaN, NaN, 0.0335714, "- N/A -   "
39.63, 1554.17, 0.06616722, NaN, NaN, NaN, 0.0347922, "- N/A -   "
39.64, 1554.64, 0.06618111, NaN, NaN, NaN, 0.03601294, "- N/A -   "
39.65, 1555, 0.06619777, NaN, NaN, NaN, 0.0372337, "- N/A -   "
39.66, 1555.36, 0.06621443, NaN, NaN, NaN, 0.0372337, "- N/A -   "
39.67, 1555.72, 0.06623109, NaN, NaN, NaN, 0.0372337, "- N/A -   "
39.68, 1556.19, 0.06624497, NaN, NaN, NaN, 0.0372337, "- N/A -   "
39.69, 1556.55, 0.0662589, NaN, NaN, NaN, 0.0384545, "- N/A -   "
39.7, 1556.91, 0.0662755, NaN, NaN, NaN, 0.0384545, "- N/A -   "
39.71, 1557.266, 0.0662894, NaN, NaN, NaN, 0.0396753, "- N/A -   "
39.72, 1557.743, 0.06630606, NaN, NaN, NaN, 0.04089605, "- N/A -   "
39.73, 1558.22, 0.06632272, NaN, NaN, NaN, 0.04089605, "- N/A -   "
39.74, 1558.58, 0.0663366, NaN, NaN, NaN, 0.04089605, "- N/A -   "
39.75, 1559.05, 0.06635326, NaN, NaN, NaN, 0.04089605, "- N/A -   "
39.76, 1559.41, 0.0663727, NaN, NaN, NaN, 0.04089605, "- N/A -   "
39.77, 1559.89, 0.06638936, NaN, NaN, NaN, 0.0396753, "- N/A -   "
39.78, 1560.37, 0.06640603, NaN, NaN, NaN, 0.0396753, "- N/A -   "
39.79, 1560.84, 0.0664227, NaN, NaN, NaN, 0.0396753, "- N/A -   "
39.8, 1561.2, 0.0664393, NaN, NaN, NaN, 0.0396753, "- N/A -   "
39.81, 1561.68, 0.066456, NaN, NaN, NaN, 0.0396753, "- N/A -   "
39.82, 1562.16, 0.0664727, NaN, NaN, NaN, 0.04089605, "- N/A -   "
39.83, 1562.63, 0.0664893, NaN, NaN, NaN, 0.04089605, "- N/A -   "
39.84, 1563.11, 0.06650598, NaN, NaN, NaN, 0.04211683, "- N/A -   "
39.85, 1563.467, 0.06651987, NaN, NaN, NaN, 0.04211683, "- N/A -   "
39.86, 1563.82, 0.06653653, NaN, NaN, NaN, 0.04211683, "- N/A -   "
39.87, 1564.3, 0.06655319, NaN, NaN, NaN, 0.04211683, "- N/A -   "
39.88, 1564.78, 0.06656985, NaN, NaN, NaN, 0.04211683, "- N/A -   "
39.89, 1565.14, 0.06658651, NaN, NaN, NaN, 0.0433376, "- N/A -   "
39.9, 1565.61, 0.06660318, NaN, NaN, NaN, 0.04211683, "- N/A -   "
39.91, 1565.97, 0.0666198, NaN, NaN, NaN, 0.04211683, "- N/A -   "
39.92, 1566.69, 0.0666365, NaN, NaN, NaN, 0.04211683, "- N/A -   "
39.93, 1566.93, 0.0666532, NaN, NaN, NaN, 0.04211683, "- N/A -   "
39.94, 1567.4, 0.0666698, NaN, NaN, NaN, 0.04211683, "- N/A -   "
39.95, 1567.88, 0.06668925, NaN, NaN, NaN, 0.04211683, "- N/A -   "
39.96, 1568.36, 0.06670591, NaN, NaN, NaN, 0.04089605, "- N/A -   "
39.97, 1568.95, 0.06672257, NaN, NaN, NaN, 0.04089605, "- N/A -   "
39.98, 1569.31, 0.06674201, NaN, NaN, NaN, 0.0396753, "- N/A -   "
39.99, 1569.79, 0.06676145, NaN, NaN, NaN, 0.0384545, "- N/A -   "
40, 1570.26, 0.06677811, NaN, NaN, NaN, 0.0384545, "- N/A -   "
40.01, 1570.74, 0.06679755, NaN, NaN, NaN, 0.0384545, "- N/A -   "
40.02, 1571.22, 0.06681421, NaN, NaN, NaN, 0.0384545, "- N/A -   "
40.03, 1571.7, 0.0668309, NaN, NaN, NaN, 0.0372337, "- N/A -   "
40.04, 1572.17, 0.0668475, NaN, NaN, NaN, 0.0372337, "- N/A -   "
40.05, 1572.65, 0.0668642, NaN, NaN, NaN, 0.0372337, "- N/A -   "
40.06, 1573.13, 0.06688362, NaN, NaN, NaN, 0.03601294, "- N/A -   "
40.07, 1573.6, 0.06690028, NaN, NaN, NaN, 0.03601294, "- N/A -   "
40.08, 1574.08, 0.06691972, NaN, NaN, NaN, 0.03601294, "- N/A -   "
40.09, 1574.56, 0.0669336, NaN, NaN, NaN, 0.03601294, "- N/A -   "
40.1, 1575.03, 0.06695304, NaN, NaN, NaN, 0.03601294, "- N/A -   "
40.11, 1575.39, 0.06696692, NaN, NaN, NaN, 0.03601294, "- N/A -   "
40.12, 1575.87, 0.06698359, NaN, NaN, NaN, 0.0372337, "- N/A -   "
40.13, 1576.227, 0.0669975, NaN, NaN, NaN, 0.0372337, "- N/A -   "
40.14, 1576.7, 0.06701691, NaN, NaN, NaN, 0.0372337, "- N/A -   "
40.15, 1577.06, 0.06703357, NaN, NaN, NaN, 0.0372337, "- N/A -   "
40.16, 1577.54, 0.06705023, NaN, NaN, NaN, 0.03601294, "- N/A -   "
40.17, 1578.02, 0.0670697, NaN, NaN, NaN, 0.03601294, "- N/A -   "
40.18, 1578.612, 0.06708633, NaN, NaN, NaN, 0.0347922, "- N/A -   "
40.19, 1578.97, 0.06710299, NaN, NaN, NaN, 0.0347922, "- N/A -   "
40.2, 1579.45, 0.06712243, NaN, NaN, NaN, 0.0347922, "- N/A -   "
40.21, 1579.924, 0.06713909, NaN, NaN, NaN, 0.0347922, "- N/A -   "
40.22, 1580.28, 0.06715575, NaN, NaN, NaN, 0.0347922, "- N/A -   "
40.23, 1580.76, 0.06716963, NaN, NaN, NaN, 0.0347922, "- N/A -   "
40.24, 1581.24, 0.06718629, NaN, NaN, NaN, 0.0347922, "- N/A -   "
40.25, 1581.59, 0.06720295, NaN, NaN, NaN, 0.0347922, "- N/A -   "
40.26, 1582.07, 0.06722239, NaN, NaN, NaN, 0.0335714, "- N/A -   "
40.27, 1582.55, 0.067239, NaN, NaN, NaN, 0.0335714, "- N/A -   "
40.28, 1582.91, 0.0672557, NaN, NaN, NaN, 0.0335714, "- N/A -   "
40.29, 1583.5, 0.0672724, NaN, NaN, NaN, 0.0335714, "- N/A -   "
40.3, 1583.86, 0.06728903, NaN, NaN, NaN, 0.0335714, "- N/A -   "
40.31, 1584.34, 0.06730846, NaN, NaN, NaN, 0.0335714, "- N/A -   "
40.32, 1584.81, 0.06732513, NaN, NaN, NaN, 0.0323506, "- N/A -   "
40.33, 1585.29, 0.06734179, NaN, NaN, NaN, 0.0323506, "- N/A -   "
40.34, 1585.77, 0.06735845, NaN, NaN, NaN, 0.0323506, "- N/A -   "
40.35, 1586.125, 0.06737511, NaN, NaN, NaN, 0.0335714, "- N/A -   "
40.36, 1586.36, 0.06738622, NaN, NaN, NaN, 0.0347922, "- N/A -   "
40.37, 1586.84, 0.06740288, NaN, NaN, NaN, 0.0347922, "- N/A -   "
40.38, 1587.2, 0.06741676, NaN, NaN, NaN, 0.0372337, "- N/A -   "
40.39, 1587.68, 0.0674306, NaN, NaN, NaN, 0.0372337, "- N/A -   "
40.4, 1587.91, 0.0674473, NaN, NaN, NaN, 0.0384545, "- N/A -   "
40.41, 1588.39, 0.067464, NaN, NaN, NaN, 0.0384545, "- N/A -   "
40.42, 1588.87, 0.06747785, NaN, NaN, NaN, 0.0384545, "- N/A -   "
40.43, 1589.23, 0.06749451, NaN, NaN, NaN, 0.0396753, "- N/A -   "
40.44, 1589.58, 0.06750839, NaN, NaN, NaN, 0.0396753, "- N/A -   "
40.45, 1589.941, 0.06752505, NaN, NaN, NaN, 0.04089605, "- N/A -   "
40.46, 1590.42, 0.06753894, NaN, NaN, NaN, 0.04089605, "- N/A -   "
40.47, 1590.66, 0.06755282, NaN, NaN, NaN, 0.04211683, "- N/A -   "
40.48, 1591.13, 0.06756671, NaN, NaN, NaN, 0.0433376, "- N/A -   "
40.49, 1591.49, 0.06758337, NaN, NaN, NaN, 0.0433376, "- N/A -   "
40.5, 1591.97, 0.06759725, NaN, NaN, NaN, 0.0445584, "- N/A -   "
40.51, 1592.326, 0.06761391, NaN, NaN, NaN, 0.0445584, "- N/A -   "
40.52, 1592.68, 0.06763057, NaN, NaN, NaN, 0.0445584, "- N/A -   "
40.53, 1593.28, 0.06764723, NaN, NaN, NaN, 0.0445584, "- N/A -   "
40.54, 1593.64, 0.0676611, NaN, NaN, NaN, 0.04577916, "- N/A -   "
40.55, 1594, 0.06767777, NaN, NaN, NaN, 0.04577916, "- N/A -   "
40.56, 1594.59, 0.06769443, NaN, NaN, NaN, 0.04577916, "- N/A -   "
40.57, 1595.07, 0.0677111, NaN, NaN, NaN, 0.04577916, "- N/A -   "
40.58, 1595.55, 0.06773053, NaN, NaN, NaN, 0.0445584, "- N/A -   "
40.59, 1595.9, 0.06774997, NaN, NaN, NaN, 0.0445584, "- N/A -   "
40.6, 1596.5, 0.06776663, NaN, NaN, NaN, 0.0433376, "- N/A -   "
40.61, 1596.98, 0.06778607, NaN, NaN, NaN, 0.0433376, "- N/A -   "
40.62, 1597.454, 0.06780273, NaN, NaN, NaN, 0.04211683, "- N/A -   "
40.63, 1598.05, 0.0678249, NaN, NaN, NaN, 0.04089605, "- N/A -   "
40.64, 1598.65, 0.0678472, NaN, NaN, NaN, 0.0372337, "- N/A -   "
40.65, 1599.12, 0.06786659, NaN, NaN, NaN, 0.03601294, "- N/A -   "
40.66, 1599.6, 0.06788603, NaN, NaN, NaN, 0.0347922, "- N/A -   "
40.67, 1600.2, 0.06790547, NaN, NaN, NaN, 0.0335714, "- N/A -   "
40.68, 1600.67, 0.06792491, NaN, NaN, NaN, 0.0335714, "- N/A -   "
40.69, 1601.15, 0.06794157, NaN, NaN, NaN, 0.0323506, "- N/A -   "
40.7, 1601.747, 0.06795823, NaN, NaN, NaN, 0.0323506, "- N/A -   "
40.71, 1601.99, 0.06797489, NaN, NaN, NaN, 0.0323506, "- N/A -   "
40.72, 1602.58, 0.06799155, NaN, NaN, NaN, 0.0323506, "- N/A -   "
40.73, 1602.94, 0.06800821, NaN, NaN, NaN, 0.0323506, "- N/A -   "
40.74, 1603.3, 0.06802487, NaN, NaN, NaN, 0.0323506, "- N/A -   "
40.75, 1603.77, 0.06804153, NaN, NaN, NaN, 0.0323506, "- N/A -   "
40.76, 1604.132, 0.06805819, NaN, NaN, NaN, 0.0335714, "- N/A -   "
40.77, 1604.609, 0.06807485, NaN, NaN, NaN, 0.0323506, "- N/A -   "
40.772, 1604.73, 0.06807763, NaN, NaN, NaN, 0.0323506, "- N/A -   "