File: 2_Tensile_Data/Hamel_ForceTest_Bolt3_Test1.csv
Time, Load (lb), Position (in), AxialStrain (in), TransverseStrain (in), Auxiliary (), Control Out (V), Stress (psi)
0.0,1.06153,0.0, NaN, NaN, NaN,0.11048," ""- N/A -   """
0.01,1.17947,2.77675e-05, NaN, NaN, NaN,0.106818," ""- N/A -   """
0.02,1.53332,5.83118e-05, NaN, NaN, NaN,0.100714," ""- N/A -   """
0.03,1.65126,8.607931e-05, NaN, NaN, NaN,0.09705182," ""- N/A -   """
0.06,2.12305,0.0001610516, NaN, NaN, NaN,0.084844," ""- N/A -   """
0.09,2.476897,0.0002360239, NaN, NaN, NaN,0.07385705," ""- N/A -   """
0.12,2.94869,0.0002998892, NaN, NaN, NaN,0.06775316," ""- N/A -   """
0.15,3.30253,0.000366531, NaN, NaN, NaN,0.06164927," ""- N/A -   """
0.18,3.774319,0.0004276198, NaN, NaN, NaN,0.05676616," ""- N/A -   """
0.21,4.12816,0.0004942618, NaN, NaN, NaN,0.0482207," ""- N/A -   """
0.24,4.482,0.0005581271, NaN, NaN, NaN,0.04211683," ""- N/A -   """
0.27,4.953794,0.000624769, NaN, NaN, NaN,0.0347922," ""- N/A -   """
0.3,5.18969,0.0006803042, NaN, NaN, NaN,0.0323506," ""- N/A -   """
0.33,5.66148,0.000735839, NaN, NaN, NaN,0.03112983," ""- N/A -   """
0.36,5.897373,0.000785821, NaN, NaN, NaN,0.0299091," ""- N/A -   """
0.39,6.13327,0.0008302488, NaN, NaN, NaN,0.0323506," ""- N/A -   """
0.42,6.487111,0.0008746768, NaN, NaN, NaN,0.0347922," ""- N/A -   """
0.45,6.723006,0.0009246584, NaN, NaN, NaN,0.0347922," ""- N/A -   """
0.48,7.07685,0.0009746399, NaN, NaN, NaN,0.03601294," ""- N/A -   """
0.51,7.312743,0.00102184, NaN, NaN, NaN,0.0372337," ""- N/A -   """
0.54,7.548638,0.00106905, NaN, NaN, NaN,0.0372337," ""- N/A -   """
0.57,7.90248,0.00112181, NaN, NaN, NaN,0.03601294," ""- N/A -   """
0.6,8.256323,0.00116901, NaN, NaN, NaN,0.0372337," ""- N/A -   """
0.63,8.492218,0.00121344, NaN, NaN, NaN,0.0396753," ""- N/A -   """
0.66,8.846061,0.00125787, NaN, NaN, NaN,0.0433376," ""- N/A -   """
0.69,9.199903,0.00130785, NaN, NaN, NaN,0.0433376," ""- N/A -   """
0.72,9.435798,0.00135783, NaN, NaN, NaN,0.0433376," ""- N/A -   """
0.75,9.78964,0.00140504, NaN, NaN, NaN,0.0433376," ""- N/A -   """
0.78,10.1435,0.00145779, NaN, NaN, NaN,0.0433376," ""- N/A -   """
0.81,10.4973,0.00151611, NaN, NaN, NaN,0.0384545," ""- N/A -   """
0.84,10.8512,0.00157442, NaN, NaN, NaN,0.0347922," ""- N/A -   """
0.87,11.205,0.00162718, NaN, NaN, NaN,0.0335714," ""- N/A -   """
0.9,11.5589,0.00167993, NaN, NaN, NaN,0.0335714," ""- N/A -   """
0.93,11.9127,0.00172992, NaN, NaN, NaN,0.0335714," ""- N/A -   """
0.96,12.14859,0.00177712, NaN, NaN, NaN,0.0335714," ""- N/A -   """
0.99,12.5024,0.00182433, NaN, NaN, NaN,0.0347922," ""- N/A -   """
1.02,12.8563,0.00187431, NaN, NaN, NaN,0.0347922," ""- N/A -   """
1.05,13.09217,0.001924289, NaN, NaN, NaN,0.03601294," ""- N/A -   """
1.08,13.446,0.00197149, NaN, NaN, NaN,0.03601294," ""- N/A -   """
1.11,13.6819,0.002024252, NaN, NaN, NaN,0.0347922," ""- N/A -   """
1.14,14.1537,0.00207423, NaN, NaN, NaN,0.0347922," ""- N/A -   """
1.17,14.5075,0.00212977, NaN, NaN, NaN,0.0335714," ""- N/A -   """
1.2,14.6255,0.00217697, NaN, NaN, NaN,0.0347922," ""- N/A -   """
1.23,15.0973,0.0022214, NaN, NaN, NaN,0.03601294," ""- N/A -   """
1.26,15.3332,0.00226861, NaN, NaN, NaN,0.0384545," ""- N/A -   """
1.29,15.5691,0.002315811, NaN, NaN, NaN,0.0384545," ""- N/A -   """
1.32,15.9229,0.002363016, NaN, NaN, NaN,0.0396753," ""- N/A -   """
1.35,16.3947,0.00241577, NaN, NaN, NaN,0.0384545," ""- N/A -   """
1.38,16.6306,0.002462979, NaN, NaN, NaN,0.0396753," ""- N/A -   """
1.41,17.1024,0.00251574, NaN, NaN, NaN,0.0396753," ""- N/A -   """
1.44,17.2203,0.002562942, NaN, NaN, NaN,0.0396753," ""- N/A -   """
1.47,17.4562,0.0026157, NaN, NaN, NaN,0.0384545," ""- N/A -   """
1.5,17.928,0.00266846, NaN, NaN, NaN,0.0372337," ""- N/A -   """
1.53,18.2819,0.00272122, NaN, NaN, NaN,0.0372337," ""- N/A -   """
1.56,18.6357,0.0027712, NaN, NaN, NaN,0.03601294," ""- N/A -   """
1.59,18.9895,0.00282118, NaN, NaN, NaN,0.03601294," ""- N/A -   """
1.62,19.2254,0.00286838, NaN, NaN, NaN,0.0372337," ""- N/A -   """
1.65,19.57928,0.00292114, NaN, NaN, NaN,0.03601294," ""- N/A -   """
1.68,20.169,0.00297668, NaN, NaN, NaN,0.0335714," ""- N/A -   """
1.71,20.287,0.003032213, NaN, NaN, NaN,0.03112983," ""- N/A -   """
1.74,20.7588,0.00308219, NaN, NaN, NaN,0.03112983," ""- N/A -   """
1.77,20.99465,0.00313218, NaN, NaN, NaN,0.03112983," ""- N/A -   """
1.8,21.3485,0.003179381, NaN, NaN, NaN,0.0323506," ""- N/A -   """
1.83,21.7023,0.00322936, NaN, NaN, NaN,0.0323506," ""- N/A -   """
1.86,21.93823,0.00327657, NaN, NaN, NaN,0.0335714," ""- N/A -   """
1.89,22.1741,0.003323772, NaN, NaN, NaN,0.0347922," ""- N/A -   """
1.92,22.6459,0.00337653, NaN, NaN, NaN,0.0335714," ""- N/A -   """
1.95,22.88181,0.00342929, NaN, NaN, NaN,0.0335714," ""- N/A -   """
1.98,23.2357,0.00347649, NaN, NaN, NaN,0.0347922," ""- N/A -   """
2.01,23.5895,0.00351814, NaN, NaN, NaN,0.0372337," ""- N/A -   """
2.04,23.82539,0.00356535, NaN, NaN, NaN,0.0384545," ""- N/A -   """
2.07,24.1792,0.00361255, NaN, NaN, NaN,0.0396753," ""- N/A -   """
2.1,24.5331,0.003659759, NaN, NaN, NaN,0.04089605," ""- N/A -   """
2.13,24.769,0.00370696, NaN, NaN, NaN,0.04211683," ""- N/A -   """
2.16,25.0049,0.00375695, NaN, NaN, NaN,0.04211683," ""- N/A -   """
2.19,25.3587,0.00380693, NaN, NaN, NaN,0.04211683," ""- N/A -   """
2.22,25.7125,0.003862462, NaN, NaN, NaN,0.0396753," ""- N/A -   """
2.25,25.9484,0.003917997, NaN, NaN, NaN,0.0372337," ""- N/A -   """
2.28,26.4202,0.003973532, NaN, NaN, NaN,0.0347922," ""- N/A -   """
2.31,26.7741,0.00402629, NaN, NaN, NaN,0.0347922," ""- N/A -   """
2.34,27.01,0.004073495, NaN, NaN, NaN,0.0347922," ""- N/A -   """
2.37,27.2459,0.004123477, NaN, NaN, NaN,0.0347922," ""- N/A -   """
2.4,27.5997,0.004176235, NaN, NaN, NaN,0.0347922," ""- N/A -   """
2.43,27.95355,0.004226216, NaN, NaN, NaN,0.0335714," ""- N/A -   """
2.46,28.3074,0.00427897, NaN, NaN, NaN,0.0323506," ""- N/A -   """
2.49,28.6612,0.00433451, NaN, NaN, NaN,0.03112983," ""- N/A -   """
2.52,28.89713,0.004384491, NaN, NaN, NaN,0.0299091," ""- N/A -   """
2.55,29.251,0.004434473, NaN, NaN, NaN,0.0299091," ""- N/A -   """
2.58,29.6048,0.0044789, NaN, NaN, NaN,0.0323506," ""- N/A -   """
2.61,29.84071,0.00452611, NaN, NaN, NaN,0.0347922," ""- N/A -   """
2.64,30.0766,0.00457053, NaN, NaN, NaN,0.03601294," ""- N/A -   """
2.67,30.3125,0.00461774, NaN, NaN, NaN,0.0372337," ""- N/A -   """
2.7,30.5484,0.00466217, NaN, NaN, NaN,0.0396753," ""- N/A -   """
2.73,30.9022,0.00470382, NaN, NaN, NaN,0.0433376," ""- N/A -   """
2.76,31.2561,0.00475102, NaN, NaN, NaN,0.0445584," ""- N/A -   """
2.79,31.492,0.00479545, NaN, NaN, NaN,0.04699994," ""- N/A -   """
2.82,31.72787,0.00485099, NaN, NaN, NaN,0.04577916," ""- N/A -   """
2.85,32.08171,0.00490652, NaN, NaN, NaN,0.0433376," ""- N/A -   """
2.88,32.4356,0.00496206, NaN, NaN, NaN,0.0396753," ""- N/A -   """
2.91,32.67145,0.005017591, NaN, NaN, NaN,0.0372337," ""- N/A -   """
2.94,33.1432,0.00507313, NaN, NaN, NaN,0.0347922," ""- N/A -   """
2.97,33.3791,0.00512588, NaN, NaN, NaN,0.0335714," ""- N/A -   """
3,33.73298,0.00517864, NaN, NaN, NaN,0.0323506," ""- N/A -   """
3.03,34.08682,0.005231401, NaN, NaN, NaN,0.0323506," ""- N/A -   """
3.06,34.4407,0.005284159, NaN, NaN, NaN,0.0299091," ""- N/A -   """
3.09,34.7945,0.00533969, NaN, NaN, NaN,0.0274675," ""- N/A -   """
3.12,35.1483,0.005395229, NaN, NaN, NaN,0.0262467," ""- N/A -   """
3.15,35.3842,0.00544243, NaN, NaN, NaN,0.0274675," ""- N/A -   """
3.18,35.6201,0.005489638, NaN, NaN, NaN,0.0274675," ""- N/A -   """
3.21,35.97398,0.00553684, NaN, NaN, NaN,0.0299091," ""- N/A -   """
3.24,36.2099,0.005578494, NaN, NaN, NaN,0.0323506," ""- N/A -   """
3.27,36.44577,0.005622922, NaN, NaN, NaN,0.03601294," ""- N/A -   """
3.3,36.6817,0.00566457, NaN, NaN, NaN,0.0384545," ""- N/A -   """
3.33,37.0355,0.005709002, NaN, NaN, NaN,0.04089605," ""- N/A -   """
3.36,37.2714,0.005756206, NaN, NaN, NaN,0.0433376," ""- N/A -   """
3.39,37.6252,0.00580341, NaN, NaN, NaN,0.0433376," ""- N/A -   """
3.42,37.9791,0.00585617, NaN, NaN, NaN,0.04211683," ""- N/A -   """
3.45,38.3329,0.00590615, NaN, NaN, NaN,0.0433376," ""- N/A -   """
3.48,38.68677,0.00595891, NaN, NaN, NaN,0.04211683," ""- N/A -   """
3.51,39.15856,0.006006114, NaN, NaN, NaN,0.0433376," ""- N/A -   """
3.54,39.3945,0.006056096, NaN, NaN, NaN,0.0433376," ""- N/A -   """
3.57,39.8662,0.00611163, NaN, NaN, NaN,0.04089605," ""- N/A -   """
3.6,40.22009,0.006167166, NaN, NaN, NaN,0.0384545," ""- N/A -   """
3.63,40.69188,0.006228254, NaN, NaN, NaN,0.0335714," ""- N/A -   """
3.66,41.16367,0.006286566, NaN, NaN, NaN,0.0299091," ""- N/A -   """
3.69,41.51751,0.006336548, NaN, NaN, NaN,0.0299091," ""- N/A -   """
3.72,41.8714,0.006380976, NaN, NaN, NaN,0.0323506," ""- N/A -   """
3.75,42.4611,0.006433734, NaN, NaN, NaN,0.0323506," ""- N/A -   """
3.78,42.93288,0.006483716, NaN, NaN, NaN,0.03112983," ""- N/A -   """
3.81,43.40467,0.00653092, NaN, NaN, NaN,0.0323506," ""- N/A -   """
3.84,43.87646,0.0065809, NaN, NaN, NaN,0.0335714," ""- N/A -   """
3.87,44.34825,0.006622554, NaN, NaN, NaN,0.03601294," ""- N/A -   """
3.9,44.70209,0.00666698, NaN, NaN, NaN,0.0384545," ""- N/A -   """
3.93,45.29183,0.00671696, NaN, NaN, NaN,0.0396753," ""- N/A -   """
3.96,45.76362,0.006766944, NaN, NaN, NaN,0.0384545," ""- N/A -   """
3.99,46.3534,0.006816926, NaN, NaN, NaN,0.0384545," ""- N/A -   """
4.02,46.8251,0.00686413, NaN, NaN, NaN,0.0396753," ""- N/A -   """
4.05,47.4149,0.00691411, NaN, NaN, NaN,0.0396753," ""- N/A -   """
4.08,48.00462,0.006961317, NaN, NaN, NaN,0.04089605," ""- N/A -   """
4.11,48.59436,0.0070113, NaN, NaN, NaN,0.04089605," ""- N/A -   """
4.14,49.1841,0.00706406, NaN, NaN, NaN,0.04089605," ""- N/A -   """
4.17,49.7738,0.00711404, NaN, NaN, NaN,0.04089605," ""- N/A -   """
4.2,50.3636,0.0071668, NaN, NaN, NaN,0.0384545," ""- N/A -   """
4.23,51.0713,0.007222332, NaN, NaN, NaN,0.0372337," ""- N/A -   """
4.26,51.7789,0.007277867, NaN, NaN, NaN,0.0347922," ""- N/A -   """
4.29,52.36868,0.007333402, NaN, NaN, NaN,0.03112983," ""- N/A -   """
4.32,53.19431,0.007388937, NaN, NaN, NaN,0.0299091," ""- N/A -   """
4.35,53.784,0.00743892, NaN, NaN, NaN,0.0286883," ""- N/A -   """
4.38,54.2558,0.007480569, NaN, NaN, NaN,0.0323506," ""- N/A -   """
4.41,54.7276,0.00752222, NaN, NaN, NaN,0.03601294," ""- N/A -   """
4.44,55.1994,0.00756387, NaN, NaN, NaN,0.0396753," ""- N/A -   """
4.47,55.6712,0.0076083, NaN, NaN, NaN,0.04211683," ""- N/A -   """
4.5,56.37889,0.007655505, NaN, NaN, NaN,0.0433376," ""- N/A -   """
4.53,57.08658,0.007705487, NaN, NaN, NaN,0.0433376," ""- N/A -   """
4.56,57.79426,0.007763799, NaN, NaN, NaN,0.04089605," ""- N/A -   """
4.59,58.384,0.00782211, NaN, NaN, NaN,0.03601294," ""- N/A -   """
4.62,59.0917,0.007872092, NaN, NaN, NaN,0.03601294," ""- N/A -   """
4.65,59.68142,0.007922073, NaN, NaN, NaN,0.03601294," ""- N/A -   """
4.68,60.27116,0.007966501, NaN, NaN, NaN,0.0384545," ""- N/A -   """
4.71,60.8609,0.008010929, NaN, NaN, NaN,0.04211683," ""- N/A -   """
4.74,61.3327,0.008055357, NaN, NaN, NaN,0.0433376," ""- N/A -   """
4.77,62.1583,0.008110893, NaN, NaN, NaN,0.04089605," ""- N/A -   """
4.8,62.98395,0.008169204, NaN, NaN, NaN,0.0384545," ""- N/A -   """
4.83,63.6916,0.00822196, NaN, NaN, NaN,0.0372337," ""- N/A -   """
4.86,64.28137,0.008271944, NaN, NaN, NaN,0.03601294," ""- N/A -   """
4.89,64.98906,0.008324701, NaN, NaN, NaN,0.03601294," ""- N/A -   """
4.92,65.81469,0.008374684, NaN, NaN, NaN,0.0347922," ""- N/A -   """
4.95,66.52237,0.008427442, NaN, NaN, NaN,0.0335714," ""- N/A -   """
4.98,67.1121,0.008477423, NaN, NaN, NaN,0.0335714," ""- N/A -   """
5.01,67.81979,0.008530182, NaN, NaN, NaN,0.0323506," ""- N/A -   """
5.04,68.40953,0.008577387, NaN, NaN, NaN,0.0347922," ""- N/A -   """
5.07,69.11722,0.008627368, NaN, NaN, NaN,0.0347922," ""- N/A -   """
5.1,69.8249,0.008674573, NaN, NaN, NaN,0.0347922," ""- N/A -   """
5.13,70.5326,0.008727332, NaN, NaN, NaN,0.0347922," ""- N/A -   """
5.16,71.12233,0.008777313, NaN, NaN, NaN,0.0347922," ""- N/A -   """
5.19,71.83001,0.008827294, NaN, NaN, NaN,0.0347922," ""- N/A -   """
5.22,72.5377,0.00887728, NaN, NaN, NaN,0.0335714," ""- N/A -   """
5.25,73.12743,0.008927258, NaN, NaN, NaN,0.0335714," ""- N/A -   """
5.28,73.71717,0.008971686, NaN, NaN, NaN,0.03601294," ""- N/A -   """
5.31,74.5428,0.009021668, NaN, NaN, NaN,0.03601294," ""- N/A -   """
5.34,75.13254,0.009074425, NaN, NaN, NaN,0.0347922," ""- N/A -   """
5.37,75.8402,0.009124407, NaN, NaN, NaN,0.0347922," ""- N/A -   """
5.4,76.31202,0.009168834, NaN, NaN, NaN,0.0372337," ""- N/A -   """
5.43,77.0197,0.009216039, NaN, NaN, NaN,0.0384545," ""- N/A -   """
5.46,77.72738,0.009263244, NaN, NaN, NaN,0.0396753," ""- N/A -   """
5.49,78.31712,0.009313226, NaN, NaN, NaN,0.04089605," ""- N/A -   """
5.52,79.0248,0.00936043, NaN, NaN, NaN,0.04089605," ""- N/A -   """
5.55,79.61454,0.009404859, NaN, NaN, NaN,0.0433376," ""- N/A -   """
5.58,80.0863,0.00945484, NaN, NaN, NaN,0.0433376," ""- N/A -   """
5.61,80.912,0.009507598, NaN, NaN, NaN,0.0433376," ""- N/A -   """
5.64,81.7376,0.009563134, NaN, NaN, NaN,0.04089605," ""- N/A -   """
5.67,82.32734,0.009621446, NaN, NaN, NaN,0.03601294," ""- N/A -   """
5.7,83.15297,0.009679758, NaN, NaN, NaN,0.0323506," ""- N/A -   """
5.73,83.6248,0.009732516, NaN, NaN, NaN,0.03112983," ""- N/A -   """
5.76,84.33244,0.009782498, NaN, NaN, NaN,0.0323506," ""- N/A -   """
5.79,84.80424,0.009829702, NaN, NaN, NaN,0.0323506," ""- N/A -   """
5.82,85.276,0.009879684, NaN, NaN, NaN,0.0335714," ""- N/A -   """
5.85,85.9837,0.009932442, NaN, NaN, NaN,0.03112983," ""- N/A -   """
5.88,86.69139,0.009987976, NaN, NaN, NaN,0.0299091," ""- N/A -   """
5.91,87.16318,0.010038, NaN, NaN, NaN,0.0286883," ""- N/A -   """
5.94,87.75292,0.0100907, NaN, NaN, NaN,0.0274675," ""- N/A -   """
5.97,88.4606,0.0101407, NaN, NaN, NaN,0.0286883," ""- N/A -   """
6,88.9324,0.0101879, NaN, NaN, NaN,0.0299091," ""- N/A -   """
6.03,89.52213,0.01023233, NaN, NaN, NaN,0.03112983," ""- N/A -   """
6.06,89.99392,0.010274, NaN, NaN, NaN,0.03601294," ""- N/A -   """
6.09,90.22981,0.0103129, NaN, NaN, NaN,0.0396753," ""- N/A -   """
6.12,90.9375,0.0103573, NaN, NaN, NaN,0.04211683," ""- N/A -   """
6.15,91.2913,0.0104017, NaN, NaN, NaN,0.0445584," ""- N/A -   """
6.18,91.88108,0.0104461, NaN, NaN, NaN,0.0482207," ""- N/A -   """
6.21,92.47082,0.0104933, NaN, NaN, NaN,0.0482207," ""- N/A -   """
6.24,92.94261,0.01054888, NaN, NaN, NaN,0.04699994," ""- N/A -   """
6.27,93.76824,0.01061, NaN, NaN, NaN,0.04211683," ""- N/A -   """
6.3,94.59387,0.0106683, NaN, NaN, NaN,0.0372337," ""- N/A -   """
6.33,95.18361,0.010721, NaN, NaN, NaN,0.03601294," ""- N/A -   """
6.36,95.8913,0.0107766, NaN, NaN, NaN,0.0335714," ""- N/A -   """
6.39,96.71693,0.0108321, NaN, NaN, NaN,0.03112983," ""- N/A -   """
6.42,97.18872,0.0108821, NaN, NaN, NaN,0.0323506," ""- N/A -   """
6.45,97.8964,0.0109293, NaN, NaN, NaN,0.0323506," ""- N/A -   """
6.48,98.72203,0.0109821, NaN, NaN, NaN,0.03112983," ""- N/A -   """
6.51,99.3118,0.011032, NaN, NaN, NaN,0.03112983," ""- N/A -   """
6.54,100.019,0.011082, NaN, NaN, NaN,0.03112983," ""- N/A -   """
6.57,100.845,0.0111348, NaN, NaN, NaN,0.03112983," ""- N/A -   """
6.6,101.789,0.0111875, NaN, NaN, NaN,0.0286883," ""- N/A -   """
6.63,102.6143,0.0112375, NaN, NaN, NaN,0.0299091," ""- N/A -   """
6.66,103.204,0.0112792, NaN, NaN, NaN,0.0335714," ""- N/A -   """
6.69,103.912,0.0113208, NaN, NaN, NaN,0.03601294," ""- N/A -   """
6.72,104.619,0.011368, NaN, NaN, NaN,0.0384545," ""- N/A -   """
6.75,105.445,0.0114097, NaN, NaN, NaN,0.04089605," ""- N/A -   """
6.78,106.271,0.0114569, NaN, NaN, NaN,0.04211683," ""- N/A -   """
6.81,106.978,0.0115041, NaN, NaN, NaN,0.0433376," ""- N/A -   """
6.84,108.04,0.0115568, NaN, NaN, NaN,0.0433376," ""- N/A -   """
6.87,108.983,0.0116096, NaN, NaN, NaN,0.04211683," ""- N/A -   """
6.9,109.8091,0.0116568, NaN, NaN, NaN,0.04211683," ""- N/A -   """
6.93,110.871,0.0117096, NaN, NaN, NaN,0.04089605," ""- N/A -   """
6.96,111.696,0.0117623, NaN, NaN, NaN,0.0396753," ""- N/A -   """
6.99,112.758,0.0118151, NaN, NaN, NaN,0.0384545," ""- N/A -   """
7.02,113.819,0.0118706, NaN, NaN, NaN,0.03601294," ""- N/A -   """
7.05,114.999,0.0119317, NaN, NaN, NaN,0.0323506," ""- N/A -   """
7.08,115.942,0.0119872, NaN, NaN, NaN,0.0286883," ""- N/A -   """
7.11,116.886,0.01204, NaN, NaN, NaN,0.0274675," ""- N/A -   """
7.14,117.712,0.01209, NaN, NaN, NaN,0.0274675," ""- N/A -   """
7.17,118.537,0.0121372, NaN, NaN, NaN,0.0286883," ""- N/A -   """
7.2,119.363,0.0121844, NaN, NaN, NaN,0.0299091," ""- N/A -   """
7.23,120.188,0.0122316, NaN, NaN, NaN,0.03112983," ""- N/A -   """
7.26,121.132,0.0122788, NaN, NaN, NaN,0.0323506," ""- N/A -   """
7.29,121.722,0.0123232, NaN, NaN, NaN,0.0347922," ""- N/A -   """
7.32,122.547,0.01237043, NaN, NaN, NaN,0.03601294," ""- N/A -   """
7.35,123.491,0.0124204, NaN, NaN, NaN,0.03601294," ""- N/A -   """
7.38,124.317,0.0124676, NaN, NaN, NaN,0.0372337," ""- N/A -   """
7.41,125.26,0.0125204, NaN, NaN, NaN,0.03601294," ""- N/A -   """
7.44,126.086,0.01256758, NaN, NaN, NaN,0.0372337," ""- N/A -   """
7.47,126.911,0.012612, NaN, NaN, NaN,0.0396753," ""- N/A -   """
7.5,127.619,0.0126564, NaN, NaN, NaN,0.0433376," ""- N/A -   """
7.53,128.4448,0.0127009, NaN, NaN, NaN,0.0445584," ""- N/A -   """
7.56,129.27,0.0127481, NaN, NaN, NaN,0.04699994," ""- N/A -   """
7.59,130.214,0.012798, NaN, NaN, NaN,0.04577916," ""- N/A -   """
7.62,131.276,0.0128564, NaN, NaN, NaN,0.04211683," ""- N/A -   """
7.65,132.455,0.01291745, NaN, NaN, NaN,0.0372337," ""- N/A -   """
7.68,133.517,0.0129758, NaN, NaN, NaN,0.0347922," ""- N/A -   """
7.71,134.46,0.01302852, NaN, NaN, NaN,0.0323506," ""- N/A -   """
7.74,135.4037,0.0130841, NaN, NaN, NaN,0.03112983," ""- N/A -   """
7.77,136.347,0.0131368, NaN, NaN, NaN,0.0299091," ""- N/A -   """
7.8,137.173,0.0131812, NaN, NaN, NaN,0.03112983," ""- N/A -   """
7.83,137.8806,0.01322567, NaN, NaN, NaN,0.0335714," ""- N/A -   """
7.86,138.588,0.0132701, NaN, NaN, NaN,0.03601294," ""- N/A -   """
7.89,139.414,0.0133173, NaN, NaN, NaN,0.0384545," ""- N/A -   """
7.92,140.475,0.01337006, NaN, NaN, NaN,0.03601294," ""- N/A -   """
7.95,141.537,0.0134256, NaN, NaN, NaN,0.0335714," ""- N/A -   """
7.98,142.481,0.0134811, NaN, NaN, NaN,0.0323506," ""- N/A -   """
8.01,143.424,0.0135311, NaN, NaN, NaN,0.03112983," ""- N/A -   """
8.04,144.25,0.0135783, NaN, NaN, NaN,0.0335714," ""- N/A -   """
8.07,144.8395,0.0136227, NaN, NaN, NaN,0.0372337," ""- N/A -   """
8.1,145.665,0.0136644, NaN, NaN, NaN,0.04089605," ""- N/A -   """
8.13,146.255,0.013706, NaN, NaN, NaN,0.0433376," ""- N/A -   """
8.16,147.198,0.013756, NaN, NaN, NaN,0.0433376," ""- N/A -   """
8.19,148.26,0.0138116, NaN, NaN, NaN,0.04211683," ""- N/A -   """
8.22,149.204,0.0138671, NaN, NaN, NaN,0.0384545," ""- N/A -   """
8.25,150.265,0.0139143, NaN, NaN, NaN,0.0396753," ""- N/A -   """
8.28,151.091,0.0139671, NaN, NaN, NaN,0.0384545," ""- N/A -   """
8.31,152.034,0.0140198, NaN, NaN, NaN,0.0372337," ""- N/A -   """
8.34,152.978,0.0140726, NaN, NaN, NaN,0.03601294," ""- N/A -   """
8.37,153.921,0.0141281, NaN, NaN, NaN,0.0347922," ""- N/A -   """
8.4,154.747,0.0141725, NaN, NaN, NaN,0.03601294," ""- N/A -   """
8.43,155.691,0.0142225, NaN, NaN, NaN,0.0372337," ""- N/A -   """
8.46,156.398,0.0142697, NaN, NaN, NaN,0.0372337," ""- N/A -   """
8.49,157.224,0.0143197, NaN, NaN, NaN,0.0372337," ""- N/A -   """
8.52,158.403,0.014378, NaN, NaN, NaN,0.0335714," ""- N/A -   """
8.55,159.465,0.014428, NaN, NaN, NaN,0.0335714," ""- N/A -   """
8.58,160.2906,0.0144808, NaN, NaN, NaN,0.0323506," ""- N/A -   """
8.61,161.234,0.0145307, NaN, NaN, NaN,0.0323506," ""- N/A -   """
8.64,162.178,0.0145835, NaN, NaN, NaN,0.03112983," ""- N/A -   """
8.67,163.121,0.0146335, NaN, NaN, NaN,0.03112983," ""- N/A -   """
8.7,163.947,0.0146807, NaN, NaN, NaN,0.0323506," ""- N/A -   """
8.73,164.891,0.0147334, NaN, NaN, NaN,0.0323506," ""- N/A -   """
8.76,165.7162,0.0147807, NaN, NaN, NaN,0.0323506," ""- N/A -   """
8.79,166.424,0.0148279, NaN, NaN, NaN,0.0335714," ""- N/A -   """
8.82,167.25,0.0148723, NaN, NaN, NaN,0.03601294," ""- N/A -   """
8.85,168.075,0.0149167, NaN, NaN, NaN,0.0396753," ""- N/A -   """
8.88,168.901,0.0149611, NaN, NaN, NaN,0.04089605," ""- N/A -   """
8.91,169.608,0.0150083, NaN, NaN, NaN,0.04211683," ""- N/A -   """
8.94,170.552,0.0150555, NaN, NaN, NaN,0.0445584," ""- N/A -   """
8.97,171.496,0.0151028, NaN, NaN, NaN,0.04577916," ""- N/A -   """
9,172.321,0.0151527, NaN, NaN, NaN,0.0445584," ""- N/A -   """
9.03,173.265,0.0152055, NaN, NaN, NaN,0.0433376," ""- N/A -   """
9.06,174.4443,0.0152638, NaN, NaN, NaN,0.04089605," ""- N/A -   """
9.09,175.624,0.0153221, NaN, NaN, NaN,0.03601294," ""- N/A -   """
9.12,176.6853,0.0153777, NaN, NaN, NaN,0.0335714," ""- N/A -   """
9.15,177.747,0.01543041, NaN, NaN, NaN,0.0323506," ""- N/A -   """
9.18,178.572,0.0154804, NaN, NaN, NaN,0.0323506," ""- N/A -   """
9.21,179.3981,0.0155276, NaN, NaN, NaN,0.0335714," ""- N/A -   """
9.24,180.106,0.015572, NaN, NaN, NaN,0.03601294," ""- N/A -   """
9.27,181.049,0.015622, NaN, NaN, NaN,0.03601294," ""- N/A -   """
9.3,182.1109,0.0156803, NaN, NaN, NaN,0.0335714," ""- N/A -   """
9.33,183.29,0.0157359, NaN, NaN, NaN,0.0299091," ""- N/A -   """
9.36,184.234,0.0157886, NaN, NaN, NaN,0.0286883," ""- N/A -   """
9.39,185.06,0.0158358, NaN, NaN, NaN,0.0299091," ""- N/A -   """
9.42,185.885,0.0158858, NaN, NaN, NaN,0.03112983," ""- N/A -   """
9.45,186.711,0.0159274, NaN, NaN, NaN,0.0347922," ""- N/A -   """
9.48,187.419,0.0159691, NaN, NaN, NaN,0.0372337," ""- N/A -   """
9.51,188.1262,0.0160108, NaN, NaN, NaN,0.04089605," ""- N/A -   """
9.54,188.952,0.01605518, NaN, NaN, NaN,0.0433376," ""- N/A -   """
9.57,189.895,0.0161052, NaN, NaN, NaN,0.0433376," ""- N/A -   """
9.6,190.721,0.0161524, NaN, NaN, NaN,0.0445584," ""- N/A -   """
9.63,191.7826,0.0162023, NaN, NaN, NaN,0.0445584," ""- N/A -   """
9.66,192.726,0.0162551, NaN, NaN, NaN,0.0433376," ""- N/A -   """
9.69,193.906,0.0163134, NaN, NaN, NaN,0.04089605," ""- N/A -   """
9.72,194.967,0.016369, NaN, NaN, NaN,0.0372337," ""- N/A -   """
9.75,195.911,0.0164217, NaN, NaN, NaN,0.0372337," ""- N/A -   """
9.78,196.854,0.0164717, NaN, NaN, NaN,0.03601294," ""- N/A -   """
9.81,197.798,0.0165217, NaN, NaN, NaN,0.03601294," ""- N/A -   """
9.84,198.624,0.0165689, NaN, NaN, NaN,0.0372337," ""- N/A -   """
9.87,199.567,0.0166216, NaN, NaN, NaN,0.03601294," ""- N/A -   """
9.9,200.865,0.0166855, NaN, NaN, NaN,0.03112983," ""- N/A -   """
9.93,201.808,0.01673826, NaN, NaN, NaN,0.0286883," ""- N/A -   """
9.96,202.7517,0.0167882, NaN, NaN, NaN,0.0299091," ""- N/A -   """
9.99,203.695,0.016841, NaN, NaN, NaN,0.0274675," ""- N/A -   """
10.02,204.639,0.016891, NaN, NaN, NaN,0.0274675," ""- N/A -   """
10.05,205.465,0.0169382, NaN, NaN, NaN,0.0286883," ""- N/A -   """
10.08,206.408,0.0169826, NaN, NaN, NaN,0.03112983," ""- N/A -   """
10.11,206.9978,0.0170243, NaN, NaN, NaN,0.0347922," ""- N/A -   """
10.14,207.941,0.0170687, NaN, NaN, NaN,0.0372337," ""- N/A -   """
10.17,208.531,0.0171103, NaN, NaN, NaN,0.04089605," ""- N/A -   """
10.2,209.475,0.01715755, NaN, NaN, NaN,0.04211683," ""- N/A -   """
10.23,210.3,0.0172048, NaN, NaN, NaN,0.0433376," ""- N/A -   """
10.26,211.362,0.0172575, NaN, NaN, NaN,0.04211683," ""- N/A -   """
10.29,212.305,0.0173075, NaN, NaN, NaN,0.0433376," ""- N/A -   """
10.32,213.131,0.0173547, NaN, NaN, NaN,0.0433376," ""- N/A -   """
10.35,214.1926,0.0174047, NaN, NaN, NaN,0.0433376," ""- N/A -   """
10.38,215.018,0.0174547, NaN, NaN, NaN,0.0433376," ""- N/A -   """
10.41,216.198,0.0175102, NaN, NaN, NaN,0.04089605," ""- N/A -   """
10.44,217.259,0.01756851, NaN, NaN, NaN,0.0384545," ""- N/A -   """
10.47,218.557,0.0176296, NaN, NaN, NaN,0.0323506," ""- N/A -   """
10.5,219.5,0.0176851, NaN, NaN, NaN,0.0299091," ""- N/A -   """
10.53,220.444,0.0177379, NaN, NaN, NaN,0.0286883," ""- N/A -   """
10.56,221.387,0.0177851, NaN, NaN, NaN,0.0299091," ""- N/A -   """
10.59,222.213,0.0178323, NaN, NaN, NaN,0.03112983," ""- N/A -   """
10.62,223.039,0.0178795, NaN, NaN, NaN,0.0323506," ""- N/A -   """
10.65,223.982,0.0179239, NaN, NaN, NaN,0.0347922," ""- N/A -   """
10.68,224.69,0.0179684, NaN, NaN, NaN,0.0372337," ""- N/A -   """
10.71,225.516,0.0180156, NaN, NaN, NaN,0.0384545," ""- N/A -   """
10.74,226.577,0.0180683, NaN, NaN, NaN,0.0372337," ""- N/A -   """
10.77,227.639,0.01812386, NaN, NaN, NaN,0.03601294," ""- N/A -   """
10.8,228.5822,0.0181711, NaN, NaN, NaN,0.03601294," ""- N/A -   """
10.83,229.29,0.01821827, NaN, NaN, NaN,0.0372337," ""- N/A -   """
10.86,230.116,0.0182627, NaN, NaN, NaN,0.0396753," ""- N/A -   """
10.89,230.8232,0.0183071, NaN, NaN, NaN,0.04211683," ""- N/A -   """
10.92,231.767,0.01835433, NaN, NaN, NaN,0.0445584," ""- N/A -   """
10.95,232.71,0.0184043, NaN, NaN, NaN,0.0433376," ""- N/A -   """
10.98,233.536,0.0184515, NaN, NaN, NaN,0.0445584," ""- N/A -   """
11.01,234.598,0.0185043, NaN, NaN, NaN,0.0433376," ""- N/A -   """
11.04,235.777,0.01856814, NaN, NaN, NaN,0.0372337," ""- N/A -   """
11.07,236.956,0.0186292, NaN, NaN, NaN,0.0335714," ""- N/A -   """
11.1,238.018,0.018682, NaN, NaN, NaN,0.03112983," ""- N/A -   """
11.13,239.08,0.0187375, NaN, NaN, NaN,0.0299091," ""- N/A -   """
11.16,239.905,0.0187875, NaN, NaN, NaN,0.0286883," ""- N/A -   """
11.19,240.731,0.0188347, NaN, NaN, NaN,0.0299091," ""- N/A -   """
11.22,241.556,0.0188819, NaN, NaN, NaN,0.03112983," ""- N/A -   """
11.25,242.2641,0.0189236, NaN, NaN, NaN,0.0347922," ""- N/A -   """
11.28,243.207,0.0189708, NaN, NaN, NaN,0.03601294," ""- N/A -   """
11.31,244.15,0.0190235, NaN, NaN, NaN,0.0347922," ""- N/A -   """
11.34,245.21,0.0190763, NaN, NaN, NaN,0.0335714," ""- N/A -   """
11.37,246.153,0.01913182, NaN, NaN, NaN,0.0323506," ""- N/A -   """
11.4,247.213,0.0191818, NaN, NaN, NaN,0.03112983," ""- N/A -   """
11.43,247.92,0.019229, NaN, NaN, NaN,0.0335714," ""- N/A -   """
11.46,248.745,0.01927621, NaN, NaN, NaN,0.0347922," ""- N/A -   """
11.49,249.452,0.0193234, NaN, NaN, NaN,0.03601294," ""- N/A -   """
11.52,250.394,0.0193651, NaN, NaN, NaN,0.0384545," ""- N/A -   """
11.55,251.101,0.0194095, NaN, NaN, NaN,0.04089605," ""- N/A -   """
11.58,252.044,0.0194595, NaN, NaN, NaN,0.04089605," ""- N/A -   """
11.61,252.987,0.0195122, NaN, NaN, NaN,0.04089605," ""- N/A -   """
11.64,254.047,0.0195622, NaN, NaN, NaN,0.04089605," ""- N/A -   """
11.67,254.872,0.0196122, NaN, NaN, NaN,0.04089605," ""- N/A -   """
11.7,255.814,0.0196622, NaN, NaN, NaN,0.04089605," ""- N/A -   """
11.73,256.8748,0.0197149, NaN, NaN, NaN,0.0384545," ""- N/A -   """
11.76,257.817,0.0197677, NaN, NaN, NaN,0.0372337," ""- N/A -   """
11.79,258.76,0.01982323, NaN, NaN, NaN,0.0347922," ""- N/A -   """
11.82,259.7026,0.0198732, NaN, NaN, NaN,0.0347922," ""- N/A -   """
11.85,260.6452,0.0199232, NaN, NaN, NaN,0.03601294," ""- N/A -   """
11.88,261.588,0.0199732, NaN, NaN, NaN,0.0347922," ""- N/A -   """
11.91,262.53,0.0200259, NaN, NaN, NaN,0.0335714," ""- N/A -   """
11.94,263.473,0.02007869, NaN, NaN, NaN,0.0323506," ""- N/A -   """
11.97,264.298,0.0201259, NaN, NaN, NaN,0.0335714," ""- N/A -   """
12,265.24,0.0201731, NaN, NaN, NaN,0.03601294," ""- N/A -   """
12.03,266.065,0.0202203, NaN, NaN, NaN,0.03601294," ""- N/A -   """
12.06,266.89,0.02026751, NaN, NaN, NaN,0.0372337," ""- N/A -   """
12.09,267.8326,0.0203175, NaN, NaN, NaN,0.0384545," ""- N/A -   """
12.12,268.7752,0.02037025, NaN, NaN, NaN,0.03601294," ""- N/A -   """
12.15,269.7178,0.020423, NaN, NaN, NaN,0.0347922," ""- N/A -   """
12.18,270.778,0.0204785, NaN, NaN, NaN,0.0323506," ""- N/A -   """
12.21,271.7209,0.0205285, NaN, NaN, NaN,0.0323506," ""- N/A -   """
12.24,272.546,0.0205702, NaN, NaN, NaN,0.03601294," ""- N/A -   """
12.27,273.253,0.0206146, NaN, NaN, NaN,0.0384545," ""- N/A -   """
12.3,274.0774,0.02066181, NaN, NaN, NaN,0.0396753," ""- N/A -   """
12.33,275.02,0.020709, NaN, NaN, NaN,0.04089605," ""- N/A -   """
12.36,275.8448,0.02075622, NaN, NaN, NaN,0.04211683," ""- N/A -   """
12.39,276.787,0.020809, NaN, NaN, NaN,0.04211683," ""- N/A -   """
12.42,277.8478,0.0208617, NaN, NaN, NaN,0.0396753," ""- N/A -   """
12.45,278.908,0.0209173, NaN, NaN, NaN,0.0372337," ""- N/A -   """
12.48,280.087,0.0209756, NaN, NaN, NaN,0.0347922," ""- N/A -   """
12.51,281.147,0.0210311, NaN, NaN, NaN,0.03112983," ""- N/A -   """
12.54,282.09,0.0210839, NaN, NaN, NaN,0.0299091," ""- N/A -   """
12.57,282.914,0.0211339, NaN, NaN, NaN,0.03112983," ""- N/A -   """
12.6,283.739,0.0211811, NaN, NaN, NaN,0.0335714," ""- N/A -   """
12.63,284.5639,0.02122549, NaN, NaN, NaN,0.0347922," ""- N/A -   """
12.66,285.5065,0.02127547, NaN, NaN, NaN,0.0347922," ""- N/A -   """
12.69,286.449,0.021331, NaN, NaN, NaN,0.0335714," ""- N/A -   """
12.72,287.6274,0.0213865, NaN, NaN, NaN,0.03112983," ""- N/A -   """
12.75,288.688,0.0214393, NaN, NaN, NaN,0.0286883," ""- N/A -   """
12.78,289.5126,0.0214893, NaN, NaN, NaN,0.0286883," ""- N/A -   """
12.81,290.3374,0.0215365, NaN, NaN, NaN,0.0299091," ""- N/A -   """
12.84,291.162,0.0215837, NaN, NaN, NaN,0.03112983," ""- N/A -   """
12.87,291.987,0.02162812, NaN, NaN, NaN,0.0335714," ""- N/A -   """
12.9,292.6939,0.0216725, NaN, NaN, NaN,0.0372337," ""- N/A -   """
12.93,293.283,0.02171142, NaN, NaN, NaN,0.04089605," ""- N/A -   """
12.96,294.226,0.02175585, NaN, NaN, NaN,0.0445584," ""- N/A -   """
12.99,294.9326,0.0218003, NaN, NaN, NaN,0.04577916," ""- N/A -   """
13.02,295.993,0.02185026, NaN, NaN, NaN,0.04577916," ""- N/A -   """
13.05,296.936,0.02190024, NaN, NaN, NaN,0.04577916," ""- N/A -   """
13.08,297.878,0.021953, NaN, NaN, NaN,0.04577916," ""- N/A -   """
13.11,298.939,0.0220085, NaN, NaN, NaN,0.04211683," ""- N/A -   """
13.14,299.999,0.0220613, NaN, NaN, NaN,0.04089605," ""- N/A -   """
13.17,301.06,0.0221168, NaN, NaN, NaN,0.0384545," ""- N/A -   """
13.2,301.884,0.0221696, NaN, NaN, NaN,0.0372337," ""- N/A -   """
13.23,303.063,0.0222251, NaN, NaN, NaN,0.0347922," ""- N/A -   """
13.26,303.8874,0.02227788, NaN, NaN, NaN,0.0335714," ""- N/A -   """
13.29,305.066,0.0223334, NaN, NaN, NaN,0.03112983," ""- N/A -   """
13.32,306.1261,0.02238895, NaN, NaN, NaN,0.0286883," ""- N/A -   """
13.35,307.187,0.0224389, NaN, NaN, NaN,0.0286883," ""- N/A -   """
13.38,307.893,0.0224889, NaN, NaN, NaN,0.0286883," ""- N/A -   """
13.41,308.718,0.0225361, NaN, NaN, NaN,0.03112983," ""- N/A -   """
13.44,309.6609,0.02258332, NaN, NaN, NaN,0.03112983," ""- N/A -   """
13.47,310.368,0.02262775, NaN, NaN, NaN,0.0335714," ""- N/A -   """
13.5,311.31,0.0226722, NaN, NaN, NaN,0.03601294," ""- N/A -   """
13.53,312.0174,0.0227194, NaN, NaN, NaN,0.0372337," ""- N/A -   """
13.56,312.842,0.0227638, NaN, NaN, NaN,0.0396753," ""- N/A -   """
13.59,313.549,0.0228082, NaN, NaN, NaN,0.04211683," ""- N/A -   """
13.62,314.374,0.0228554, NaN, NaN, NaN,0.0433376," ""- N/A -   """
13.65,315.317,0.0229026, NaN, NaN, NaN,0.0445584," ""- N/A -   """
13.68,316.259,0.0229526, NaN, NaN, NaN,0.0445584," ""- N/A -   """
13.71,317.202,0.0230054, NaN, NaN, NaN,0.0445584," ""- N/A -   """
13.74,318.262,0.0230554, NaN, NaN, NaN,0.0433376," ""- N/A -   """
13.77,319.205,0.0231109, NaN, NaN, NaN,0.04211683," ""- N/A -   """
13.8,320.1474,0.0231609, NaN, NaN, NaN,0.04089605," ""- N/A -   """
13.83,321.326,0.0232192, NaN, NaN, NaN,0.0372337," ""- N/A -   """
13.86,322.5039,0.02327751, NaN, NaN, NaN,0.0335714," ""- N/A -   """
13.89,323.6822,0.0233386, NaN, NaN, NaN,0.0286883," ""- N/A -   """
13.92,324.625,0.0233914, NaN, NaN, NaN,0.0274675," ""- N/A -   """
13.95,325.45,0.0234413, NaN, NaN, NaN,0.0274675," ""- N/A -   """
13.98,326.392,0.0234885, NaN, NaN, NaN,0.0286883," ""- N/A -   """
14.01,327.3348,0.0235357, NaN, NaN, NaN,0.0299091," ""- N/A -   """
14.04,328.16,0.02358573, NaN, NaN, NaN,0.03112983," ""- N/A -   """
14.07,328.984,0.0236302, NaN, NaN, NaN,0.0323506," ""- N/A -   """
14.1,329.809,0.0236774, NaN, NaN, NaN,0.0335714," ""- N/A -   """
14.13,330.6339,0.0237246, NaN, NaN, NaN,0.0347922," ""- N/A -   """
14.16,331.5765,0.0237718, NaN, NaN, NaN,0.0372337," ""- N/A -   """
14.19,332.519,0.0238218, NaN, NaN, NaN,0.03601294," ""- N/A -   """
14.22,333.344,0.0238717, NaN, NaN, NaN,0.0372337," ""- N/A -   """
14.25,334.2865,0.02391894, NaN, NaN, NaN,0.0372337," ""- N/A -   """
14.28,334.9935,0.02396059, NaN, NaN, NaN,0.04211683," ""- N/A -   """
14.31,335.818,0.024005, NaN, NaN, NaN,0.0433376," ""- N/A -   """
14.34,336.643,0.0240522, NaN, NaN, NaN,0.0445584," ""- N/A -   """
14.37,337.586,0.0241022, NaN, NaN, NaN,0.04577916," ""- N/A -   """
14.4,338.6461,0.0241522, NaN, NaN, NaN,0.0445584," ""- N/A -   """
14.43,339.824,0.02420772, NaN, NaN, NaN,0.04211683," ""- N/A -   """
14.46,340.885,0.0242633, NaN, NaN, NaN,0.0396753," ""- N/A -   """
14.49,341.945,0.0243188, NaN, NaN, NaN,0.0372337," ""- N/A -   """
14.52,343.123,0.0243771, NaN, NaN, NaN,0.0335714," ""- N/A -   """
14.55,344.0661,0.0244299, NaN, NaN, NaN,0.0323506," ""- N/A -   """
14.58,345.009,0.02448262, NaN, NaN, NaN,0.03112983," ""- N/A -   """
14.61,345.833,0.0245326, NaN, NaN, NaN,0.0323506," ""- N/A -   """
14.64,346.7761,0.0245798, NaN, NaN, NaN,0.0323506," ""- N/A -   """
14.67,347.719,0.024627, NaN, NaN, NaN,0.0335714," ""- N/A -   """
14.7,348.5435,0.0246742, NaN, NaN, NaN,0.0347922," ""- N/A -   """
14.73,349.6039,0.0247242, NaN, NaN, NaN,0.0347922," ""- N/A -   """
14.76,350.664,0.0247797, NaN, NaN, NaN,0.0323506," ""- N/A -   """
14.79,351.607,0.02483249, NaN, NaN, NaN,0.03112983," ""- N/A -   """
14.82,352.55,0.0248797, NaN, NaN, NaN,0.0323506," ""- N/A -   """
14.85,353.4922,0.0249269, NaN, NaN, NaN,0.0347922," ""- N/A -   """
14.88,354.199,0.02497133, NaN, NaN, NaN,0.03601294," ""- N/A -   """
14.91,355.0239,0.0250158, NaN, NaN, NaN,0.0384545," ""- N/A -   """
14.94,355.8487,0.0250602, NaN, NaN, NaN,0.04089605," ""- N/A -   """
14.97,356.673,0.02510739, NaN, NaN, NaN,0.0433376," ""- N/A -   """
15,357.6161,0.0251546, NaN, NaN, NaN,0.0445584," ""- N/A -   """
15.03,358.794,0.0252074, NaN, NaN, NaN,0.04211683," ""- N/A -   """
15.06,359.737,0.0252573, NaN, NaN, NaN,0.04211683," ""- N/A -   """
15.09,360.7974,0.0253101, NaN, NaN, NaN,0.04089605," ""- N/A -   """
15.12,361.858,0.0253656, NaN, NaN, NaN,0.0384545," ""- N/A -   """
15.15,362.918,0.0254212, NaN, NaN, NaN,0.03601294," ""- N/A -   """
15.18,364.097,0.0254767, NaN, NaN, NaN,0.0347922," ""- N/A -   """
15.21,364.9213,0.0255295, NaN, NaN, NaN,0.0323506," ""- N/A -   """
15.24,366.1,0.0255794, NaN, NaN, NaN,0.0335714," ""- N/A -   """
15.27,366.924,0.0256266, NaN, NaN, NaN,0.0335714," ""- N/A -   """
15.3,367.867,0.0256794, NaN, NaN, NaN,0.0335714," ""- N/A -   """
15.33,368.81,0.02572938, NaN, NaN, NaN,0.0323506," ""- N/A -   """
15.36,369.87,0.02578214, NaN, NaN, NaN,0.0323506," ""- N/A -   """
15.39,370.93,0.0258321, NaN, NaN, NaN,0.03112983," ""- N/A -   """
15.42,371.991,0.0258821, NaN, NaN, NaN,0.03112983," ""- N/A -   """
15.45,372.816,0.0259321, NaN, NaN, NaN,0.03112983," ""- N/A -   """
15.48,373.758,0.0259821, NaN, NaN, NaN,0.03112983," ""- N/A -   """
15.51,374.8187,0.02602927, NaN, NaN, NaN,0.0323506," ""- N/A -   """
15.54,375.526,0.0260793, NaN, NaN, NaN,0.0335714," ""- N/A -   """
15.57,376.5861,0.0261292, NaN, NaN, NaN,0.0335714," ""- N/A -   """
15.6,377.4109,0.02617644, NaN, NaN, NaN,0.0335714," ""- N/A -   """
15.63,378.236,0.0262209, NaN, NaN, NaN,0.03601294," ""- N/A -   """
15.66,379.178,0.0262653, NaN, NaN, NaN,0.0384545," ""- N/A -   """
15.69,380.003,0.0263125, NaN, NaN, NaN,0.0396753," ""- N/A -   """
15.72,380.946,0.0263597, NaN, NaN, NaN,0.04089605," ""- N/A -   """
15.75,381.77,0.0264041, NaN, NaN, NaN,0.0433376," ""- N/A -   """
15.78,382.713,0.0264513, NaN, NaN, NaN,0.04577916," ""- N/A -   """
15.81,383.656,0.0264985, NaN, NaN, NaN,0.04577916," ""- N/A -   """
15.84,384.716,0.0265485, NaN, NaN, NaN,0.04577916," ""- N/A -   """
15.87,385.894,0.02660406, NaN, NaN, NaN,0.0433376," ""- N/A -   """
15.9,387.0726,0.0266651, NaN, NaN, NaN,0.0396753," ""- N/A -   """
15.93,388.133,0.0267235, NaN, NaN, NaN,0.03601294," ""- N/A -   """
15.96,389.3113,0.0267734, NaN, NaN, NaN,0.0347922," ""- N/A -   """
15.99,390.372,0.0268262, NaN, NaN, NaN,0.0335714," ""- N/A -   """
16.02,391.4322,0.026879, NaN, NaN, NaN,0.0323506," ""- N/A -   """
16.05,392.139,0.0269289, NaN, NaN, NaN,0.0335714," ""- N/A -   """
16.08,393.317,0.0269761, NaN, NaN, NaN,0.0335714," ""- N/A -   """
16.11,394.3778,0.0270317, NaN, NaN, NaN,0.03112983," ""- N/A -   """
16.14,395.5561,0.0270955, NaN, NaN, NaN,0.0250259," ""- N/A -   """
16.17,396.617,0.0271483, NaN, NaN, NaN,0.0250259," ""- N/A -   """
16.2,397.441,0.02719, NaN, NaN, NaN,0.0274675," ""- N/A -   """
16.23,398.1483,0.0272316, NaN, NaN, NaN,0.03112983," ""- N/A -   """
16.26,398.973,0.027276, NaN, NaN, NaN,0.0335714," ""- N/A -   """
16.29,399.798,0.0273177, NaN, NaN, NaN,0.0372337," ""- N/A -   """
16.32,400.5048,0.0273621, NaN, NaN, NaN,0.04089605," ""- N/A -   """
16.35,401.447,0.0274038, NaN, NaN, NaN,0.0445584," ""- N/A -   """
16.38,402.2722,0.0274482, NaN, NaN, NaN,0.04577916," ""- N/A -   """
16.41,403.215,0.0274954, NaN, NaN, NaN,0.04699994," ""- N/A -   """
16.44,404.1574,0.0275426, NaN, NaN, NaN,0.0482207," ""- N/A -   """
16.47,405.218,0.0275926, NaN, NaN, NaN,0.0482207," ""- N/A -   """
16.5,406.514,0.0276509, NaN, NaN, NaN,0.0445584," ""- N/A -   """
16.53,407.81,0.02771476, NaN, NaN, NaN,0.0384545," ""- N/A -   """
16.56,408.988,0.0277731, NaN, NaN, NaN,0.0347922," ""- N/A -   """
16.59,410.167,0.0278314, NaN, NaN, NaN,0.03112983," ""- N/A -   """
16.62,411.227,0.0278814, NaN, NaN, NaN,0.03112983," ""- N/A -   """
16.65,412.287,0.0279341, NaN, NaN, NaN,0.03112983," ""- N/A -   """
16.68,413.23,0.02798688, NaN, NaN, NaN,0.0299091," ""- N/A -   """
16.71,414.29,0.02803964, NaN, NaN, NaN,0.0274675," ""- N/A -   """
16.74,415.469,0.0280924, NaN, NaN, NaN,0.0262467," ""- N/A -   """
16.77,416.4113,0.0281396, NaN, NaN, NaN,0.0274675," ""- N/A -   """
16.8,417.3539,0.02819236, NaN, NaN, NaN,0.0274675," ""- N/A -   """
16.83,418.2965,0.0282396, NaN, NaN, NaN,0.0274675," ""- N/A -   """
16.86,419.239,0.0282895, NaN, NaN, NaN,0.0286883," ""- N/A -   """
16.89,420.182,0.0283312, NaN, NaN, NaN,0.03112983," ""- N/A -   """
16.92,420.8887,0.0283756, NaN, NaN, NaN,0.0335714," ""- N/A -   """
16.95,421.596,0.0284145, NaN, NaN, NaN,0.0384545," ""- N/A -   """
16.98,422.538,0.0284617, NaN, NaN, NaN,0.0396753," ""- N/A -   """
17.01,423.4809,0.0285061, NaN, NaN, NaN,0.04211683," ""- N/A -   """
17.04,424.423,0.0285533, NaN, NaN, NaN,0.0433376," ""- N/A -   """
17.07,425.3661,0.0286033, NaN, NaN, NaN,0.0433376," ""- N/A -   """
17.1,426.4265,0.0286533, NaN, NaN, NaN,0.04577916," ""- N/A -   """
17.13,427.487,0.0287005, NaN, NaN, NaN,0.04577916," ""- N/A -   """
17.16,428.5474,0.0287533, NaN, NaN, NaN,0.04577916," ""- N/A -   """
17.19,429.608,0.028806, NaN, NaN, NaN,0.0445584," ""- N/A -   """
17.22,430.904,0.0288616, NaN, NaN, NaN,0.04211683," ""- N/A -   """
17.25,431.964,0.0289143, NaN, NaN, NaN,0.0396753," ""- N/A -   """
17.28,433.025,0.0289726, NaN, NaN, NaN,0.0372337," ""- N/A -   """
17.31,434.321,0.0290309, NaN, NaN, NaN,0.0323506," ""- N/A -   """
17.34,435.4991,0.0290837, NaN, NaN, NaN,0.03112983," ""- N/A -   """
17.37,436.56,0.0291365, NaN, NaN, NaN,0.0299091," ""- N/A -   """
17.4,437.62,0.0291864, NaN, NaN, NaN,0.0299091," ""- N/A -   """
17.43,438.445,0.0292364, NaN, NaN, NaN,0.0299091," ""- N/A -   """
17.46,439.3874,0.0292836, NaN, NaN, NaN,0.0323506," ""- N/A -   """
17.49,440.4478,0.02933083, NaN, NaN, NaN,0.0323506," ""- N/A -   """
17.52,441.2726,0.029378, NaN, NaN, NaN,0.0347922," ""- N/A -   """
17.55,442.451,0.0294252, NaN, NaN, NaN,0.0347922," ""- N/A -   """
17.58,443.276,0.0294724, NaN, NaN, NaN,0.03601294," ""- N/A -   """
17.61,444.218,0.02951965, NaN, NaN, NaN,0.0372337," ""- N/A -   """
17.64,445.161,0.02956963, NaN, NaN, NaN,0.0372337," ""- N/A -   """
17.67,446.2213,0.0296168, NaN, NaN, NaN,0.0384545," ""- N/A -   """
[...]
25.19,718.954,0.04213999, NaN, NaN, NaN,0.04211683," ""- N/A -   """
25.21,719.6635,0.04217053, NaN, NaN, NaN,0.0433376," ""- N/A -   """
25.23,720.373,0.0422066, NaN, NaN, NaN,0.0433376," ""- N/A -   """
25.25,721.2012,0.0422427, NaN, NaN, NaN,0.04211683," ""- N/A -   """
25.27,722.0291,0.042276, NaN, NaN, NaN,0.04089605," ""- N/A -   """
25.29,722.857,0.0423094, NaN, NaN, NaN,0.04089605," ""- N/A -   """
25.31,723.4485,0.0423427, NaN, NaN, NaN,0.04089605," ""- N/A -   """
25.33,724.3948,0.042376, NaN, NaN, NaN,0.04089605," ""- N/A -   """
25.35,725.2227,0.0424121, NaN, NaN, NaN,0.0396753," ""- N/A -   """
25.37,726.051,0.0424482, NaN, NaN, NaN,0.0384545," ""- N/A -   """
25.39,726.997,0.0424843, NaN, NaN, NaN,0.0372337," ""- N/A -   """
25.41,727.5883,0.0425176, NaN, NaN, NaN,0.0372337," ""- N/A -   """
25.43,728.416,0.04255372, NaN, NaN, NaN,0.03601294," ""- N/A -   """
25.45,729.244,0.042587, NaN, NaN, NaN,0.03601294," ""- N/A -   """
25.47,729.9539,0.0426204, NaN, NaN, NaN,0.03601294," ""- N/A -   """
25.49,730.782,0.0426565, NaN, NaN, NaN,0.03601294," ""- N/A -   """
25.51,731.373,0.042687, NaN, NaN, NaN,0.03601294," ""- N/A -   """
25.53,732.3196,0.0427231, NaN, NaN, NaN,0.03601294," ""- N/A -   """
25.55,733.029,0.0427564, NaN, NaN, NaN,0.0347922," ""- N/A -   """
25.57,733.9755,0.04279252, NaN, NaN, NaN,0.0335714," ""- N/A -   """
25.59,734.803,0.04282862, NaN, NaN, NaN,0.0323506," ""- N/A -   """
25.61,735.6314,0.0428619, NaN, NaN, NaN,0.0323506," ""- N/A -   """
25.63,736.341,0.04289526, NaN, NaN, NaN,0.0335714," ""- N/A -   """
25.65,736.933,0.04292581, NaN, NaN, NaN,0.0335714," ""- N/A -   """
25.67,737.7605,0.0429591, NaN, NaN, NaN,0.0335714," ""- N/A -   """
25.69,738.588,0.0429952, NaN, NaN, NaN,0.0323506," ""- N/A -   """
25.71,739.416,0.0430313, NaN, NaN, NaN,0.0323506," ""- N/A -   """
25.73,740.2444,0.0430646, NaN, NaN, NaN,0.0323506," ""- N/A -   """
25.75,740.836,0.0430952, NaN, NaN, NaN,0.0323506," ""- N/A -   """
25.77,741.5454,0.04312573, NaN, NaN, NaN,0.0335714," ""- N/A -   """
25.79,742.2552,0.0431591, NaN, NaN, NaN,0.0335714," ""- N/A -   """
25.81,743.2014,0.04319515, NaN, NaN, NaN,0.0323506," ""- N/A -   """
25.83,743.9111,0.0432285, NaN, NaN, NaN,0.0323506," ""- N/A -   """
25.85,744.6208,0.043259, NaN, NaN, NaN,0.0335714," ""- N/A -   """
25.87,745.33,0.04328956, NaN, NaN, NaN,0.0347922," ""- N/A -   """
25.89,745.9219,0.04332288, NaN, NaN, NaN,0.03601294," ""- N/A -   """
25.91,746.632,0.0433534, NaN, NaN, NaN,0.03601294," ""- N/A -   """
25.93,747.46,0.04338397, NaN, NaN, NaN,0.0372337," ""- N/A -   """
25.95,748.0509,0.0434145, NaN, NaN, NaN,0.0384545," ""- N/A -   """
25.97,748.642,0.04344228, NaN, NaN, NaN,0.04211683," ""- N/A -   """
25.99,749.352,0.04347005, NaN, NaN, NaN,0.0433376," ""- N/A -   """
26.01,750.0617,0.04350337, NaN, NaN, NaN,0.0433376," ""- N/A -   """
26.03,750.771,0.0435339, NaN, NaN, NaN,0.0445584," ""- N/A -   """
26.05,751.7176,0.04357001, NaN, NaN, NaN,0.0433376," ""- N/A -   """
26.07,752.6639,0.04360611, NaN, NaN, NaN,0.04211683," ""- N/A -   """
26.09,753.374,0.0436422, NaN, NaN, NaN,0.04211683," ""- N/A -   """
26.11,754.2015,0.0436783, NaN, NaN, NaN,0.04089605," ""- N/A -   """
26.13,755.266,0.04371718, NaN, NaN, NaN,0.0372337," ""- N/A -   """
26.15,756.2123,0.0437561, NaN, NaN, NaN,0.03601294," ""- N/A -   """
26.17,757.0402,0.04379493, NaN, NaN, NaN,0.0335714," ""- N/A -   """
26.19,757.75,0.0438283, NaN, NaN, NaN,0.0335714," ""- N/A -   """
26.21,758.5779,0.04386157, NaN, NaN, NaN,0.0335714," ""- N/A -   """
26.23,759.2876,0.0438921, NaN, NaN, NaN,0.0347922," ""- N/A -   """
26.25,759.9973,0.0439282, NaN, NaN, NaN,0.0347922," ""- N/A -   """
26.27,760.707,0.0439588, NaN, NaN, NaN,0.0347922," ""- N/A -   """
26.29,761.4166,0.04399208, NaN, NaN, NaN,0.0347922," ""- N/A -   """
26.31,762.245,0.0440254, NaN, NaN, NaN,0.0347922," ""- N/A -   """
26.33,763.0726,0.0440615, NaN, NaN, NaN,0.0347922," ""- N/A -   """
26.35,764.0188,0.04410037, NaN, NaN, NaN,0.0323506," ""- N/A -   """
26.37,764.965,0.0441392, NaN, NaN, NaN,0.0299091," ""- N/A -   """
26.39,765.793,0.04417534, NaN, NaN, NaN,0.0274675," ""- N/A -   """
26.41,766.621,0.04421144, NaN, NaN, NaN,0.0262467," ""- N/A -   """
26.43,767.2124,0.044242, NaN, NaN, NaN,0.0274675," ""- N/A -   """
26.45,767.9221,0.04427253, NaN, NaN, NaN,0.0299091," ""- N/A -   """
26.47,768.6318,0.0443031, NaN, NaN, NaN,0.0299091," ""- N/A -   """
26.49,769.2232,0.0443336, NaN, NaN, NaN,0.0323506," ""- N/A -   """
26.51,770.051,0.0443642, NaN, NaN, NaN,0.0335714," ""- N/A -   """
26.53,770.5243,0.0443892, NaN, NaN, NaN,0.03601294," ""- N/A -   """
26.55,770.997,0.0444169, NaN, NaN, NaN,0.0384545," ""- N/A -   """
26.57,771.7071,0.0444447, NaN, NaN, NaN,0.04089605," ""- N/A -   """
26.59,772.298,0.04447246, NaN, NaN, NaN,0.0433376," ""- N/A -   """
26.61,773.0081,0.044503, NaN, NaN, NaN,0.04577916," ""- N/A -   """
26.63,773.7179,0.0445335, NaN, NaN, NaN,0.04699994," ""- N/A -   """
26.65,774.309,0.0445613, NaN, NaN, NaN,0.0482207," ""- N/A -   """
26.67,775.0189,0.0445946, NaN, NaN, NaN,0.0482207," ""- N/A -   """
26.69,775.8469,0.044628, NaN, NaN, NaN,0.0494415," ""- N/A -   """
26.71,776.675,0.0446641, NaN, NaN, NaN,0.0482207," ""- N/A -   """
26.73,777.6211,0.04470293, NaN, NaN, NaN,0.04577916," ""- N/A -   """
26.75,778.686,0.0447418, NaN, NaN, NaN,0.04211683," ""- N/A -   """
26.77,779.6319,0.0447807, NaN, NaN, NaN,0.0396753," ""- N/A -   """
26.79,780.46,0.0448196, NaN, NaN, NaN,0.0384545," ""- N/A -   """
26.81,781.288,0.04485565, NaN, NaN, NaN,0.03601294," ""- N/A -   """
26.83,782.2341,0.04489175, NaN, NaN, NaN,0.0347922," ""- N/A -   """
26.85,783.062,0.0449251, NaN, NaN, NaN,0.0347922," ""- N/A -   """
26.87,783.7717,0.0449584, NaN, NaN, NaN,0.0347922," ""- N/A -   """
26.89,784.363,0.04498893, NaN, NaN, NaN,0.0372337," ""- N/A -   """
26.91,785.1911,0.04502503, NaN, NaN, NaN,0.0347922," ""- N/A -   """
26.93,786.1374,0.0450639, NaN, NaN, NaN,0.0335714," ""- N/A -   """
26.95,786.965,0.04510278, NaN, NaN, NaN,0.0299091," ""- N/A -   """
26.97,787.912,0.0451417, NaN, NaN, NaN,0.0286883," ""- N/A -   """
26.99,788.6212,0.045175, NaN, NaN, NaN,0.0286883," ""- N/A -   """
27.01,789.331,0.04520552, NaN, NaN, NaN,0.0286883," ""- N/A -   """
27.03,790.1589,0.0452388, NaN, NaN, NaN,0.0299091," ""- N/A -   """
27.05,790.9868,0.0452694, NaN, NaN, NaN,0.0299091," ""- N/A -   """
27.07,791.5783,0.0453027, NaN, NaN, NaN,0.0299091," ""- N/A -   """
27.09,792.525,0.045336, NaN, NaN, NaN,0.0299091," ""- N/A -   """
27.11,793.2342,0.04536935, NaN, NaN, NaN,0.0299091," ""- N/A -   """
27.13,793.9439,0.04539989, NaN, NaN, NaN,0.03112983," ""- N/A -   """
27.15,794.654,0.0454332, NaN, NaN, NaN,0.03112983," ""- N/A -   """
27.17,795.245,0.04546098, NaN, NaN, NaN,0.0335714," ""- N/A -   """
27.19,795.836,0.0454887, NaN, NaN, NaN,0.03601294," ""- N/A -   """
27.21,796.5461,0.0455193, NaN, NaN, NaN,0.0372337," ""- N/A -   """
27.23,797.0192,0.04554428, NaN, NaN, NaN,0.04089605," ""- N/A -   """
27.25,797.7289,0.0455748, NaN, NaN, NaN,0.0433376," ""- N/A -   """
27.27,798.5568,0.04560815, NaN, NaN, NaN,0.04211683," ""- N/A -   """
27.29,799.267,0.04564147, NaN, NaN, NaN,0.04211683," ""- N/A -   """
27.31,800.0945,0.045672, NaN, NaN, NaN,0.0433376," ""- N/A -   """
27.33,800.804,0.0457053, NaN, NaN, NaN,0.0433376," ""- N/A -   """
27.35,801.396,0.0457359, NaN, NaN, NaN,0.0445584," ""- N/A -   """
27.37,802.2236,0.0457664, NaN, NaN, NaN,0.04699994," ""- N/A -   """
27.39,802.815,0.0457997, NaN, NaN, NaN,0.04699994," ""- N/A -   """
27.41,803.6429,0.0458331, NaN, NaN, NaN,0.04577916," ""- N/A -   """
27.43,804.5892,0.0458692, NaN, NaN, NaN,0.04577916," ""- N/A -   """
27.45,805.4171,0.0459025, NaN, NaN, NaN,0.0445584," ""- N/A -   """
27.47,806.245,0.04594136, NaN, NaN, NaN,0.04211683," ""- N/A -   """
27.49,807.191,0.0459802, NaN, NaN, NaN,0.0396753," ""- N/A -   """
27.51,808.1376,0.04601911, NaN, NaN, NaN,0.0372337," ""- N/A -   """
27.53,809.2021,0.0460635, NaN, NaN, NaN,0.0323506," ""- N/A -   """
27.55,810.267,0.0461052, NaN, NaN, NaN,0.0299091," ""- N/A -   """
27.57,811.0946,0.04613851, NaN, NaN, NaN,0.0299091," ""- N/A -   """
27.59,811.804,0.0461691, NaN, NaN, NaN,0.0299091," ""- N/A -   """
27.61,812.514,0.0462024, NaN, NaN, NaN,0.03112983," ""- N/A -   """
27.63,813.4602,0.04623569, NaN, NaN, NaN,0.0299091," ""- N/A -   """
27.65,814.052,0.046269, NaN, NaN, NaN,0.0299091," ""- N/A -   """
27.67,814.761,0.0463051, NaN, NaN, NaN,0.0299091," ""- N/A -   """
27.69,815.5893,0.04633566, NaN, NaN, NaN,0.0299091," ""- N/A -   """
27.71,816.181,0.0463662, NaN, NaN, NaN,0.0323506," ""- N/A -   """
27.73,817.0086,0.0463967, NaN, NaN, NaN,0.0323506," ""- N/A -   """
27.75,817.7183,0.0464301, NaN, NaN, NaN,0.0335714," ""- N/A -   """
27.77,818.428,0.0464606, NaN, NaN, NaN,0.0347922," ""- N/A -   """
27.79,819.1377,0.0464912, NaN, NaN, NaN,0.0347922," ""- N/A -   """
27.81,819.847,0.0465245, NaN, NaN, NaN,0.0347922," ""- N/A -   """
27.83,820.557,0.0465578, NaN, NaN, NaN,0.03601294," ""- N/A -   """
27.85,821.5033,0.04658834, NaN, NaN, NaN,0.03601294," ""- N/A -   """
27.87,822.0947,0.0466217, NaN, NaN, NaN,0.03601294," ""- N/A -   """
27.89,822.804,0.04665221, NaN, NaN, NaN,0.0372337," ""- N/A -   """
27.91,823.5141,0.0466828, NaN, NaN, NaN,0.0384545," ""- N/A -   """
27.93,824.224,0.0467133, NaN, NaN, NaN,0.0396753," ""- N/A -   """
27.95,824.9334,0.0467411, NaN, NaN, NaN,0.04211683," ""- N/A -   """
27.97,825.5249,0.04677161, NaN, NaN, NaN,0.0433376," ""- N/A -   """
27.99,826.1163,0.0467994, NaN, NaN, NaN,0.04577916," ""- N/A -   """
28.01,826.8259,0.0468327, NaN, NaN, NaN,0.04577916," ""- N/A -   """
28.03,827.6539,0.04686324, NaN, NaN, NaN,0.04699994," ""- N/A -   """
28.05,828.4819,0.0468993, NaN, NaN, NaN,0.04577916," ""- N/A -   """
28.07,829.4281,0.0469354, NaN, NaN, NaN,0.0445584," ""- N/A -   """
28.09,830.3744,0.0469743, NaN, NaN, NaN,0.04211683," ""- N/A -   """
28.11,831.3206,0.0470132, NaN, NaN, NaN,0.0396753," ""- N/A -   """
28.13,832.385,0.0470576, NaN, NaN, NaN,0.0347922," ""- N/A -   """
28.15,833.3314,0.04709371, NaN, NaN, NaN,0.0335714," ""- N/A -   """
28.17,834.159,0.04712981, NaN, NaN, NaN,0.0323506," ""- N/A -   """
28.19,834.9873,0.0471659, NaN, NaN, NaN,0.03112983," ""- N/A -   """
28.21,835.8153,0.047202, NaN, NaN, NaN,0.03112983," ""- N/A -   """
28.23,836.525,0.0472325, NaN, NaN, NaN,0.03112983," ""- N/A -   """
28.25,837.1164,0.0472631, NaN, NaN, NaN,0.0323506," ""- N/A -   """
28.27,837.944,0.0472964, NaN, NaN, NaN,0.0323506," ""- N/A -   """
28.29,838.654,0.04732696, NaN, NaN, NaN,0.0335714," ""- N/A -   """
28.31,839.3637,0.04736028, NaN, NaN, NaN,0.0347922," ""- N/A -   """
28.33,840.192,0.0473936, NaN, NaN, NaN,0.0347922," ""- N/A -   """
28.35,840.9014,0.04742414, NaN, NaN, NaN,0.0347922," ""- N/A -   """
28.37,841.7294,0.0474575, NaN, NaN, NaN,0.03601294," ""- N/A -   """
28.39,842.439,0.0474936, NaN, NaN, NaN,0.0347922," ""- N/A -   """
28.41,843.267,0.0475297, NaN, NaN, NaN,0.0335714," ""- N/A -   """
28.43,844.213,0.047563, NaN, NaN, NaN,0.0323506," ""- N/A -   """
28.45,845.0412,0.04759908, NaN, NaN, NaN,0.03112983," ""- N/A -   """
28.47,845.869,0.0476324, NaN, NaN, NaN,0.03112983," ""- N/A -   """
28.49,846.4606,0.0476629, NaN, NaN, NaN,0.0323506," ""- N/A -   """
28.51,847.4068,0.0476963, NaN, NaN, NaN,0.0323506," ""- N/A -   """
28.53,848.116,0.0477296, NaN, NaN, NaN,0.0335714," ""- N/A -   """
28.55,848.708,0.0477574, NaN, NaN, NaN,0.0347922," ""- N/A -   """
28.57,849.4176,0.0477879, NaN, NaN, NaN,0.03601294," ""- N/A -   """
28.59,850.127,0.0478157, NaN, NaN, NaN,0.0384545," ""- N/A -   """
28.61,850.7187,0.0478462, NaN, NaN, NaN,0.04089605," ""- N/A -   """
28.63,851.5467,0.0478768, NaN, NaN, NaN,0.04089605," ""- N/A -   """
28.65,852.375,0.04791563, NaN, NaN, NaN,0.0384545," ""- N/A -   """
28.67,853.321,0.0479545, NaN, NaN, NaN,0.0372337," ""- N/A -   """
28.69,854.267,0.0479878, NaN, NaN, NaN,0.03601294," ""- N/A -   """
28.71,854.8585,0.04801837, NaN, NaN, NaN,0.0372337," ""- N/A -   """
28.73,855.5682,0.0480489, NaN, NaN, NaN,0.0384545," ""- N/A -   """
28.75,856.16,0.04807946, NaN, NaN, NaN,0.0396753," ""- N/A -   """
28.77,856.9876,0.04811, NaN, NaN, NaN,0.04089605," ""- N/A -   """
28.79,857.816,0.0481461, NaN, NaN, NaN,0.0396753," ""- N/A -   """
28.81,858.6435,0.0481822, NaN, NaN, NaN,0.0384545," ""- N/A -   """
28.83,859.4715,0.04821552, NaN, NaN, NaN,0.0384545," ""- N/A -   """
28.85,860.299,0.0482516, NaN, NaN, NaN,0.0384545," ""- N/A -   """
28.87,861.1274,0.04828216, NaN, NaN, NaN,0.0384545," ""- N/A -   """
28.89,861.9554,0.04831826, NaN, NaN, NaN,0.0372337," ""- N/A -   """
28.91,862.547,0.0483544, NaN, NaN, NaN,0.0372337," ""- N/A -   """
28.93,863.493,0.0483877, NaN, NaN, NaN,0.03601294," ""- N/A -   """
28.95,864.2027,0.048421, NaN, NaN, NaN,0.03601294," ""- N/A -   """
28.97,865.0307,0.04845432, NaN, NaN, NaN,0.03601294," ""- N/A -   """
28.99,865.859,0.0484904, NaN, NaN, NaN,0.03601294," ""- N/A -   """
29.01,866.6866,0.0485265, NaN, NaN, NaN,0.0347922," ""- N/A -   """
29.03,867.3963,0.0485598, NaN, NaN, NaN,0.0335714," ""- N/A -   """
29.05,868.224,0.04859316, NaN, NaN, NaN,0.0335714," ""- N/A -   """
29.07,868.9339,0.0486237, NaN, NaN, NaN,0.0347922," ""- N/A -   """
29.09,869.7619,0.0486598, NaN, NaN, NaN,0.0335714," ""- N/A -   """
29.11,870.7081,0.0486959, NaN, NaN, NaN,0.0323506," ""- N/A -   """
29.13,871.5361,0.04872922, NaN, NaN, NaN,0.0323506," ""- N/A -   """
29.15,872.246,0.0487653, NaN, NaN, NaN,0.03112983," ""- N/A -   """
29.17,873.0738,0.0487986, NaN, NaN, NaN,0.03112983," ""- N/A -   """
29.19,873.783,0.04883196, NaN, NaN, NaN,0.0323506," ""- N/A -   """
29.21,874.4931,0.0488653, NaN, NaN, NaN,0.0323506," ""- N/A -   """
29.23,875.3211,0.0488986, NaN, NaN, NaN,0.0323506," ""- N/A -   """
29.25,876.031,0.0489291, NaN, NaN, NaN,0.0323506," ""- N/A -   """
29.27,876.7405,0.0489597, NaN, NaN, NaN,0.0347922," ""- N/A -   """
29.29,877.4502,0.0489875, NaN, NaN, NaN,0.03601294," ""- N/A -   """
29.31,878.16,0.049018, NaN, NaN, NaN,0.0372337," ""- N/A -   """
29.33,878.7512,0.0490485, NaN, NaN, NaN,0.0384545," ""- N/A -   """
29.35,879.579,0.0490819, NaN, NaN, NaN,0.0384545," ""- N/A -   """
29.37,880.171,0.0491124, NaN, NaN, NaN,0.0396753," ""- N/A -   """
29.39,880.9986,0.049143, NaN, NaN, NaN,0.04089605," ""- N/A -   """
29.41,881.708,0.0491735, NaN, NaN, NaN,0.04211683," ""- N/A -   """
29.43,882.2996,0.0492013, NaN, NaN, NaN,0.0445584," ""- N/A -   """
29.45,883.1276,0.0492346, NaN, NaN, NaN,0.0445584," ""- N/A -   """
29.47,883.9556,0.04926791, NaN, NaN, NaN,0.0445584," ""- N/A -   """
29.49,884.784,0.04930401, NaN, NaN, NaN,0.0433376," ""- N/A -   """
29.51,885.73,0.0493401, NaN, NaN, NaN,0.04211683," ""- N/A -   """
29.53,886.5578,0.0493762, NaN, NaN, NaN,0.04089605," ""- N/A -   """
29.55,887.386,0.0494151, NaN, NaN, NaN,0.0384545," ""- N/A -   """
29.57,888.332,0.0494539, NaN, NaN, NaN,0.0372337," ""- N/A -   """
29.59,889.278,0.04949, NaN, NaN, NaN,0.0347922," ""- N/A -   """
29.61,890.1062,0.04952337, NaN, NaN, NaN,0.0347922," ""- N/A -   """
29.63,890.9342,0.0495567, NaN, NaN, NaN,0.0347922," ""- N/A -   """
29.65,891.644,0.04959, NaN, NaN, NaN,0.0347922," ""- N/A -   """
29.67,892.3535,0.0496233, NaN, NaN, NaN,0.0347922," ""- N/A -   """
29.69,893.1815,0.0496567, NaN, NaN, NaN,0.0347922," ""- N/A -   """
29.71,893.8912,0.04969, NaN, NaN, NaN,0.0347922," ""- N/A -   """
29.73,894.6009,0.0497233, NaN, NaN, NaN,0.0347922," ""- N/A -   """
29.75,895.5471,0.04975939, NaN, NaN, NaN,0.0347922," ""- N/A -   """
29.77,896.3751,0.04979827, NaN, NaN, NaN,0.0323506," ""- N/A -   """
29.79,897.4396,0.0498371, NaN, NaN, NaN,0.0299091," ""- N/A -   """
29.81,898.268,0.0498705, NaN, NaN, NaN,0.0286883," ""- N/A -   """
29.83,898.9773,0.0499038, NaN, NaN, NaN,0.0286883," ""- N/A -   """
29.85,899.805,0.0499371, NaN, NaN, NaN,0.0286883," ""- N/A -   """
29.87,900.3966,0.0499676, NaN, NaN, NaN,0.03112983," ""- N/A -   """
29.89,901.1063,0.0499982, NaN, NaN, NaN,0.0323506," ""- N/A -   """
29.91,901.816,0.0500287, NaN, NaN, NaN,0.0323506," ""- N/A -   """
29.93,902.5257,0.05005928, NaN, NaN, NaN,0.0335714," ""- N/A -   """
29.95,903.235,0.05008705, NaN, NaN, NaN,0.03601294," ""- N/A -   """
29.97,903.7085,0.05011204, NaN, NaN, NaN,0.0396753," ""- N/A -   """
29.99,904.4182,0.0501426, NaN, NaN, NaN,0.04089605," ""- N/A -   """
30.01,905.0096,0.05017591, NaN, NaN, NaN,0.04211683," ""- N/A -   """
30.03,905.8375,0.05020645, NaN, NaN, NaN,0.0433376," ""- N/A -   """
30.05,906.547,0.05023977, NaN, NaN, NaN,0.04211683," ""- N/A -   """
30.07,907.3752,0.0502703, NaN, NaN, NaN,0.0433376," ""- N/A -   """
30.09,908.2031,0.0503036, NaN, NaN, NaN,0.0433376," ""- N/A -   """
30.11,909.0312,0.0503397, NaN, NaN, NaN,0.04211683," ""- N/A -   """
30.13,909.859,0.05037583, NaN, NaN, NaN,0.04089605," ""- N/A -   """
30.15,910.6871,0.05041193, NaN, NaN, NaN,0.04089605," ""- N/A -   """
30.17,911.5151,0.0504452, NaN, NaN, NaN,0.0396753," ""- N/A -   """
30.19,912.225,0.0504786, NaN, NaN, NaN,0.0396753," ""- N/A -   """
30.21,913.0527,0.0505147, NaN, NaN, NaN,0.0396753," ""- N/A -   """
30.23,913.999,0.05055077, NaN, NaN, NaN,0.0372337," ""- N/A -   """
30.25,915.0635,0.05058964, NaN, NaN, NaN,0.0347922," ""- N/A -   """
30.27,915.8914,0.0506257, NaN, NaN, NaN,0.0335714," ""- N/A -   """
30.29,916.483,0.0506591, NaN, NaN, NaN,0.0335714," ""- N/A -   """
30.31,917.3108,0.0506896, NaN, NaN, NaN,0.0347922," ""- N/A -   """
30.33,918.02,0.0507229, NaN, NaN, NaN,0.0347922," ""- N/A -   """
30.35,918.9667,0.050759, NaN, NaN, NaN,0.0347922," ""- N/A -   """
30.37,919.795,0.0507923, NaN, NaN, NaN,0.0335714," ""- N/A -   """
30.39,920.5044,0.0508284, NaN, NaN, NaN,0.0323506," ""- N/A -   """
30.41,921.332,0.05086454, NaN, NaN, NaN,0.03112983," ""- N/A -   """
30.43,922.2786,0.0509006, NaN, NaN, NaN,0.0299091," ""- N/A -   """
30.45,922.9883,0.050934, NaN, NaN, NaN,0.0299091," ""- N/A -   """
30.47,923.8162,0.05096728, NaN, NaN, NaN,0.0299091," ""- N/A -   """
30.49,924.7625,0.0510062, NaN, NaN, NaN,0.0274675," ""- N/A -   """
30.51,925.472,0.0510367, NaN, NaN, NaN,0.0286883," ""- N/A -   """
30.53,926.064,0.05106724, NaN, NaN, NaN,0.0299091," ""- N/A -   """
30.55,926.773,0.0510978, NaN, NaN, NaN,0.03112983," ""- N/A -   """
30.57,927.3647,0.05112833, NaN, NaN, NaN,0.0335714," ""- N/A -   """
30.59,928.074,0.0511561, NaN, NaN, NaN,0.0347922," ""- N/A -   """
30.61,928.784,0.05118387, NaN, NaN, NaN,0.0372337," ""- N/A -   """
30.63,929.3754,0.0512116, NaN, NaN, NaN,0.0396753," ""- N/A -   """
30.65,930.085,0.05124218, NaN, NaN, NaN,0.04089605," ""- N/A -   """
30.67,930.7948,0.0512727, NaN, NaN, NaN,0.0433376," ""- N/A -   """
30.69,931.504,0.051306, NaN, NaN, NaN,0.0445584," ""- N/A -   """
30.71,932.451,0.0513394, NaN, NaN, NaN,0.0433376," ""- N/A -   """
30.73,933.16,0.0513727, NaN, NaN, NaN,0.0433376," ""- N/A -   """
30.75,933.8701,0.0514088, NaN, NaN, NaN,0.04211683," ""- N/A -   """
30.77,934.8164,0.0514421, NaN, NaN, NaN,0.04211683," ""- N/A -   """
30.79,935.644,0.0514754, NaN, NaN, NaN,0.04211683," ""- N/A -   """
30.81,936.354,0.0515087, NaN, NaN, NaN,0.04211683," ""- N/A -   """
30.83,937.064,0.0515448, NaN, NaN, NaN,0.04089605," ""- N/A -   """
30.85,938.01,0.0515782, NaN, NaN, NaN,0.04089605," ""- N/A -   """
30.87,938.8379,0.0516115, NaN, NaN, NaN,0.04089605," ""- N/A -   """
30.89,939.666,0.0516504, NaN, NaN, NaN,0.0396753," ""- N/A -   """
30.91,940.6121,0.0516865, NaN, NaN, NaN,0.0384545," ""- N/A -   """
30.93,941.558,0.0517281, NaN, NaN, NaN,0.0347922," ""- N/A -   """
30.95,942.6229,0.051767, NaN, NaN, NaN,0.03112983," ""- N/A -   """
30.97,943.3326,0.0518003, NaN, NaN, NaN,0.03112983," ""- N/A -   """
30.99,944.1605,0.0518364, NaN, NaN, NaN,0.03112983," ""- N/A -   """
31.01,944.988,0.0518697, NaN, NaN, NaN,0.03112983," ""- N/A -   """
31.011,945.1068,0.0518697, NaN, NaN, NaN,0.03112983," ""- N/A -   """