File: 2_Tensile_Data/Hamel_ForceTest_Bolt10_Test7.csv
Time, Load (lb), Position (in), AxialStrain (in), TransverseStrain (in), Auxiliary (), Control Out (V), Stress (psi)
0.0, 17.5742, 0.0, NaN, NaN, NaN, -0.006714277, "- N/A -   "
0.01, 17.6921, 2.776752E-6, NaN, NaN, NaN, -6.103888E-4, "- N/A -   "
0.02, 17.6921, 2.776752E-6, NaN, NaN, NaN, 0.006714277, "- N/A -   "
0.03, 17.5742, 2.776752E-6, NaN, NaN, NaN, 0.0177013, "- N/A -   "
0.04, 17.6921, 5.553504E-6, NaN, NaN, NaN, 0.03601294, "- N/A -   "
0.05, 17.6921, 1.38838e-05, NaN, NaN, NaN, 0.05188305, "- N/A -   "
0.06, 17.928, 2.49908e-05, NaN, NaN, NaN, 0.06653238, "- N/A -   "
0.07, 18.16391, 4.16513e-05, NaN, NaN, NaN, 0.0799609, "- N/A -   "
0.08, 18.7536, 6.108854E-5, NaN, NaN, NaN, 0.0897272, "- N/A -   "
0.09, 19.2254, 8.607931E-5, NaN, NaN, NaN, 0.09949338, "- N/A -   "
0.1, 19.8152, 0.000113847, NaN, NaN, NaN, 0.105597, "- N/A -   "
0.11, 20.4049, 0.000144391, NaN, NaN, NaN, 0.1092596, "- N/A -   "
0.12, 21.1126, 0.000174935, NaN, NaN, NaN, 0.103156, "- N/A -   "
0.13, 21.7023, 0.00020548, NaN, NaN, NaN, 0.09705182, "- N/A -   "
0.14, 22.1741, 0.000233247, NaN, NaN, NaN, 0.09216871, "- N/A -   "
0.15, 22.6459, 0.000261015, NaN, NaN, NaN, 0.08850638, "- N/A -   "
0.16, 23.2357, 0.000286005, NaN, NaN, NaN, 0.08362327, "- N/A -   "
0.17, 23.82539, 3.109962E-4, NaN, NaN, NaN, 0.0799609, "- N/A -   "
0.18, 24.29718, 0.000335987, NaN, NaN, NaN, 0.07751938, "- N/A -   "
0.19, 24.65102, 0.000358201, NaN, NaN, NaN, 0.0750778, "- N/A -   "
0.2, 25.1228, 0.000377638, NaN, NaN, NaN, 0.07263627, "- N/A -   "
0.21, 25.5946, 0.000397076, NaN, NaN, NaN, 0.07141549, "- N/A -   "
0.22, 25.8305, 0.000416513, NaN, NaN, NaN, 0.0701947, "- N/A -   "
0.23, 26.3023, 0.00043595, NaN, NaN, NaN, 0.0689739, "- N/A -   "
0.24, 26.6561, 0.000458164, NaN, NaN, NaN, 0.06775316, "- N/A -   "
0.25, 27.1279, 4.776013E-4, NaN, NaN, NaN, 0.0653116, "- N/A -   "
0.26, 27.4818, 0.000499815, NaN, NaN, NaN, 0.0640908, "- N/A -   "
0.27, 27.8356, 5.192526E-4, NaN, NaN, NaN, 0.06164927, "- N/A -   "
0.28, 28.3074, 5.414666E-4, NaN, NaN, NaN, 0.0592077, "- N/A -   "
0.29, 28.7792, 5.636806E-4, NaN, NaN, NaN, 0.05676616, "- N/A -   "
0.3, 29.133, 5.831179E-4, NaN, NaN, NaN, 0.0555454, "- N/A -   "
0.31, 29.4869, 0.000608109, NaN, NaN, NaN, 0.0531038, "- N/A -   "
0.32, 29.84071, 0.000630323, NaN, NaN, NaN, 0.0494415, "- N/A -   "
0.33, 30.4304, 0.000655313, NaN, NaN, NaN, 0.04699994, "- N/A -   "
0.34, 31.0202, 6.747507E-4, NaN, NaN, NaN, 0.0445584, "- N/A -   "
0.35, 31.2561, 6.969647E-4, NaN, NaN, NaN, 0.0433376, "- N/A -   "
0.36, 31.72787, 0.000716402, NaN, NaN, NaN, 0.04089605, "- N/A -   "
0.37, 32.1997, 0.000735839, NaN, NaN, NaN, 0.0396753, "- N/A -   "
0.38, 32.5535, 0.0007525, NaN, NaN, NaN, 0.0396753, "- N/A -   "
0.39, 32.7894, 7.71937E-4, NaN, NaN, NaN, 0.0384545, "- N/A -   "
0.4, 33.1432, 0.000791374, NaN, NaN, NaN, 0.0372337, "- N/A -   "
0.41, 33.49708, 8.080348E-4, NaN, NaN, NaN, 0.0372337, "- N/A -   "
0.42, 33.8509, 8.246953E-4, NaN, NaN, NaN, 0.0372337, "- N/A -   "
0.43, 34.2048, 0.000844133, NaN, NaN, NaN, 0.0372337, "- N/A -   "
0.44, 34.55861, 0.000860793, NaN, NaN, NaN, 0.03601294, "- N/A -   "
0.45, 34.7945, 8.774536E-4, NaN, NaN, NaN, 0.03601294, "- N/A -   "
0.46, 35.2663, 8.941141E-4, NaN, NaN, NaN, 0.03601294, "- N/A -   "
0.47, 35.50219, 9.107746E-4, NaN, NaN, NaN, 0.0372337, "- N/A -   "
0.48, 35.85603, 9.274351E-4, NaN, NaN, NaN, 0.0372337, "- N/A -   "
0.49, 36.0919, 9.440956E-4, NaN, NaN, NaN, 0.03601294, "- N/A -   "
0.5, 36.5637, 0.000960756, NaN, NaN, NaN, 0.03601294, "- N/A -   "
0.51, 36.9176, 9.774166E-4, NaN, NaN, NaN, 0.03601294, "- N/A -   "
0.52, 37.15345, 9.968539E-4, NaN, NaN, NaN, 0.03601294, "- N/A -   "
0.53, 37.5073, 0.00101351, NaN, NaN, NaN, 0.0347922, "- N/A -   "
0.54, 37.9791, 0.00103295, NaN, NaN, NaN, 0.0335714, "- N/A -   "
0.55, 38.3329, 0.00105239, NaN, NaN, NaN, 0.0335714, "- N/A -   "
0.56, 38.68677, 0.00106905, NaN, NaN, NaN, 0.0323506, "- N/A -   "
0.57, 38.9227, 0.00108849, NaN, NaN, NaN, 0.0323506, "- N/A -   "
0.58, 39.2765, 0.00110515, NaN, NaN, NaN, 0.0323506, "- N/A -   "
0.59, 39.6304, 0.00112181, NaN, NaN, NaN, 0.03112983, "- N/A -   "
0.6, 39.98419, 0.00113847, NaN, NaN, NaN, 0.03112983, "- N/A -   "
0.61, 40.33803, 0.00115513, NaN, NaN, NaN, 0.03112983, "- N/A -   "
0.62, 40.57393, 0.00117179, NaN, NaN, NaN, 0.0323506, "- N/A -   "
0.63, 40.9278, 0.001185673, NaN, NaN, NaN, 0.0323506, "- N/A -   "
0.64, 41.16367, 0.00120233, NaN, NaN, NaN, 0.0335714, "- N/A -   "
0.65, 41.51751, 0.00121622, NaN, NaN, NaN, 0.0335714, "- N/A -   "
0.66, 41.7534, 0.0012301, NaN, NaN, NaN, 0.0347922, "- N/A -   "
0.67, 42.1072, 0.00124398, NaN, NaN, NaN, 0.03601294, "- N/A -   "
0.68, 42.4611, 0.00125787, NaN, NaN, NaN, 0.0372337, "- N/A -   "
0.69, 42.579, 0.001274529, NaN, NaN, NaN, 0.0372337, "- N/A -   "
0.7, 43.0508, 0.00128841, NaN, NaN, NaN, 0.0384545, "- N/A -   "
0.71, 43.1688, 0.0013023, NaN, NaN, NaN, 0.0396753, "- N/A -   "
0.72, 43.5226, 0.00131618, NaN, NaN, NaN, 0.04089605, "- N/A -   "
0.73, 43.6406, 0.00133284, NaN, NaN, NaN, 0.04211683, "- N/A -   "
0.74, 44.1124, 0.00134672, NaN, NaN, NaN, 0.04211683, "- N/A -   "
0.75, 44.34825, 0.00136061, NaN, NaN, NaN, 0.0433376, "- N/A -   "
0.76, 44.58414, 0.00137727, NaN, NaN, NaN, 0.0433376, "- N/A -   "
0.77, 44.93799, 0.00138838, NaN, NaN, NaN, 0.04577916, "- N/A -   "
0.78, 45.29183, 0.00140504, NaN, NaN, NaN, 0.04577916, "- N/A -   "
0.79, 45.5277, 0.00141892, NaN, NaN, NaN, 0.04699994, "- N/A -   "
0.8, 45.76362, 0.00143558, NaN, NaN, NaN, 0.0482207, "- N/A -   "
0.81, 46.11746, 0.00144946, NaN, NaN, NaN, 0.0482207, "- N/A -   "
0.82, 46.4713, 0.00146612, NaN, NaN, NaN, 0.0482207, "- N/A -   "
0.83, 46.7072, 0.00148279, NaN, NaN, NaN, 0.0494415, "- N/A -   "
0.84, 47.179, 0.001499446, NaN, NaN, NaN, 0.0482207, "- N/A -   "
0.85, 47.5328, 0.00151611, NaN, NaN, NaN, 0.0482207, "- N/A -   "
0.86, 47.8867, 0.001532767, NaN, NaN, NaN, 0.0482207, "- N/A -   "
0.87, 48.2405, 0.0015522, NaN, NaN, NaN, 0.04699994, "- N/A -   "
0.88, 48.59436, 0.00157164, NaN, NaN, NaN, 0.04577916, "- N/A -   "
0.89, 49.0661, 0.00159386, NaN, NaN, NaN, 0.0445584, "- N/A -   "
0.9, 49.5379, 0.00161329, NaN, NaN, NaN, 0.0433376, "- N/A -   "
0.91, 49.8918, 0.00163273, NaN, NaN, NaN, 0.04211683, "- N/A -   "
0.92, 50.2456, 0.00164939, NaN, NaN, NaN, 0.04089605, "- N/A -   "
0.93, 50.5995, 0.00166883, NaN, NaN, NaN, 0.0396753, "- N/A -   "
0.94, 51.1892, 0.00168827, NaN, NaN, NaN, 0.0384545, "- N/A -   "
0.95, 51.543, 0.0017077, NaN, NaN, NaN, 0.0372337, "- N/A -   "
0.96, 51.7789, 0.00172714, NaN, NaN, NaN, 0.03601294, "- N/A -   "
0.97, 52.1328, 0.0017438, NaN, NaN, NaN, 0.03601294, "- N/A -   "
0.98, 52.6046, 0.00176046, NaN, NaN, NaN, 0.03601294, "- N/A -   "
0.99, 52.9584, 0.001779898, NaN, NaN, NaN, 0.0347922, "- N/A -   "
1, 53.19431, 0.00179656, NaN, NaN, NaN, 0.0347922, "- N/A -   "
1.01, 53.6661, 0.00181322, NaN, NaN, NaN, 0.0347922, "- N/A -   "
1.02, 53.902, 0.00183266, NaN, NaN, NaN, 0.0347922, "- N/A -   "
1.03, 54.3738, 0.00184932, NaN, NaN, NaN, 0.0335714, "- N/A -   "
1.04, 54.7276, 0.00186598, NaN, NaN, NaN, 0.0335714, "- N/A -   "
1.05, 54.9635, 0.001879861, NaN, NaN, NaN, 0.0347922, "- N/A -   "
1.06, 55.3174, 0.0018993, NaN, NaN, NaN, 0.0347922, "- N/A -   "
1.07, 55.6712, 0.00191596, NaN, NaN, NaN, 0.0335714, "- N/A -   "
1.08, 56.02505, 0.00193262, NaN, NaN, NaN, 0.0335714, "- N/A -   "
1.09, 56.37889, 0.00195206, NaN, NaN, NaN, 0.0335714, "- N/A -   "
1.1, 56.73273, 0.001968717, NaN, NaN, NaN, 0.0323506, "- N/A -   "
1.11, 57.08658, 0.001990931, NaN, NaN, NaN, 0.03112983, "- N/A -   "
1.12, 57.5584, 0.00201037, NaN, NaN, NaN, 0.0299091, "- N/A -   "
1.13, 58.0302, 0.00202703, NaN, NaN, NaN, 0.0286883, "- N/A -   "
1.14, 58.26605, 0.002046466, NaN, NaN, NaN, 0.0286883, "- N/A -   "
1.15, 58.6199, 0.00206313, NaN, NaN, NaN, 0.0274675, "- N/A -   "
1.16, 58.9737, 0.00207979, NaN, NaN, NaN, 0.0274675, "- N/A -   "
1.17, 59.3276, 0.00209645, NaN, NaN, NaN, 0.0274675, "- N/A -   "
1.18, 59.68142, 0.002113108, NaN, NaN, NaN, 0.0274675, "- N/A -   "
1.19, 60.0353, 0.00212977, NaN, NaN, NaN, 0.0274675, "- N/A -   "
1.2, 60.3891, 0.00214643, NaN, NaN, NaN, 0.0286883, "- N/A -   "
1.21, 60.7429, 0.00216309, NaN, NaN, NaN, 0.0286883, "- N/A -   "
1.22, 60.97884, 0.00217975, NaN, NaN, NaN, 0.0286883, "- N/A -   "
1.23, 61.3327, 0.00219641, NaN, NaN, NaN, 0.0286883, "- N/A -   "
1.24, 61.6865, 0.002213071, NaN, NaN, NaN, 0.0286883, "- N/A -   "
1.25, 62.0404, 0.002226955, NaN, NaN, NaN, 0.0286883, "- N/A -   "
1.26, 62.2763, 0.00224084, NaN, NaN, NaN, 0.0299091, "- N/A -   "
1.27, 62.6301, 0.0022575, NaN, NaN, NaN, 0.03112983, "- N/A -   "
1.28, 62.98395, 0.002271383, NaN, NaN, NaN, 0.03112983, "- N/A -   "
1.29, 63.2198, 0.00228527, NaN, NaN, NaN, 0.0323506, "- N/A -   "
1.3, 63.45574, 0.00229915, NaN, NaN, NaN, 0.0335714, "- N/A -   "
1.31, 63.80958, 0.00231303, NaN, NaN, NaN, 0.0347922, "- N/A -   "
1.32, 64.04548, 0.002326918, NaN, NaN, NaN, 0.03601294, "- N/A -   "
1.33, 64.28137, 0.0023408, NaN, NaN, NaN, 0.0372337, "- N/A -   "
1.34, 64.6352, 0.00235746, NaN, NaN, NaN, 0.0384545, "- N/A -   "
1.35, 64.87111, 0.002371346, NaN, NaN, NaN, 0.0396753, "- N/A -   "
1.36, 65.22495, 0.00238523, NaN, NaN, NaN, 0.0396753, "- N/A -   "
1.37, 65.4608, 0.00240189, NaN, NaN, NaN, 0.04089605, "- N/A -   "
1.38, 65.93263, 0.00241577, NaN, NaN, NaN, 0.04089605, "- N/A -   "
1.39, 66.16853, 0.00242966, NaN, NaN, NaN, 0.04211683, "- N/A -   "
1.4, 66.40443, 0.00244354, NaN, NaN, NaN, 0.0433376, "- N/A -   "
1.41, 66.75827, 0.0024602, NaN, NaN, NaN, 0.0445584, "- N/A -   "
1.42, 66.99416, 0.002474086, NaN, NaN, NaN, 0.0445584, "- N/A -   "
1.43, 67.34801, 0.00249075, NaN, NaN, NaN, 0.0445584, "- N/A -   "
1.44, 67.70185, 0.002507407, NaN, NaN, NaN, 0.0445584, "- N/A -   "
1.45, 68.05569, 0.00252684, NaN, NaN, NaN, 0.0445584, "- N/A -   "
1.46, 68.40953, 0.0025435, NaN, NaN, NaN, 0.0433376, "- N/A -   "
1.47, 68.8813, 0.00256017, NaN, NaN, NaN, 0.0433376, "- N/A -   "
1.48, 69.23517, 0.00257683, NaN, NaN, NaN, 0.0433376, "- N/A -   "
1.49, 69.47106, 0.002593486, NaN, NaN, NaN, 0.0433376, "- N/A -   "
1.5, 69.8249, 0.00261015, NaN, NaN, NaN, 0.0433376, "- N/A -   "
1.51, 70.17874, 0.00262681, NaN, NaN, NaN, 0.0433376, "- N/A -   "
1.52, 70.41464, 0.00264347, NaN, NaN, NaN, 0.0433376, "- N/A -   "
1.53, 70.7685, 0.00265735, NaN, NaN, NaN, 0.0445584, "- N/A -   "
1.54, 71.12233, 0.00267401, NaN, NaN, NaN, 0.0445584, "- N/A -   "
1.55, 71.3582, 0.0026879, NaN, NaN, NaN, 0.04577916, "- N/A -   "
1.56, 71.83001, 0.00270456, NaN, NaN, NaN, 0.04577916, "- N/A -   "
1.57, 72.06591, 0.00272122, NaN, NaN, NaN, 0.04577916, "- N/A -   "
1.58, 72.5377, 0.00274065, NaN, NaN, NaN, 0.04577916, "- N/A -   "
1.59, 72.77359, 0.00275731, NaN, NaN, NaN, 0.04577916, "- N/A -   "
1.6, 73.2454, 0.00277398, NaN, NaN, NaN, 0.0445584, "- N/A -   "
1.61, 73.59922, 0.00279341, NaN, NaN, NaN, 0.0433376, "- N/A -   "
1.62, 73.9531, 0.00281285, NaN, NaN, NaN, 0.0433376, "- N/A -   "
1.63, 74.3069, 0.00283229, NaN, NaN, NaN, 0.04211683, "- N/A -   "
1.64, 74.66075, 0.00285172, NaN, NaN, NaN, 0.04089605, "- N/A -   "
1.65, 75.0146, 0.00286838, NaN, NaN, NaN, 0.0396753, "- N/A -   "
1.66, 75.6043, 0.002887822, NaN, NaN, NaN, 0.0384545, "- N/A -   "
1.67, 75.8402, 0.00290726, NaN, NaN, NaN, 0.0372337, "- N/A -   "
1.68, 76.31202, 0.0029267, NaN, NaN, NaN, 0.03601294, "- N/A -   "
1.69, 76.7838, 0.00294613, NaN, NaN, NaN, 0.0347922, "- N/A -   "
1.7, 77.13765, 0.00296835, NaN, NaN, NaN, 0.0335714, "- N/A -   "
1.71, 77.6094, 0.002987785, NaN, NaN, NaN, 0.03112983, "- N/A -   "
1.72, 77.96328, 0.00300722, NaN, NaN, NaN, 0.03112983, "- N/A -   "
1.73, 78.4351, 0.00302388, NaN, NaN, NaN, 0.0299091, "- N/A -   "
1.74, 78.67096, 0.00304054, NaN, NaN, NaN, 0.0299091, "- N/A -   "
1.75, 79.0248, 0.003057204, NaN, NaN, NaN, 0.0299091, "- N/A -   "
1.76, 79.2607, 0.00307386, NaN, NaN, NaN, 0.0299091, "- N/A -   "
1.77, 79.61454, 0.00309052, NaN, NaN, NaN, 0.0299091, "- N/A -   "
1.78, 80.0863, 0.003109962, NaN, NaN, NaN, 0.0299091, "- N/A -   "
1.79, 80.32223, 0.003123846, NaN, NaN, NaN, 0.0299091, "- N/A -   "
1.8, 80.67606, 0.003143283, NaN, NaN, NaN, 0.0299091, "- N/A -   "
1.81, 81.0299, 0.003157167, NaN, NaN, NaN, 0.0299091, "- N/A -   "
1.82, 81.38376, 0.00317383, NaN, NaN, NaN, 0.0299091, "- N/A -   "
1.83, 81.61965, 0.003190488, NaN, NaN, NaN, 0.0299091, "- N/A -   "
1.84, 81.97349, 0.00320437, NaN, NaN, NaN, 0.03112983, "- N/A -   "
1.85, 82.32734, 0.00322103, NaN, NaN, NaN, 0.03112983, "- N/A -   "
1.86, 82.56323, 0.003234916, NaN, NaN, NaN, 0.0323506, "- N/A -   "
1.87, 82.91707, 0.00325158, NaN, NaN, NaN, 0.0335714, "- N/A -   "
1.88, 83.15297, 0.00326546, NaN, NaN, NaN, 0.0347922, "- N/A -   "
1.89, 83.50681, 0.003279344, NaN, NaN, NaN, 0.0347922, "- N/A -   "
1.9, 83.74271, 0.003296, NaN, NaN, NaN, 0.0347922, "- N/A -   "
1.91, 84.21449, 0.003312665, NaN, NaN, NaN, 0.03601294, "- N/A -   "
1.92, 84.45039, 0.00332655, NaN, NaN, NaN, 0.03601294, "- N/A -   "
1.93, 84.80424, 0.00334321, NaN, NaN, NaN, 0.03601294, "- N/A -   "
1.94, 85.15807, 0.00335987, NaN, NaN, NaN, 0.0372337, "- N/A -   "
1.95, 85.51192, 0.00337653, NaN, NaN, NaN, 0.0372337, "- N/A -   "
1.96, 85.86576, 0.00339319, NaN, NaN, NaN, 0.0372337, "- N/A -   "
1.97, 86.1017, 0.003409851, NaN, NaN, NaN, 0.0372337, "- N/A -   "
1.98, 86.33755, 0.003423735, NaN, NaN, NaN, 0.0372337, "- N/A -   "
1.99, 86.69139, 0.0034404, NaN, NaN, NaN, 0.0372337, "- N/A -   "
2, 87.16318, 0.00345706, NaN, NaN, NaN, 0.0372337, "- N/A -   "
2.01, 87.51702, 0.00347372, NaN, NaN, NaN, 0.0372337, "- N/A -   "
2.02, 87.75292, 0.00349315, NaN, NaN, NaN, 0.0372337, "- N/A -   "
2.03, 88.22471, 0.00350981, NaN, NaN, NaN, 0.03601294, "- N/A -   "
2.04, 88.4606, 0.003523698, NaN, NaN, NaN, 0.0372337, "- N/A -   "
2.05, 88.9324, 0.00354036, NaN, NaN, NaN, 0.0372337, "- N/A -   "
2.06, 89.05035, 0.00355702, NaN, NaN, NaN, 0.0384545, "- N/A -   "
2.07, 89.40418, 0.0035709, NaN, NaN, NaN, 0.0396753, "- N/A -   "
2.08, 89.6401, 0.00358479, NaN, NaN, NaN, 0.0396753, "- N/A -   "
2.09, 89.87598, 0.00359867, NaN, NaN, NaN, 0.04089605, "- N/A -   "
2.1, 90.11186, 0.00361255, NaN, NaN, NaN, 0.04211683, "- N/A -   "
2.11, 90.4657, 0.00362644, NaN, NaN, NaN, 0.0433376, "- N/A -   "
2.12, 90.81956, 0.0036431, NaN, NaN, NaN, 0.0433376, "- N/A -   "
2.13, 91.1734, 0.003659759, NaN, NaN, NaN, 0.0445584, "- N/A -   "
2.14, 91.52724, 0.00367642, NaN, NaN, NaN, 0.0445584, "- N/A -   "
2.15, 91.88108, 0.0036903, NaN, NaN, NaN, 0.0445584, "- N/A -   "
2.16, 92.117, 0.00370696, NaN, NaN, NaN, 0.0445584, "- N/A -   "
2.17, 92.47082, 0.00372362, NaN, NaN, NaN, 0.04577916, "- N/A -   "
2.18, 92.82466, 0.00373751, NaN, NaN, NaN, 0.04577916, "- N/A -   "
2.19, 93.1785, 0.00375417, NaN, NaN, NaN, 0.04577916, "- N/A -   "
2.2, 93.53234, 0.003770829, NaN, NaN, NaN, 0.04577916, "- N/A -   "
2.21, 93.65029, 0.00378749, NaN, NaN, NaN, 0.04577916, "- N/A -   "
2.22, 94.24, 0.00380693, NaN, NaN, NaN, 0.0445584, "- N/A -   "
2.23, 94.47592, 0.003826364, NaN, NaN, NaN, 0.0433376, "- N/A -   "
2.24, 94.9477, 0.0038458, NaN, NaN, NaN, 0.0433376, "- N/A -   "
2.25, 95.30156, 0.00386524, NaN, NaN, NaN, 0.04089605, "- N/A -   "
2.26, 95.6554, 0.003884676, NaN, NaN, NaN, 0.0396753, "- N/A -   "
2.27, 96.12719, 0.00390689, NaN, NaN, NaN, 0.0384545, "- N/A -   "
2.28, 96.599, 0.003926327, NaN, NaN, NaN, 0.03601294, "- N/A -   "
2.29, 97.07077, 0.00394576, NaN, NaN, NaN, 0.0347922, "- N/A -   "
2.3, 97.30666, 0.003965202, NaN, NaN, NaN, 0.0347922, "- N/A -   "
2.31, 97.6605, 0.003981862, NaN, NaN, NaN, 0.0335714, "- N/A -   "
2.32, 98.13229, 0.004004076, NaN, NaN, NaN, 0.0323506, "- N/A -   "
2.33, 98.4861, 0.00402351, NaN, NaN, NaN, 0.03112983, "- N/A -   "
2.34, 98.9579, 0.00404295, NaN, NaN, NaN, 0.0299091, "- N/A -   "
2.35, 99.1938, 0.00405961, NaN, NaN, NaN, 0.0286883, "- N/A -   "
2.36, 99.54767, 0.004076272, NaN, NaN, NaN, 0.0286883, "- N/A -   "
2.37, 99.9015, 0.004092932, NaN, NaN, NaN, 0.0286883, "- N/A -   "
2.38, 100.137, 0.00410959, NaN, NaN, NaN, 0.0299091, "- N/A -   "
2.39, 100.3733, 0.004123477, NaN, NaN, NaN, 0.0299091, "- N/A -   "
2.4, 100.845, 0.004140137, NaN, NaN, NaN, 0.0299091, "- N/A -   "
2.41, 101.081, 0.004154021, NaN, NaN, NaN, 0.03112983, "- N/A -   "
2.42, 101.317, 0.0041679, NaN, NaN, NaN, 0.0323506, "- N/A -   "
2.43, 101.553, 0.004184565, NaN, NaN, NaN, 0.0323506, "- N/A -   "
2.44, 101.907, 0.00419845, NaN, NaN, NaN, 0.0335714, "- N/A -   "
2.45, 102.26, 0.004215109, NaN, NaN, NaN, 0.0335714, "- N/A -   "
2.46, 102.496, 0.00423177, NaN, NaN, NaN, 0.0335714, "- N/A -   "
2.47, 102.85, 0.00424843, NaN, NaN, NaN, 0.0335714, "- N/A -   "
2.48, 103.204, 0.004265091, NaN, NaN, NaN, 0.0335714, "- N/A -   "
2.49, 103.44, 0.00428175, NaN, NaN, NaN, 0.0347922, "- N/A -   "
2.5, 103.794, 0.004298412, NaN, NaN, NaN, 0.0347922, "- N/A -   "
2.51, 104.148, 0.004312296, NaN, NaN, NaN, 0.0347922, "- N/A -   "
2.52, 104.501, 0.00433173, NaN, NaN, NaN, 0.0335714, "- N/A -   "
2.53, 104.737, 0.00434839, NaN, NaN, NaN, 0.0335714, "- N/A -   "
2.54, 105.091, 0.004365054, NaN, NaN, NaN, 0.0347922, "- N/A -   "
2.55, 105.327, 0.00438171, NaN, NaN, NaN, 0.0347922, "- N/A -   "
2.56, 105.681, 0.004398375, NaN, NaN, NaN, 0.0347922, "- N/A -   "
2.57, 106.035, 0.00441504, NaN, NaN, NaN, 0.0335714, "- N/A -   "
2.58, 106.389, 0.004434473, NaN, NaN, NaN, 0.0335714, "- N/A -   "
2.59, 106.742, 0.00445391, NaN, NaN, NaN, 0.0323506, "- N/A -   "
2.6, 107.0963, 0.00447057, NaN, NaN, NaN, 0.0323506, "- N/A -   "
2.61, 107.45, 0.004484454, NaN, NaN, NaN, 0.0323506, "- N/A -   "
2.62, 107.686, 0.00450111, NaN, NaN, NaN, 0.0323506, "- N/A -   "
2.63, 108.04, 0.00451778, NaN, NaN, NaN, 0.0335714, "- N/A -   "
2.64, 108.276, 0.004531659, NaN, NaN, NaN, 0.0335714, "- N/A -   "
2.65, 108.63, 0.00454832, NaN, NaN, NaN, 0.0335714, "- N/A -   "
2.66, 108.866, 0.00456498, NaN, NaN, NaN, 0.0335714, "- N/A -   "
2.67, 109.219, 0.00458164, NaN, NaN, NaN, 0.0335714, "- N/A -   "
2.68, 109.5732, 0.004595524, NaN, NaN, NaN, 0.0347922, "- N/A -   "
2.69, 109.8091, 0.004609408, NaN, NaN, NaN, 0.03601294, "- N/A -   "
2.7, 110.163, 0.00462607, NaN, NaN, NaN, 0.03601294, "- N/A -   "
2.71, 110.399, 0.004642729, NaN, NaN, NaN, 0.0372337, "- N/A -   "
2.72, 110.635, 0.004656613, NaN, NaN, NaN, 0.0372337, "- N/A -   "
2.73, 110.989, 0.0046705, NaN, NaN, NaN, 0.0384545, "- N/A -   "
2.74, 111.224, 0.004687157, NaN, NaN, NaN, 0.0396753, "- N/A -   "
2.75, 111.46, 0.004701041, NaN, NaN, NaN, 0.04089605, "- N/A -   "
2.76, 111.8142, 0.00471492, NaN, NaN, NaN, 0.04089605, "- N/A -   "
2.77, 112.0501, 0.00473159, NaN, NaN, NaN, 0.04211683, "- N/A -   "
2.78, 112.286, 0.004745469, NaN, NaN, NaN, 0.04211683, "- N/A -   "
2.79, 112.64, 0.00476213, NaN, NaN, NaN, 0.0433376, "- N/A -   "
2.8, 112.876, 0.00477879, NaN, NaN, NaN, 0.04211683, "- N/A -   "
2.81, 113.348, 0.00479545, NaN, NaN, NaN, 0.04211683, "- N/A -   "
2.82, 113.701, 0.00481489, NaN, NaN, NaN, 0.04089605, "- N/A -   "
2.83, 114.055, 0.0048371, NaN, NaN, NaN, 0.0396753, "- N/A -   "
2.84, 114.527, 0.004853762, NaN, NaN, NaN, 0.0384545, "- N/A -   "
2.85, 114.763, 0.0048732, NaN, NaN, NaN, 0.0372337, "- N/A -   "
2.86, 115.117, 0.00488986, NaN, NaN, NaN, 0.0372337, "- N/A -   "
2.87, 115.471, 0.00490652, NaN, NaN, NaN, 0.0372337, "- N/A -   "
2.88, 115.824, 0.0049204, NaN, NaN, NaN, 0.0384545, "- N/A -   "
2.89, 116.06, 0.004939841, NaN, NaN, NaN, 0.0372337, "- N/A -   "
2.9, 116.414, 0.004956502, NaN, NaN, NaN, 0.0372337, "- N/A -   "
2.91, 116.65, 0.00497316, NaN, NaN, NaN, 0.0372337, "- N/A -   "
2.92, 117.004, 0.00498982, NaN, NaN, NaN, 0.0372337, "- N/A -   "
2.93, 117.358, 0.00500926, NaN, NaN, NaN, 0.0372337, "- N/A -   "
2.94, 117.594, 0.005025921, NaN, NaN, NaN, 0.03601294, "- N/A -   "
2.95, 117.83, 0.00504258, NaN, NaN, NaN, 0.03601294, "- N/A -   "
2.96, 118.183, 0.00505924, NaN, NaN, NaN, 0.03601294, "- N/A -   "
2.97, 118.419, 0.00507313, NaN, NaN, NaN, 0.0372337, "- N/A -   "
2.98, 118.7731, 0.00508979, NaN, NaN, NaN, 0.0372337, "- N/A -   "
2.99, 119.009, 0.00510645, NaN, NaN, NaN, 0.0372337, "- N/A -   "
3, 119.481, 0.005125884, NaN, NaN, NaN, 0.03601294, "- N/A -   "
3.01, 119.835, 0.00514254, NaN, NaN, NaN, 0.03601294, "- N/A -   "
3.02, 120.188, 0.00516198, NaN, NaN, NaN, 0.0347922, "- N/A -   "
3.03, 120.424, 0.00517864, NaN, NaN, NaN, 0.0347922, "- N/A -   "
3.04, 120.778, 0.005198079, NaN, NaN, NaN, 0.0347922, "- N/A -   "
3.05, 121.132, 0.00521474, NaN, NaN, NaN, 0.0347922, "- N/A -   "
3.06, 121.368, 0.00522862, NaN, NaN, NaN, 0.0347922, "- N/A -   "
3.07, 121.604, 0.00524806, NaN, NaN, NaN, 0.0347922, "- N/A -   "
3.08, 121.958, 0.00526472, NaN, NaN, NaN, 0.0335714, "- N/A -   "
3.09, 122.312, 0.00528138, NaN, NaN, NaN, 0.0335714, "- N/A -   "
3.1, 122.547, 0.00529804, NaN, NaN, NaN, 0.0335714, "- N/A -   "
3.11, 122.901, 0.00531748, NaN, NaN, NaN, 0.0335714, "- N/A -   "
3.12, 123.137, 0.00533414, NaN, NaN, NaN, 0.0335714, "- N/A -   "
3.13, 123.491, 0.0053508, NaN, NaN, NaN, 0.0335714, "- N/A -   "
3.14, 123.7269, 0.00536746, NaN, NaN, NaN, 0.0323506, "- N/A -   "
3.15, 124.081, 0.00538412, NaN, NaN, NaN, 0.0323506, "- N/A -   "
3.16, 124.435, 0.00540078, NaN, NaN, NaN, 0.0323506, "- N/A -   "
3.17, 124.67, 0.00542022, NaN, NaN, NaN, 0.0323506, "- N/A -   "
3.18, 125.024, 0.00543688, NaN, NaN, NaN, 0.03112983, "- N/A -   "
3.19, 125.26, 0.00545076, NaN, NaN, NaN, 0.0323506, "- N/A -   "
3.2, 125.614, 0.00546742, NaN, NaN, NaN, 0.0323506, "- N/A -   "
3.21, 125.85, 0.00548408, NaN, NaN, NaN, 0.0335714, "- N/A -   "
3.22, 126.086, 0.00549797, NaN, NaN, NaN, 0.0335714, "- N/A -   "
3.23, 126.322, 0.005514629, NaN, NaN, NaN, 0.0335714, "- N/A -   "
3.24, 126.676, 0.00553129, NaN, NaN, NaN, 0.0347922, "- N/A -   "
3.25, 126.911, 0.00554795, NaN, NaN, NaN, 0.0347922, "- N/A -   "
3.26, 127.147, 0.00556183, NaN, NaN, NaN, 0.0347922, "- N/A -   "
3.27, 127.501, 0.00557849, NaN, NaN, NaN, 0.0347922, "- N/A -   "
3.28, 127.737, 0.00559515, NaN, NaN, NaN, 0.0347922, "- N/A -   "
3.29, 127.973, 0.00561182, NaN, NaN, NaN, 0.0347922, "- N/A -   "
3.3, 128.209, 0.005628476, NaN, NaN, NaN, 0.0347922, "- N/A -   "
3.31, 128.563, 0.00564514, NaN, NaN, NaN, 0.03601294, "- N/A -   "
3.32, 128.799, 0.00565902, NaN, NaN, NaN, 0.03601294, "- N/A -   "
3.33, 129.152, 0.00567568, NaN, NaN, NaN, 0.03601294, "- N/A -   "
3.34, 129.388, 0.00569512, NaN, NaN, NaN, 0.03601294, "- N/A -   "
3.35, 129.624, 0.005709002, NaN, NaN, NaN, 0.03601294, "- N/A -   "
3.36, 129.86, 0.00572566, NaN, NaN, NaN, 0.03601294, "- N/A -   "
3.37, 130.214, 0.0057451, NaN, NaN, NaN, 0.03601294, "- N/A -   "
3.38, 130.568, 0.00576176, NaN, NaN, NaN, 0.0347922, "- N/A -   "
3.39, 130.922, 0.0057812, NaN, NaN, NaN, 0.0335714, "- N/A -   "
3.4, 131.276, 0.005797858, NaN, NaN, NaN, 0.0335714, "- N/A -   "
3.41, 131.393, 0.005814519, NaN, NaN, NaN, 0.0335714, "- N/A -   "
3.42, 131.747, 0.00583118, NaN, NaN, NaN, 0.0335714, "- N/A -   "
3.43, 132.101, 0.005845063, NaN, NaN, NaN, 0.0347922, "- N/A -   "
3.44, 132.337, 0.005861723, NaN, NaN, NaN, 0.0347922, "- N/A -   "
3.45, 132.573, 0.005875607, NaN, NaN, NaN, 0.03601294, "- N/A -   "
3.46, 132.809, 0.00588949, NaN, NaN, NaN, 0.0372337, "- N/A -   "
3.47, 132.9268, 0.00590337, NaN, NaN, NaN, 0.0384545, "- N/A -   "
3.48, 133.163, 0.005917258, NaN, NaN, NaN, 0.0396753, "- N/A -   "
3.49, 133.517, 0.005933919, NaN, NaN, NaN, 0.0396753, "- N/A -   "
3.5, 133.87, 0.005950579, NaN, NaN, NaN, 0.0396753, "- N/A -   "
3.51, 134.224, 0.00597002, NaN, NaN, NaN, 0.0396753, "- N/A -   "
3.52, 134.46, 0.005986677, NaN, NaN, NaN, 0.0396753, "- N/A -   "
3.53, 134.696, 0.006003338, NaN, NaN, NaN, 0.0396753, "- N/A -   "
3.54, 134.932, 0.006017221, NaN, NaN, NaN, 0.04089605, "- N/A -   "
3.55, 135.286, 0.006031105, NaN, NaN, NaN, 0.04089605, "- N/A -   "
3.56, 135.522, 0.00604777, NaN, NaN, NaN, 0.04089605, "- N/A -   "
3.57, 135.758, 0.006061649, NaN, NaN, NaN, 0.04211683, "- N/A -   "
3.58, 136.111, 0.00607831, NaN, NaN, NaN, 0.04211683, "- N/A -   "
3.59, 136.347, 0.00609497, NaN, NaN, NaN, 0.04211683, "- N/A -   "
3.6, 136.583, 0.006108854, NaN, NaN, NaN, 0.0433376, "- N/A -   "
3.61, 136.937, 0.006128291, NaN, NaN, NaN, 0.04211683, "- N/A -   "
3.62, 137.173, 0.006144952, NaN, NaN, NaN, 0.0433376, "- N/A -   "
3.63, 137.527, 0.00615884, NaN, NaN, NaN, 0.0445584, "- N/A -   "
3.64, 137.763, 0.006175496, NaN, NaN, NaN, 0.0445584, "- N/A -   "
3.65, 138.116, 0.006192157, NaN, NaN, NaN, 0.0445584, "- N/A -   "
3.66, 138.352, 0.00621159, NaN, NaN, NaN, 0.0433376, "- N/A -   "
3.67, 138.706, 0.006228254, NaN, NaN, NaN, 0.0433376, "- N/A -   "
3.68, 139.06, 0.006247692, NaN, NaN, NaN, 0.04211683, "- N/A -   "
3.69, 139.414, 0.00626991, NaN, NaN, NaN, 0.04089605, "- N/A -   "
3.7, 139.768, 0.006289343, NaN, NaN, NaN, 0.0396753, "- N/A -   "
3.71, 140.24, 0.00630878, NaN, NaN, NaN, 0.0372337, "- N/A -   "
3.72, 140.593, 0.006330994, NaN, NaN, NaN, 0.0347922, "- N/A -   "
3.73, 140.947, 0.006347655, NaN, NaN, NaN, 0.0347922, "- N/A -   "
3.74, 141.183, 0.006367092, NaN, NaN, NaN, 0.0335714, "- N/A -   "
3.75, 141.537, 0.00638375, NaN, NaN, NaN, 0.0335714, "- N/A -   "
3.76, 141.773, 0.006400413, NaN, NaN, NaN, 0.0335714, "- N/A -   "
3.77, 142.009, 0.00641707, NaN, NaN, NaN, 0.0335714, "- N/A -   "
3.78, 142.245, 0.006433734, NaN, NaN, NaN, 0.0335714, "- N/A -   "
3.79, 142.5985, 0.006450394, NaN, NaN, NaN, 0.0347922, "- N/A -   "
3.8, 142.8344, 0.00646428, NaN, NaN, NaN, 0.0347922, "- N/A -   "
3.81, 143.07, 0.006480939, NaN, NaN, NaN, 0.0347922, "- N/A -   "
3.82, 143.424, 0.006497599, NaN, NaN, NaN, 0.0347922, "- N/A -   "
3.83, 143.66, 0.00651426, NaN, NaN, NaN, 0.0347922, "- N/A -   "
3.84, 143.896, 0.00653092, NaN, NaN, NaN, 0.03601294, "- N/A -   "
3.85, 144.368, 0.006547581, NaN, NaN, NaN, 0.0347922, "- N/A -   "
3.86, 144.486, 0.00656424, NaN, NaN, NaN, 0.0347922, "- N/A -   "
3.87, 144.8395, 0.0065809, NaN, NaN, NaN, 0.0347922, "- N/A -   "
3.88, 145.0754, 0.006597562, NaN, NaN, NaN, 0.0347922, "- N/A -   "
3.89, 145.429, 0.006614223, NaN, NaN, NaN, 0.03601294, "- N/A -   "
3.9, 145.783, 0.00663088, NaN, NaN, NaN, 0.0347922, "- N/A -   "
3.91, 146.137, 0.006650321, NaN, NaN, NaN, 0.0347922, "- N/A -   "
3.92, 146.3728, 0.006666981, NaN, NaN, NaN, 0.0335714, "- N/A -   "
3.93, 146.727, 0.00668642, NaN, NaN, NaN, 0.0323506, "- N/A -   "
3.94, 147.0805, 0.006703079, NaN, NaN, NaN, 0.0323506, "- N/A -   "
3.95, 147.316, 0.00672252, NaN, NaN, NaN, 0.03112983, "- N/A -   "
3.96, 147.67, 0.00674195, NaN, NaN, NaN, 0.0299091, "- N/A -   "
3.97, 148.024, 0.006761391, NaN, NaN, NaN, 0.0299091, "- N/A -   "
3.98, 148.378, 0.00677527, NaN, NaN, NaN, 0.0299091, "- N/A -   "
3.99, 148.6138, 0.006794712, NaN, NaN, NaN, 0.0299091, "- N/A -   "
4, 148.8497, 0.0068086, NaN, NaN, NaN, 0.0299091, "- N/A -   "
4.01, 149.0856, 0.006828033, NaN, NaN, NaN, 0.0299091, "- N/A -   "
4.02, 149.439, 0.00684469, NaN, NaN, NaN, 0.0299091, "- N/A -   "
4.03, 149.911, 0.006861354, NaN, NaN, NaN, 0.0286883, "- N/A -   "
4.04, 150.029, 0.006878014, NaN, NaN, NaN, 0.0299091, "- N/A -   "
4.05, 150.265, 0.00688912, NaN, NaN, NaN, 0.03112983, "- N/A -   "
4.06, 150.501, 0.006905782, NaN, NaN, NaN, 0.03112983, "- N/A -   "
4.07, 150.855, 0.00692244, NaN, NaN, NaN, 0.0323506, "- N/A -   "
4.08, 150.973, 0.006936326, NaN, NaN, NaN, 0.0323506, "- N/A -   "
4.09, 151.327, 0.00695021, NaN, NaN, NaN, 0.0335714, "- N/A -   "
4.1, 151.445, 0.00696409, NaN, NaN, NaN, 0.0347922, "- N/A -   "
4.11, 151.68, 0.006977977, NaN, NaN, NaN, 0.03601294, "- N/A -   "
4.12, 151.916, 0.00699186, NaN, NaN, NaN, 0.0372337, "- N/A -   "
4.13, 152.27, 0.007005745, NaN, NaN, NaN, 0.0384545, "- N/A -   "
4.14, 152.388, 0.007019629, NaN, NaN, NaN, 0.0396753, "- N/A -   "
4.15, 152.742, 0.00703351, NaN, NaN, NaN, 0.04089605, "- N/A -   "
4.16, 152.86, 0.007047396, NaN, NaN, NaN, 0.04211683, "- N/A -   "
4.17, 153.214, 0.00706128, NaN, NaN, NaN, 0.0433376, "- N/A -   "
4.18, 153.45, 0.00707516, NaN, NaN, NaN, 0.0445584, "- N/A -   "
4.19, 153.686, 0.00708905, NaN, NaN, NaN, 0.04577916, "- N/A -   "
4.2, 153.8035, 0.00710293, NaN, NaN, NaN, 0.04699994, "- N/A -   "
4.21, 154.157, 0.007119592, NaN, NaN, NaN, 0.04699994, "- N/A -   "
4.22, 154.393, 0.00713625, NaN, NaN, NaN, 0.0482207, "- N/A -   "
4.23, 154.747, 0.00715014, NaN, NaN, NaN, 0.0482207, "- N/A -   "
4.24, 154.983, 0.0071668, NaN, NaN, NaN, 0.0482207, "- N/A -   "
4.25, 155.337, 0.00718623, NaN, NaN, NaN, 0.04699994, "- N/A -   "
4.26, 155.691, 0.007205671, NaN, NaN, NaN, 0.04699994, "- N/A -   "
4.27, 155.927, 0.00722233, NaN, NaN, NaN, 0.04577916, "- N/A -   "
4.28, 156.2804, 0.00723899, NaN, NaN, NaN, 0.04577916, "- N/A -   "
4.29, 156.5163, 0.00725843, NaN, NaN, NaN, 0.0445584, "- N/A -   "
4.3, 157.106, 0.00728064, NaN, NaN, NaN, 0.0433376, "- N/A -   "
4.31, 157.342, 0.0072973, NaN, NaN, NaN, 0.04211683, "- N/A -   "
4.32, 157.696, 0.007319518, NaN, NaN, NaN, 0.04089605, "- N/A -   "
4.33, 158.0496, 0.007336179, NaN, NaN, NaN, 0.0396753, "- N/A -   "
4.34, 158.2855, 0.00735284, NaN, NaN, NaN, 0.0396753, "- N/A -   "
4.35, 158.639, 0.0073695, NaN, NaN, NaN, 0.0396753, "- N/A -   "
4.36, 158.9932, 0.007388937, NaN, NaN, NaN, 0.0396753, "- N/A -   "
4.37, 159.229, 0.00740282, NaN, NaN, NaN, 0.0396753, "- N/A -   "
4.38, 159.583, 0.00742226, NaN, NaN, NaN, 0.0396753, "- N/A -   "
4.39, 159.701, 0.00743892, NaN, NaN, NaN, 0.0384545, "- N/A -   "
4.4, 160.173, 0.00745558, NaN, NaN, NaN, 0.0384545, "- N/A -   "
4.41, 160.409, 0.00747502, NaN, NaN, NaN, 0.0372337, "- N/A -   "
4.42, 160.88, 0.00749445, NaN, NaN, NaN, 0.03601294, "- N/A -   "
4.43, 161.116, 0.007511114, NaN, NaN, NaN, 0.03601294, "- N/A -   "
4.44, 161.4701, 0.00752777, NaN, NaN, NaN, 0.03601294, "- N/A -   "
4.45, 161.706, 0.00754443, NaN, NaN, NaN, 0.03601294, "- N/A -   "
4.46, 161.942, 0.0075611, NaN, NaN, NaN, 0.03601294, "- N/A -   "
4.47, 162.296, 0.00758053, NaN, NaN, NaN, 0.03601294, "- N/A -   "
4.48, 162.532, 0.007597193, NaN, NaN, NaN, 0.0347922, "- N/A -   "
4.49, 162.885, 0.00761663, NaN, NaN, NaN, 0.0347922, "- N/A -   "
4.5, 163.2393, 0.00763329, NaN, NaN, NaN, 0.0335714, "- N/A -   "
4.51, 163.593, 0.007655505, NaN, NaN, NaN, 0.0323506, "- N/A -   "
4.52, 163.947, 0.007674942, NaN, NaN, NaN, 0.0299091, "- N/A -   "
4.53, 164.419, 0.00769438, NaN, NaN, NaN, 0.0286883, "- N/A -   "
4.54, 164.655, 0.00771382, NaN, NaN, NaN, 0.0286883, "- N/A -   "
4.55, 165.009, 0.007730477, NaN, NaN, NaN, 0.0274675, "- N/A -   "
4.56, 165.2444, 0.007747138, NaN, NaN, NaN, 0.0286883, "- N/A -   "
4.57, 165.598, 0.007763798, NaN, NaN, NaN, 0.0274675, "- N/A -   "
4.58, 165.834, 0.007780459, NaN, NaN, NaN, 0.0274675, "- N/A -   "
4.59, 166.07, 0.007797119, NaN, NaN, NaN, 0.0286883, "- N/A -   "
4.6, 166.306, 0.007811003, NaN, NaN, NaN, 0.0286883, "- N/A -   "
4.61, 166.542, 0.007824887, NaN, NaN, NaN, 0.0299091, "- N/A -   "
4.62, 166.896, 0.007841547, NaN, NaN, NaN, 0.0299091, "- N/A -   "
4.63, 167.132, 0.007858207, NaN, NaN, NaN, 0.0299091, "- N/A -   "
4.64, 167.485, 0.007874868, NaN, NaN, NaN, 0.0299091, "- N/A -   "
4.65, 167.7213, 0.007891529, NaN, NaN, NaN, 0.03112983, "- N/A -   "
4.66, 167.9572, 0.007908189, NaN, NaN, NaN, 0.03112983, "- N/A -   "
4.67, 168.311, 0.00792485, NaN, NaN, NaN, 0.0299091, "- N/A -   "
4.68, 168.547, 0.00794151, NaN, NaN, NaN, 0.03112983, "- N/A -   "
4.69, 168.901, 0.00795262, NaN, NaN, NaN, 0.0323506, "- N/A -   "
4.7, 169.019, 0.007966501, NaN, NaN, NaN, 0.0335714, "- N/A -   "
4.71, 169.255, 0.007980385, NaN, NaN, NaN, 0.0347922, "- N/A -   "
4.72, 169.491, 0.007994269, NaN, NaN, NaN, 0.03601294, "- N/A -   "
4.73, 169.726, 0.008008152, NaN, NaN, NaN, 0.0372337, "- N/A -   "
4.74, 169.962, 0.008024813, NaN, NaN, NaN, 0.0372337, "- N/A -   "
4.75, 170.316, 0.008038697, NaN, NaN, NaN, 0.0384545, "- N/A -   "
4.76, 170.552, 0.008055357, NaN, NaN, NaN, 0.0384545, "- N/A -   "
4.77, 170.788, 0.008069241, NaN, NaN, NaN, 0.0396753, "- N/A -   "
4.78, 171.142, 0.008085901, NaN, NaN, NaN, 0.04089605, "- N/A -   "
4.79, 171.26, 0.008097008, NaN, NaN, NaN, 0.04211683, "- N/A -   "
4.8, 171.496, 0.008113669, NaN, NaN, NaN, 0.04211683, "- N/A -   "
4.81, 171.849, 0.008127553, NaN, NaN, NaN, 0.0433376, "- N/A -   "
4.82, 172.085, 0.008141437, NaN, NaN, NaN, 0.0445584, "- N/A -   "
4.83, 172.321, 0.008158097, NaN, NaN, NaN, 0.0445584, "- N/A -   "
4.84, 172.6751, 0.00817476, NaN, NaN, NaN, 0.0445584, "- N/A -   "
4.85, 172.793, 0.008188642, NaN, NaN, NaN, 0.04577916, "- N/A -   "
4.86, 173.265, 0.008205302, NaN, NaN, NaN, 0.04699994, "- N/A -   "
4.87, 173.501, 0.00822196, NaN, NaN, NaN, 0.04577916, "- N/A -   "
4.88, 173.737, 0.008241399, NaN, NaN, NaN, 0.04577916, "- N/A -   "
4.89, 174.09, 0.008258061, NaN, NaN, NaN, 0.0445584, "- N/A -   "
4.9, 174.4443, 0.00827472, NaN, NaN, NaN, 0.0445584, "- N/A -   "
4.91, 174.6802, 0.008291381, NaN, NaN, NaN, 0.0445584, "- N/A -   "
4.92, 174.9161, 0.008308042, NaN, NaN, NaN, 0.0445584, "- N/A -   "
4.93, 175.27, 0.008324702, NaN, NaN, NaN, 0.0445584, "- N/A -   "
4.94, 175.624, 0.008341363, NaN, NaN, NaN, 0.0445584, "- N/A -   "
4.95, 175.978, 0.008358023, NaN, NaN, NaN, 0.0445584, "- N/A -   "
4.96, 176.331, 0.008374684, NaN, NaN, NaN, 0.0445584, "- N/A -   "
4.97, 176.567, 0.008391344, NaN, NaN, NaN, 0.0445584, "- N/A -   "
4.98, 176.803, 0.008410782, NaN, NaN, NaN, 0.0445584, "- N/A -   "
4.99, 177.1571, 0.008427442, NaN, NaN, NaN, 0.0433376, "- N/A -   "
5, 177.511, 0.0084441, NaN, NaN, NaN, 0.0433376, "- N/A -   "
5.01, 177.865, 0.008463539, NaN, NaN, NaN, 0.04211683, "- N/A -   "
5.02, 178.219, 0.008482977, NaN, NaN, NaN, 0.04211683, "- N/A -   "
5.03, 178.455, 0.008502414, NaN, NaN, NaN, 0.04089605, "- N/A -   "
5.04, 178.808, 0.008519075, NaN, NaN, NaN, 0.0396753, "- N/A -   "
5.05, 179.162, 0.00853851, NaN, NaN, NaN, 0.0384545, "- N/A -   "
5.06, 179.516, 0.008555172, NaN, NaN, NaN, 0.0384545, "- N/A -   "
5.07, 179.87, 0.00857461, NaN, NaN, NaN, 0.0372337, "- N/A -   "
5.08, 180.224, 0.008594047, NaN, NaN, NaN, 0.03601294, "- N/A -   "
5.09, 180.578, 0.008616261, NaN, NaN, NaN, 0.0335714, "- N/A -   "
5.1, 180.931, 0.008635699, NaN, NaN, NaN, 0.0323506, "- N/A -   "
5.11, 181.285, 0.00865514, NaN, NaN, NaN, 0.0323506, "- N/A -   "
5.12, 181.639, 0.008674572, NaN, NaN, NaN, 0.0299091, "- N/A -   "
5.13, 181.993, 0.008691234, NaN, NaN, NaN, 0.0299091, "- N/A -   "
5.14, 182.3468, 0.00871067, NaN, NaN, NaN, 0.0299091, "- N/A -   "
5.15, 182.583, 0.008727332, NaN, NaN, NaN, 0.0299091, "- N/A -   "
5.16, 182.937, 0.008743991, NaN, NaN, NaN, 0.0299091, "- N/A -   "
5.17, 183.172, 0.008757875, NaN, NaN, NaN, 0.0299091, "- N/A -   "
5.18, 183.408, 0.008774536, NaN, NaN, NaN, 0.0299091, "- N/A -   "
5.19, 183.762, 0.008791196, NaN, NaN, NaN, 0.0299091, "- N/A -   "
5.2, 183.998, 0.008810634, NaN, NaN, NaN, 0.0299091, "- N/A -   "
5.21, 184.3519, 0.008824518, NaN, NaN, NaN, 0.0299091, "- N/A -   "
5.22, 184.47, 0.008841177, NaN, NaN, NaN, 0.0299091, "- N/A -   "
5.23, 184.824, 0.008857839, NaN, NaN, NaN, 0.0299091, "- N/A -   "
5.24, 185.178, 0.008874499, NaN, NaN, NaN, 0.0299091, "- N/A -   "
5.25, 185.531, 0.00889116, NaN, NaN, NaN, 0.0299091, "- N/A -   "
5.26, 185.767, 0.00890782, NaN, NaN, NaN, 0.0299091, "- N/A -   "
5.27, 186.003, 0.00892448, NaN, NaN, NaN, 0.0299091, "- N/A -   "
5.28, 186.239, 0.00893559, NaN, NaN, NaN, 0.0323506, "- N/A -   "
5.29, 186.475, 0.008949472, NaN, NaN, NaN, 0.0335714, "- N/A -   "
5.3, 186.711, 0.008968908, NaN, NaN, NaN, 0.0323506, "- N/A -   "
5.31, 187.065, 0.00898279, NaN, NaN, NaN, 0.0335714, "- N/A -   "
5.32, 187.419, 0.008999453, NaN, NaN, NaN, 0.0335714, "- N/A -   "
5.33, 187.654, 0.00901889, NaN, NaN, NaN, 0.0335714, "- N/A -   "
5.34, 188.008, 0.009035551, NaN, NaN, NaN, 0.0323506, "- N/A -   "
5.35, 188.244, 0.00905221, NaN, NaN, NaN, 0.0323506, "- N/A -   "
5.36, 188.48, 0.009068872, NaN, NaN, NaN, 0.0335714, "- N/A -   "
5.37, 188.716, 0.009082756, NaN, NaN, NaN, 0.0335714, "- N/A -   "
5.38, 189.0698, 0.00909942, NaN, NaN, NaN, 0.0347922, "- N/A -   "
5.39, 189.3057, 0.0091133, NaN, NaN, NaN, 0.0347922, "- N/A -   "
5.4, 189.66, 0.009127184, NaN, NaN, NaN, 0.03601294, "- N/A -   "
5.41, 189.895, 0.009143844, NaN, NaN, NaN, 0.0372337, "- N/A -   "
5.42, 190.131, 0.009160505, NaN, NaN, NaN, 0.0372337, "- N/A -   "
5.43, 190.485, 0.009174388, NaN, NaN, NaN, 0.0372337, "- N/A -   "
5.44, 190.721, 0.009193826, NaN, NaN, NaN, 0.03601294, "- N/A -   "
5.45, 191.075, 0.009210486, NaN, NaN, NaN, 0.03601294, "- N/A -   "
5.46, 191.311, 0.009227146, NaN, NaN, NaN, 0.03601294, "- N/A -   "
5.47, 191.665, 0.009243807, NaN, NaN, NaN, 0.03601294, "- N/A -   "
5.48, 191.901, 0.009260467, NaN, NaN, NaN, 0.0372337, "- N/A -   "
5.49, 192.018, 0.009274351, NaN, NaN, NaN, 0.0372337, "- N/A -   "
5.5, 192.49, 0.009288235, NaN, NaN, NaN, 0.0384545, "- N/A -   "
5.51, 192.608, 0.009304896, NaN, NaN, NaN, 0.0396753, "- N/A -   "
5.52, 192.844, 0.009316003, NaN, NaN, NaN, 0.04089605, "- N/A -   "
5.53, 193.08, 0.009332663, NaN, NaN, NaN, 0.04211683, "- N/A -   "
5.54, 193.434, 0.009346547, NaN, NaN, NaN, 0.0433376, "- N/A -   "
5.55, 193.67, 0.009360431, NaN, NaN, NaN, 0.0433376, "- N/A -   "
5.56, 193.906, 0.009377091, NaN, NaN, NaN, 0.0433376, "- N/A -   "
5.57, 194.142, 0.009390975, NaN, NaN, NaN, 0.0445584, "- N/A -   "
5.58, 194.495, 0.009407635, NaN, NaN, NaN, 0.04577916, "- N/A -   "
5.59, 194.731, 0.009421519, NaN, NaN, NaN, 0.04577916, "- N/A -   "
5.6, 195.085, 0.009438179, NaN, NaN, NaN, 0.04577916, "- N/A -   "
5.61, 195.439, 0.00945484, NaN, NaN, NaN, 0.04577916, "- N/A -   "
5.62, 195.5569, 0.009471501, NaN, NaN, NaN, 0.04699994, "- N/A -   "
5.63, 196.0287, 0.009488161, NaN, NaN, NaN, 0.04577916, "- N/A -   "
5.64, 196.383, 0.009507598, NaN, NaN, NaN, 0.04577916, "- N/A -   "
5.65, 196.618, 0.009527036, NaN, NaN, NaN, 0.0445584, "- N/A -   "
5.66, 197.09, 0.009546473, NaN, NaN, NaN, 0.0433376, "- N/A -   "
5.67, 197.444, 0.00956591, NaN, NaN, NaN, 0.04089605, "- N/A -   "
5.68, 197.798, 0.009588124, NaN, NaN, NaN, 0.0396753, "- N/A -   "
5.69, 198.152, 0.009607561, NaN, NaN, NaN, 0.0372337, "- N/A -   "
5.7, 198.624, 0.009629775, NaN, NaN, NaN, 0.03601294, "- N/A -   "
5.71, 198.977, 0.009646436, NaN, NaN, NaN, 0.0347922, "- N/A -   "
5.72, 199.213, 0.009665873, NaN, NaN, NaN, 0.0335714, "- N/A -   "
5.73, 199.567, 0.009682534, NaN, NaN, NaN, 0.0335714, "- N/A -   "
5.74, 199.921, 0.009701971, NaN, NaN, NaN, 0.0335714, "- N/A -   "
5.75, 200.157, 0.009718632, NaN, NaN, NaN, 0.0323506, "- N/A -   "
5.76, 200.629, 0.009735292, NaN, NaN, NaN, 0.0323506, "- N/A -   "
5.77, 200.865, 0.009754729, NaN, NaN, NaN, 0.03112983, "- N/A -   "
5.78, 201.2184, 0.00977139, NaN, NaN, NaN, 0.03112983, "- N/A -   "
5.79, 201.454, 0.009790827, NaN, NaN, NaN, 0.03112983, "- N/A -   "
5.8, 201.69, 0.009807488, NaN, NaN, NaN, 0.03112983, "- N/A -   "
5.81, 202.044, 0.009824148, NaN, NaN, NaN, 0.03112983, "- N/A -   "
5.82, 202.398, 0.009838033, NaN, NaN, NaN, 0.03112983, "- N/A -   "
5.83, 202.634, 0.009854692, NaN, NaN, NaN, 0.0323506, "- N/A -   "
5.84, 202.7517, 0.009868576, NaN, NaN, NaN, 0.0323506, "- N/A -   "
5.85, 202.9876, 0.00988246, NaN, NaN, NaN, 0.0335714, "- N/A -   "
5.86, 203.341, 0.009899121, NaN, NaN, NaN, 0.0335714, "- N/A -   "
5.87, 203.577, 0.00991578, NaN, NaN, NaN, 0.0347922, "- N/A -   "
5.88, 203.931, 0.009932442, NaN, NaN, NaN, 0.0335714, "- N/A -   "
5.89, 204.285, 0.009949102, NaN, NaN, NaN, 0.0335714, "- N/A -   "
5.9, 204.521, 0.00996576, NaN, NaN, NaN, 0.0347922, "- N/A -   "
5.91, 204.875, 0.009982423, NaN, NaN, NaN, 0.0347922, "- N/A -   "
5.92, 204.9927, 0.009996306, NaN, NaN, NaN, 0.0347922, "- N/A -   "
5.93, 205.465, 0.010013, NaN, NaN, NaN, 0.03601294, "- N/A -   "
5.94, 205.818, 0.0100296, NaN, NaN, NaN, 0.0347922, "- N/A -   "
5.95, 206.054, 0.0100463, NaN, NaN, NaN, 0.0347922, "- N/A -   "
5.96, 206.29, 0.0100657, NaN, NaN, NaN, 0.0335714, "- N/A -   "
[...]
22.31, 842.7938, 0.0373168, NaN, NaN, NaN, 0.0347922, "- N/A -   "
22.36, 845.0412, 0.0373973, NaN, NaN, NaN, 0.0347922, "- N/A -   "
22.41, 847.1703, 0.0374806, NaN, NaN, NaN, 0.03601294, "- N/A -   "
22.46, 849.181, 0.0375556, NaN, NaN, NaN, 0.0384545, "- N/A -   "
22.51, 851.3101, 0.0376361, NaN, NaN, NaN, 0.0396753, "- N/A -   "
22.56, 853.439, 0.03771662, NaN, NaN, NaN, 0.04089605, "- N/A -   "
22.61, 855.3316, 0.0377944, NaN, NaN, NaN, 0.0433376, "- N/A -   "
22.66, 857.3424, 0.0378721, NaN, NaN, NaN, 0.04577916, "- N/A -   "
22.71, 859.708, 0.03796653, NaN, NaN, NaN, 0.04211683, "- N/A -   "
22.76, 862.31, 0.0380609, NaN, NaN, NaN, 0.03601294, "- N/A -   "
22.81, 864.7941, 0.0381581, NaN, NaN, NaN, 0.0299091, "- N/A -   "
22.86, 867.041, 0.0382414, NaN, NaN, NaN, 0.0299091, "- N/A -   "
22.91, 868.9339, 0.0383192, NaN, NaN, NaN, 0.0323506, "- N/A -   "
22.96, 870.9447, 0.03839693, NaN, NaN, NaN, 0.03601294, "- N/A -   "
23.01, 873.1921, 0.03848023, NaN, NaN, NaN, 0.0347922, "- N/A -   "
23.06, 875.676, 0.0385691, NaN, NaN, NaN, 0.0323506, "- N/A -   "
23.11, 877.9233, 0.03865516, NaN, NaN, NaN, 0.03112983, "- N/A -   "
23.16, 879.816, 0.0387301, NaN, NaN, NaN, 0.0347922, "- N/A -   "
23.21, 881.708, 0.0388051, NaN, NaN, NaN, 0.0384545, "- N/A -   "
23.26, 883.601, 0.0388773, NaN, NaN, NaN, 0.0433376, "- N/A -   "
23.31, 885.73, 0.0389606, NaN, NaN, NaN, 0.0433376, "- N/A -   "
23.36, 887.8589, 0.0390467, NaN, NaN, NaN, 0.04211683, "- N/A -   "
23.41, 890.3427, 0.03913554, NaN, NaN, NaN, 0.0396753, "- N/A -   "
23.46, 892.827, 0.0392244, NaN, NaN, NaN, 0.0384545, "- N/A -   "
23.51, 895.074, 0.0393105, NaN, NaN, NaN, 0.03601294, "- N/A -   "
23.56, 897.203, 0.0393966, NaN, NaN, NaN, 0.03601294, "- N/A -   "
23.61, 899.4504, 0.0394771, NaN, NaN, NaN, 0.03601294, "- N/A -   "
23.66, 901.579, 0.03956316, NaN, NaN, NaN, 0.03601294, "- N/A -   "
23.71, 903.8268, 0.03964646, NaN, NaN, NaN, 0.0347922, "- N/A -   "
23.76, 906.074, 0.0397325, NaN, NaN, NaN, 0.0335714, "- N/A -   "
23.81, 908.2031, 0.0398131, NaN, NaN, NaN, 0.0347922, "- N/A -   "
23.86, 910.2139, 0.03989637, NaN, NaN, NaN, 0.0347922, "- N/A -   "
23.91, 912.343, 0.03997412, NaN, NaN, NaN, 0.0372337, "- N/A -   "
23.96, 914.3538, 0.0400519, NaN, NaN, NaN, 0.0396753, "- N/A -   "
24.01, 916.3645, 0.0401324, NaN, NaN, NaN, 0.04089605, "- N/A -   "
24.06, 918.3753, 0.0402129, NaN, NaN, NaN, 0.04211683, "- N/A -   "
24.11, 920.7409, 0.04029622, NaN, NaN, NaN, 0.04211683, "- N/A -   "
24.16, 923.107, 0.0403879, NaN, NaN, NaN, 0.0396753, "- N/A -   "
24.21, 925.709, 0.040485, NaN, NaN, NaN, 0.0323506, "- N/A -   "
24.26, 928.074, 0.04057112, NaN, NaN, NaN, 0.03112983, "- N/A -   "
24.31, 930.2034, 0.0406572, NaN, NaN, NaN, 0.03112983, "- N/A -   "
24.36, 932.214, 0.0407377, NaN, NaN, NaN, 0.0323506, "- N/A -   "
24.41, 934.4615, 0.0408266, NaN, NaN, NaN, 0.0286883, "- N/A -   "
24.46, 936.8271, 0.04091266, NaN, NaN, NaN, 0.0286883, "- N/A -   "
24.51, 938.9562, 0.04099041, NaN, NaN, NaN, 0.0299091, "- N/A -   "
24.56, 940.7304, 0.04106538, NaN, NaN, NaN, 0.0347922, "- N/A -   "
24.61, 942.505, 0.0411348, NaN, NaN, NaN, 0.0396753, "- N/A -   "
24.66, 944.2788, 0.0412014, NaN, NaN, NaN, 0.04699994, "- N/A -   "
24.71, 946.4079, 0.04128197, NaN, NaN, NaN, 0.0494415, "- N/A -   "
24.76, 948.6552, 0.04136805, NaN, NaN, NaN, 0.04699994, "- N/A -   "
24.81, 951.2574, 0.041468, NaN, NaN, NaN, 0.0396753, "- N/A -   "
24.86, 953.741, 0.0415596, NaN, NaN, NaN, 0.03601294, "- N/A -   "
24.91, 955.989, 0.0416513, NaN, NaN, NaN, 0.0323506, "- N/A -   "
24.96, 958.236, 0.04173458, NaN, NaN, NaN, 0.0323506, "- N/A -   "
25.01, 960.4833, 0.04182066, NaN, NaN, NaN, 0.03112983, "- N/A -   "
25.06, 962.731, 0.04190396, NaN, NaN, NaN, 0.03112983, "- N/A -   "
25.11, 964.8597, 0.04199004, NaN, NaN, NaN, 0.03112983, "- N/A -   "
25.16, 966.9888, 0.0420706, NaN, NaN, NaN, 0.03112983, "- N/A -   "
25.21, 968.8813, 0.0421428, NaN, NaN, NaN, 0.03601294, "- N/A -   "
25.26, 970.5372, 0.04221218, NaN, NaN, NaN, 0.04211683, "- N/A -   "
25.31, 972.548, 0.0422899, NaN, NaN, NaN, 0.0445584, "- N/A -   "
25.36, 974.7953, 0.0423788, NaN, NaN, NaN, 0.0433376, "- N/A -   "
25.41, 977.043, 0.0424621, NaN, NaN, NaN, 0.04211683, "- N/A -   "
25.46, 979.408, 0.0425509, NaN, NaN, NaN, 0.0396753, "- N/A -   "
25.51, 981.6556, 0.0426398, NaN, NaN, NaN, 0.0372337, "- N/A -   "
25.56, 984.376, 0.0427398, NaN, NaN, NaN, 0.03112983, "- N/A -   "
25.61, 986.623, 0.04282862, NaN, NaN, NaN, 0.0274675, "- N/A -   "
25.66, 988.871, 0.0429091, NaN, NaN, NaN, 0.0286883, "- N/A -   "
25.71, 990.8815, 0.04299245, NaN, NaN, NaN, 0.0299091, "- N/A -   "
25.76, 992.8923, 0.04306742, NaN, NaN, NaN, 0.0323506, "- N/A -   "
25.81, 995.1396, 0.0431507, NaN, NaN, NaN, 0.0335714, "- N/A -   "
25.86, 997.1503, 0.04323125, NaN, NaN, NaN, 0.0347922, "- N/A -   "
25.91, 999.3977, 0.0433118, NaN, NaN, NaN, 0.0347922, "- N/A -   "
25.96, 1001.41, 0.04338952, NaN, NaN, NaN, 0.0384545, "- N/A -   "
26.01, 1003.42, 0.0434645, NaN, NaN, NaN, 0.04089605, "- N/A -   "
26.06, 1005.31, 0.0435422, NaN, NaN, NaN, 0.0445584, "- N/A -   "
26.11, 1007.44, 0.04361999, NaN, NaN, NaN, 0.04577916, "- N/A -   "
26.16, 1009.92, 0.04371718, NaN, NaN, NaN, 0.04089605, "- N/A -   "
26.21, 1012.53, 0.0438144, NaN, NaN, NaN, 0.0335714, "- N/A -   "
26.26, 1014.908, 0.04390322, NaN, NaN, NaN, 0.0335714, "- N/A -   "
26.31, 1016.94, 0.04398375, NaN, NaN, NaN, 0.0347922, "- N/A -   "
26.36, 1018.96, 0.04405872, NaN, NaN, NaN, 0.0372337, "- N/A -   "
26.41, 1021.23, 0.0441392, NaN, NaN, NaN, 0.0384545, "- N/A -   "
26.46, 1023.37, 0.0442253, NaN, NaN, NaN, 0.0372337, "- N/A -   "
26.51, 1025.88, 0.0443197, NaN, NaN, NaN, 0.0335714, "- N/A -   "
26.56, 1028.03, 0.0444003, NaN, NaN, NaN, 0.0335714, "- N/A -   "
26.61, 1029.81, 0.0444725, NaN, NaN, NaN, 0.0384545, "- N/A -   "
26.66, 1031.72, 0.0445447, NaN, NaN, NaN, 0.0433376, "- N/A -   "
26.71, 1034.11, 0.0446335, NaN, NaN, NaN, 0.04211683, "- N/A -   "
26.76, 1036.37, 0.0447168, NaN, NaN, NaN, 0.04089605, "- N/A -   "
26.81, 1038.76, 0.04480567, NaN, NaN, NaN, 0.0384545, "- N/A -   "
26.86, 1041.02, 0.04489175, NaN, NaN, NaN, 0.0372337, "- N/A -   "
26.91, 1043.17, 0.04497505, NaN, NaN, NaN, 0.0372337, "- N/A -   "
26.96, 1045.32, 0.0450611, NaN, NaN, NaN, 0.03601294, "- N/A -   "
27.01, 1047.58, 0.0451472, NaN, NaN, NaN, 0.03601294, "- N/A -   "
27.06, 1050.09, 0.0452388, NaN, NaN, NaN, 0.03112983, "- N/A -   "
27.11, 1052.47, 0.0453221, NaN, NaN, NaN, 0.03112983, "- N/A -   "
27.16, 1054.5, 0.04540267, NaN, NaN, NaN, 0.0323506, "- N/A -   "
27.21, 1056.65, 0.04548597, NaN, NaN, NaN, 0.0323506, "- N/A -   "
27.26, 1058.79, 0.0455665, NaN, NaN, NaN, 0.0335714, "- N/A -   "
27.31, 1060.94, 0.04564425, NaN, NaN, NaN, 0.03601294, "- N/A -   "
27.36, 1062.85, 0.0457192, NaN, NaN, NaN, 0.0396753, "- N/A -   "
27.41, 1064.87, 0.0457997, NaN, NaN, NaN, 0.04089605, "- N/A -   "
27.46, 1067.02, 0.04587749, NaN, NaN, NaN, 0.0433376, "- N/A -   "
27.51, 1069.17, 0.0459608, NaN, NaN, NaN, 0.0433376, "- N/A -   "
27.56, 1071.31, 0.0460441, NaN, NaN, NaN, 0.0433376, "- N/A -   "
27.61, 1073.82, 0.04613573, NaN, NaN, NaN, 0.0396753, "- N/A -   "
27.66, 1076.2, 0.0462246, NaN, NaN, NaN, 0.0372337, "- N/A -   "
27.71, 1078.47, 0.0463107, NaN, NaN, NaN, 0.03601294, "- N/A -   "
27.76, 1080.74, 0.04639397, NaN, NaN, NaN, 0.03601294, "- N/A -   "
27.81, 1082.88, 0.0464801, NaN, NaN, NaN, 0.0347922, "- N/A -   "
27.86, 1085.62, 0.0465772, NaN, NaN, NaN, 0.0299091, "- N/A -   "
27.91, 1087.771, 0.0466605, NaN, NaN, NaN, 0.0286883, "- N/A -   "
27.96, 1089.8, 0.0467383, NaN, NaN, NaN, 0.0323506, "- N/A -   "
28.01, 1091.587, 0.0468049, NaN, NaN, NaN, 0.0384545, "- N/A -   "
28.06, 1093.26, 0.0468743, NaN, NaN, NaN, 0.0445584, "- N/A -   "
28.11, 1095.4, 0.0469521, NaN, NaN, NaN, 0.04699994, "- N/A -   "
28.16, 1097.669, 0.047041, NaN, NaN, NaN, 0.04577916, "- N/A -   "
28.21, 1100.29, 0.0471381, NaN, NaN, NaN, 0.0384545, "- N/A -   "
28.26, 1102.68, 0.04722699, NaN, NaN, NaN, 0.03601294, "- N/A -   "
28.31, 1105.06, 0.0473131, NaN, NaN, NaN, 0.0347922, "- N/A -   "
28.36, 1107.45, 0.0474047, NaN, NaN, NaN, 0.0323506, "- N/A -   "
28.41, 1109.83, 0.0474936, NaN, NaN, NaN, 0.0286883, "- N/A -   "
28.46, 1112.1, 0.0475824, NaN, NaN, NaN, 0.0274675, "- N/A -   "
28.51, 1114.245, 0.04766017, NaN, NaN, NaN, 0.0286883, "- N/A -   "
28.56, 1116.03, 0.04773792, NaN, NaN, NaN, 0.03112983, "- N/A -   "
28.61, 1118.18, 0.04781289, NaN, NaN, NaN, 0.0347922, "- N/A -   "
28.66, 1120.09, 0.0478851, NaN, NaN, NaN, 0.04089605, "- N/A -   "
28.71, 1122.12, 0.0479628, NaN, NaN, NaN, 0.0433376, "- N/A -   "
28.76, 1124.38, 0.0480434, NaN, NaN, NaN, 0.0433376, "- N/A -   "
28.81, 1126.41, 0.0481239, NaN, NaN, NaN, 0.0445584, "- N/A -   "
28.86, 1128.56, 0.04820441, NaN, NaN, NaN, 0.04577916, "- N/A -   "
28.91, 1130.94, 0.04829049, NaN, NaN, NaN, 0.0445584, "- N/A -   "
28.96, 1133.44, 0.0483877, NaN, NaN, NaN, 0.0396753, "- N/A -   "
29.01, 1136.068, 0.0484849, NaN, NaN, NaN, 0.0323506, "- N/A -   "
29.06, 1138.33, 0.04857372, NaN, NaN, NaN, 0.0299091, "- N/A -   "
29.11, 1140.6, 0.048657, NaN, NaN, NaN, 0.0299091, "- N/A -   "
29.16, 1142.63, 0.0487375, NaN, NaN, NaN, 0.03112983, "- N/A -   "
29.21, 1144.77, 0.04881252, NaN, NaN, NaN, 0.0347922, "- N/A -   "
29.26, 1146.68, 0.04888749, NaN, NaN, NaN, 0.0384545, "- N/A -   "
29.31, 1149.19, 0.0489819, NaN, NaN, NaN, 0.0347922, "- N/A -   "
29.36, 1151.33, 0.0490596, NaN, NaN, NaN, 0.03601294, "- N/A -   "
29.41, 1153.121, 0.0491346, NaN, NaN, NaN, 0.04089605, "- N/A -   "
29.46, 1155.15, 0.0492096, NaN, NaN, NaN, 0.0445584, "- N/A -   "
29.51, 1157.18, 0.04929012, NaN, NaN, NaN, 0.04577916, "- N/A -   "
29.56, 1159.68, 0.04938175, NaN, NaN, NaN, 0.04089605, "- N/A -   "
29.61, 1162.42, 0.04948172, NaN, NaN, NaN, 0.0335714, "- N/A -   "
29.66, 1164.927, 0.0495733, NaN, NaN, NaN, 0.0299091, "- N/A -   "
29.71, 1167.07, 0.0496567, NaN, NaN, NaN, 0.0299091, "- N/A -   "
29.76, 1169.1, 0.0497344, NaN, NaN, NaN, 0.0323506, "- N/A -   "
29.81, 1171.13, 0.0498094, NaN, NaN, NaN, 0.03601294, "- N/A -   "
29.86, 1173.51, 0.04989823, NaN, NaN, NaN, 0.0347922, "- N/A -   "
29.91, 1175.9, 0.0499871, NaN, NaN, NaN, 0.03112983, "- N/A -   "
29.96, 1177.93, 0.0500648, NaN, NaN, NaN, 0.0335714, "- N/A -   "
30.01, 1180.072, 0.0501454, NaN, NaN, NaN, 0.03601294, "- N/A -   "
30.06, 1181.86, 0.05021478, NaN, NaN, NaN, 0.04089605, "- N/A -   "
30.11, 1184.01, 0.0503009, NaN, NaN, NaN, 0.04089605, "- N/A -   "
30.16, 1186.39, 0.0503842, NaN, NaN, NaN, 0.0396753, "- N/A -   "
30.21, 1188.539, 0.0504675, NaN, NaN, NaN, 0.0396753, "- N/A -   "
30.26, 1190.8, 0.0505508, NaN, NaN, NaN, 0.04089605, "- N/A -   "
30.31, 1193.07, 0.0506368, NaN, NaN, NaN, 0.0396753, "- N/A -   "
30.36, 1195.34, 0.0507201, NaN, NaN, NaN, 0.0384545, "- N/A -   "
30.41, 1197.84, 0.0508118, NaN, NaN, NaN, 0.0347922, "- N/A -   "
30.46, 1199.99, 0.0508951, NaN, NaN, NaN, 0.0347922, "- N/A -   "
30.51, 1202.37, 0.05098394, NaN, NaN, NaN, 0.0323506, "- N/A -   "
30.56, 1204.4, 0.05106724, NaN, NaN, NaN, 0.0335714, "- N/A -   "
30.61, 1206.43, 0.0511422, NaN, NaN, NaN, 0.03601294, "- N/A -   "
30.66, 1208.57, 0.0512255, NaN, NaN, NaN, 0.0372337, "- N/A -   "
30.71, 1211.08, 0.0513144, NaN, NaN, NaN, 0.0335714, "- N/A -   "
30.76, 1213.1, 0.0513921, NaN, NaN, NaN, 0.03601294, "- N/A -   "
30.81, 1215.01, 0.0514699, NaN, NaN, NaN, 0.04089605, "- N/A -   "
30.86, 1217.04, 0.05154762, NaN, NaN, NaN, 0.04211683, "- N/A -   "
30.91, 1219.43, 0.0516281, NaN, NaN, NaN, 0.0433376, "- N/A -   "
30.96, 1221.69, 0.05171978, NaN, NaN, NaN, 0.0396753, "- N/A -   "
31.01, 1224.2, 0.0518114, NaN, NaN, NaN, 0.03601294, "- N/A -   "
31.06, 1226.58, 0.051903, NaN, NaN, NaN, 0.0335714, "- N/A -   "
31.11, 1228.73, 0.0519863, NaN, NaN, NaN, 0.0323506, "- N/A -   "
31.16, 1230.75, 0.0520669, NaN, NaN, NaN, 0.0335714, "- N/A -   "
31.21, 1232.78, 0.0521446, NaN, NaN, NaN, 0.03601294, "- N/A -   "
31.26, 1235.29, 0.0522363, NaN, NaN, NaN, 0.0323506, "- N/A -   "
31.31, 1237.67, 0.0523223, NaN, NaN, NaN, 0.03112983, "- N/A -   "
31.36, 1239.698, 0.0524029, NaN, NaN, NaN, 0.0323506, "- N/A -   "
31.41, 1241.606, 0.05248061, NaN, NaN, NaN, 0.0347922, "- N/A -   "
31.46, 1243.514, 0.05254725, NaN, NaN, NaN, 0.04211683, "- N/A -   "
31.51, 1245.3, 0.0526194, NaN, NaN, NaN, 0.04699994, "- N/A -   "
31.56, 1247.57, 0.0527027, NaN, NaN, NaN, 0.04699994, "- N/A -   "
31.61, 1249.95, 0.0527972, NaN, NaN, NaN, 0.0433376, "- N/A -   "
31.66, 1252.46, 0.05289157, NaN, NaN, NaN, 0.0372337, "- N/A -   "
31.71, 1254.72, 0.0529804, NaN, NaN, NaN, 0.03601294, "- N/A -   "
31.76, 1257.228, 0.0530665, NaN, NaN, NaN, 0.0335714, "- N/A -   "
31.81, 1259.61, 0.05315536, NaN, NaN, NaN, 0.0323506, "- N/A -   "
31.86, 1261.76, 0.05324144, NaN, NaN, NaN, 0.0299091, "- N/A -   "
31.91, 1264.03, 0.0533275, NaN, NaN, NaN, 0.0286883, "- N/A -   "
31.96, 1266.29, 0.053408, NaN, NaN, NaN, 0.0299091, "- N/A -   "
32.01, 1268.2, 0.053483, NaN, NaN, NaN, 0.0347922, "- N/A -   "
32.06, 1269.99, 0.05355799, NaN, NaN, NaN, 0.0384545, "- N/A -   "
32.11, 1271.896, 0.0536274, NaN, NaN, NaN, 0.0433376, "- N/A -   "
32.16, 1274.16, 0.05371349, NaN, NaN, NaN, 0.04211683, "- N/A -   "
32.21, 1276.31, 0.05379679, NaN, NaN, NaN, 0.04211683, "- N/A -   "
32.26, 1278.34, 0.0538773, NaN, NaN, NaN, 0.0433376, "- N/A -   "
32.31, 1280.72, 0.05396617, NaN, NaN, NaN, 0.04089605, "- N/A -   "
32.36, 1283.225, 0.0540634, NaN, NaN, NaN, 0.03601294, "- N/A -   "
32.41, 1285.85, 0.0541605, NaN, NaN, NaN, 0.0299091, "- N/A -   "
32.46, 1288.11, 0.0542466, NaN, NaN, NaN, 0.0286883, "- N/A -   "
32.51, 1290.26, 0.05432715, NaN, NaN, NaN, 0.0286883, "- N/A -   "
32.56, 1292.29, 0.0544049, NaN, NaN, NaN, 0.03112983, "- N/A -   "
32.61, 1294.554, 0.0544854, NaN, NaN, NaN, 0.0335714, "- N/A -   "
32.66, 1296.34, 0.0545632, NaN, NaN, NaN, 0.03601294, "- N/A -   "
32.71, 1298.61, 0.0546465, NaN, NaN, NaN, 0.03601294, "- N/A -   "
32.76, 1300.755, 0.05472978, NaN, NaN, NaN, 0.0347922, "- N/A -   "
32.81, 1302.663, 0.054802, NaN, NaN, NaN, 0.0396753, "- N/A -   "
32.86, 1304.571, 0.0548742, NaN, NaN, NaN, 0.0445584, "- N/A -   "
32.91, 1306.6, 0.0549491, NaN, NaN, NaN, 0.0482207, "- N/A -   "
32.96, 1309.1, 0.0550436, NaN, NaN, NaN, 0.0445584, "- N/A -   "
33.01, 1311.73, 0.0551435, NaN, NaN, NaN, 0.0372337, "- N/A -   "
33.06, 1314.23, 0.0552351, NaN, NaN, NaN, 0.0323506, "- N/A -   "
33.11, 1316.5, 0.05531845, NaN, NaN, NaN, 0.0323506, "- N/A -   "
33.16, 1318.52, 0.05539898, NaN, NaN, NaN, 0.0335714, "- N/A -   "
33.21, 1320.55, 0.05547672, NaN, NaN, NaN, 0.03601294, "- N/A -   "
33.26, 1322.7, 0.05556003, NaN, NaN, NaN, 0.0372337, "- N/A -   "
33.31, 1325.2, 0.0556517, NaN, NaN, NaN, 0.0323506, "- N/A -   "
33.36, 1327.35, 0.05573774, NaN, NaN, NaN, 0.03112983, "- N/A -   "
33.41, 1329.26, 0.05581271, NaN, NaN, NaN, 0.03601294, "- N/A -   "
33.46, 1331.16, 0.05588213, NaN, NaN, NaN, 0.04089605, "- N/A -   "
33.51, 1333.19, 0.0559627, NaN, NaN, NaN, 0.04211683, "- N/A -   "
33.56, 1335.7, 0.05605429, NaN, NaN, NaN, 0.0384545, "- N/A -   "
33.61, 1337.84, 0.0561348, NaN, NaN, NaN, 0.0396753, "- N/A -   "
33.66, 1340.23, 0.0562264, NaN, NaN, NaN, 0.0372337, "- N/A -   "
33.71, 1342.73, 0.0563153, NaN, NaN, NaN, 0.0335714, "- N/A -   "
33.76, 1344.88, 0.0564014, NaN, NaN, NaN, 0.0335714, "- N/A -   "
33.81, 1347.02, 0.05648191, NaN, NaN, NaN, 0.0335714, "- N/A -   "
33.86, 1349.29, 0.05656799, NaN, NaN, NaN, 0.0323506, "- N/A -   "
33.91, 1351.437, 0.05664851, NaN, NaN, NaN, 0.0335714, "- N/A -   "
33.96, 1353.7, 0.0567318, NaN, NaN, NaN, 0.0335714, "- N/A -   "
34.01, 1355.85, 0.0568179, NaN, NaN, NaN, 0.0335714, "- N/A -   "
34.06, 1358.12, 0.0569012, NaN, NaN, NaN, 0.0323506, "- N/A -   "
34.11, 1360.26, 0.0569845, NaN, NaN, NaN, 0.0335714, "- N/A -   "
34.16, 1362.29, 0.05706225, NaN, NaN, NaN, 0.0347922, "- N/A -   "
34.21, 1364.08, 0.0571317, NaN, NaN, NaN, 0.04089605, "- N/A -   "
34.26, 1366.11, 0.0572094, NaN, NaN, NaN, 0.0433376, "- N/A -   "
34.31, 1368.01, 0.0572844, NaN, NaN, NaN, 0.04699994, "- N/A -   "
34.36, 1370.4, 0.05737047, NaN, NaN, NaN, 0.04577916, "- N/A -   "
34.41, 1372.9, 0.0574677, NaN, NaN, NaN, 0.0396753, "- N/A -   "
34.46, 1375.41, 0.0575621, NaN, NaN, NaN, 0.0347922, "- N/A -   "
34.51, 1377.79, 0.0576481, NaN, NaN, NaN, 0.0335714, "- N/A -   "
34.56, 1379.94, 0.05773422, NaN, NaN, NaN, 0.0323506, "- N/A -   "
34.61, 1382.08, 0.0578203, NaN, NaN, NaN, 0.0323506, "- N/A -   "
34.66, 1384.59, 0.0579092, NaN, NaN, NaN, 0.0286883, "- N/A -   "
34.71, 1386.85, 0.05799524, NaN, NaN, NaN, 0.0274675, "- N/A -   "
34.76, 1388.88, 0.0580674, NaN, NaN, NaN, 0.0323506, "- N/A -   "
34.81, 1390.79, 0.0581424, NaN, NaN, NaN, 0.03601294, "- N/A -   "
34.86, 1392.46, 0.0582118, NaN, NaN, NaN, 0.04211683, "- N/A -   "
34.91, 1394.487, 0.0582896, NaN, NaN, NaN, 0.04577916, "- N/A -   "
34.96, 1396.63, 0.0583673, NaN, NaN, NaN, 0.04699994, "- N/A -   "
35.01, 1399.02, 0.0584562, NaN, NaN, NaN, 0.0445584, "- N/A -   "
35.06, 1401.64, 0.0585534, NaN, NaN, NaN, 0.0384545, "- N/A -   "
35.11, 1404.15, 0.0586506, NaN, NaN, NaN, 0.0323506, "- N/A -   "
35.16, 1406.53, 0.05873941, NaN, NaN, NaN, 0.0299091, "- N/A -   "
35.21, 1408.678, 0.05882271, NaN, NaN, NaN, 0.03112983, "- N/A -   "
35.26, 1410.94, 0.0589143, NaN, NaN, NaN, 0.0274675, "- N/A -   "
35.31, 1413.33, 0.0589976, NaN, NaN, NaN, 0.0286883, "- N/A -   "
35.36, 1415.48, 0.05907817, NaN, NaN, NaN, 0.0286883, "- N/A -   "
35.41, 1417.26, 0.0591504, NaN, NaN, NaN, 0.0335714, "- N/A -   "
35.46, 1419.053, 0.0592226, NaN, NaN, NaN, 0.0384545, "- N/A -   "
35.51, 1420.84, 0.059292, NaN, NaN, NaN, 0.0445584, "- N/A -   "
35.56, 1422.869, 0.0593697, NaN, NaN, NaN, 0.04699994, "- N/A -   "
35.61, 1425.25, 0.0594586, NaN, NaN, NaN, 0.0445584, "- N/A -   "
35.66, 1427.52, 0.0595419, NaN, NaN, NaN, 0.0445584, "- N/A -   "
35.71, 1429.67, 0.0596224, NaN, NaN, NaN, 0.04577916, "- N/A -   "
35.76, 1432.05, 0.0597168, NaN, NaN, NaN, 0.04211683, "- N/A -   "
35.81, 1434.79, 0.05981679, NaN, NaN, NaN, 0.0335714, "- N/A -   "
35.86, 1437.18, 0.0599112, NaN, NaN, NaN, 0.0299091, "- N/A -   "
35.91, 1439.45, 0.0599945, NaN, NaN, NaN, 0.0286883, "- N/A -   "
35.96, 1441.353, 0.06007225, NaN, NaN, NaN, 0.03112983, "- N/A -   "
36.01, 1443.5, 0.06015, NaN, NaN, NaN, 0.0347922, "- N/A -   "
36.06, 1445.41, 0.0602277, NaN, NaN, NaN, 0.0372337, "- N/A -   "
36.11, 1447.67, 0.06031105, NaN, NaN, NaN, 0.03601294, "- N/A -   "
36.16, 1449.7, 0.0603916, NaN, NaN, NaN, 0.0372337, "- N/A -   "
36.21, 1451.728, 0.06046655, NaN, NaN, NaN, 0.04089605, "- N/A -   "
36.26, 1453.87, 0.0605443, NaN, NaN, NaN, 0.0433376, "- N/A -   "
36.31, 1455.9, 0.0606276, NaN, NaN, NaN, 0.0445584, "- N/A -   "
36.36, 1458.29, 0.06071368, NaN, NaN, NaN, 0.04211683, "- N/A -   "
36.41, 1460.91, 0.0608109, NaN, NaN, NaN, 0.03601294, "- N/A -   "
36.46, 1463.41, 0.0609053, NaN, NaN, NaN, 0.03112983, "- N/A -   "
36.51, 1465.44, 0.0609858, NaN, NaN, NaN, 0.0335714, "- N/A -   "
36.56, 1467.47, 0.06106355, NaN, NaN, NaN, 0.0347922, "- N/A -   "
36.61, 1469.5, 0.0611441, NaN, NaN, NaN, 0.03601294, "- N/A -   "
36.66, 1471.64, 0.0612274, NaN, NaN, NaN, 0.03601294, "- N/A -   "
36.71, 1474.15, 0.0613218, NaN, NaN, NaN, 0.0323506, "- N/A -   "
36.76, 1476.29, 0.0613995, NaN, NaN, NaN, 0.0335714, "- N/A -   "
36.81, 1478.08, 0.06147729, NaN, NaN, NaN, 0.03601294, "- N/A -   "
36.86, 1480.23, 0.06155503, NaN, NaN, NaN, 0.0384545, "- N/A -   "
36.91, 1482.14, 0.06163, NaN, NaN, NaN, 0.04211683, "- N/A -   "
36.96, 1484.52, 0.06172164, NaN, NaN, NaN, 0.0396753, "- N/A -   "
37.01, 1486.55, 0.0618022, NaN, NaN, NaN, 0.0396753, "- N/A -   "
37.06, 1488.696, 0.0618827, NaN, NaN, NaN, 0.04089605, "- N/A -   "
37.11, 1491.08, 0.0619743, NaN, NaN, NaN, 0.0384545, "- N/A -   "
37.16, 1493.23, 0.0620576, NaN, NaN, NaN, 0.0372337, "- N/A -   "
37.165, 1493.47, 0.06206596, NaN, NaN, NaN, 0.0372337, "- N/A -   "