File: 2_Tensile_Data/Hamel_ForceTest_Bolt3_Test8.csv
Time, Load (lb), Position (in), AxialStrain (in), TransverseStrain (in), Auxiliary (), Control Out (V), Stress (psi)
0.0, 9.907588, 0.0, NaN, NaN, NaN, -0.007935055, "- N/A -   "
0.01, 9.907588, -2.776752E-6, NaN, NaN, NaN, 0.00427272, "- N/A -   "
0.02, 9.907588, 0.0, NaN, NaN, NaN, 0.0225844, "- N/A -   "
0.03, 10.0255, 2.776752E-6, NaN, NaN, NaN, 0.04089605, "- N/A -   "
0.04, 10.1435, 1.38838e-05, NaN, NaN, NaN, 0.05676616, "- N/A -   "
0.05, 10.3794, 2.77675e-05, NaN, NaN, NaN, 0.0689739, "- N/A -   "
0.06, 10.73322, 4.720478E-5, NaN, NaN, NaN, 0.0799609, "- N/A -   "
0.07, 10.9691, 6.94188E-5, NaN, NaN, NaN, 0.0897272, "- N/A -   "
0.08, 11.4409, 9.718631E-5, NaN, NaN, NaN, 0.0982726, "- N/A -   "
0.09, 11.9127, 0.000124954, NaN, NaN, NaN, 0.104376, "- N/A -   "
0.1, 12.5024, 0.000158275, NaN, NaN, NaN, 0.103156, "- N/A -   "
0.11, 13.09217, 0.000188819, NaN, NaN, NaN, 0.09705182, "- N/A -   "
0.12, 13.564, 2.193634E-4, NaN, NaN, NaN, 0.09094793, "- N/A -   "
0.13, 14.0357, 0.000249908, NaN, NaN, NaN, 0.08606482, "- N/A -   "
0.14, 14.3896, 2.776752E-4, NaN, NaN, NaN, 0.08118171, "- N/A -   "
0.15, 14.8614, 0.000302666, NaN, NaN, NaN, 0.0762986, "- N/A -   "
0.16, 15.3332, 0.000330433, NaN, NaN, NaN, 0.07263627, "- N/A -   "
0.17, 15.805, 0.000355424, NaN, NaN, NaN, 0.06775316, "- N/A -   "
0.18, 16.1588, 0.000383192, NaN, NaN, NaN, 0.0640908, "- N/A -   "
0.19, 16.6306, 0.000405406, NaN, NaN, NaN, 0.0604285, "- N/A -   "
0.2, 16.9844, 0.000430397, NaN, NaN, NaN, 0.0579869, "- N/A -   "
0.21, 17.3383, 0.000449834, NaN, NaN, NaN, 0.0555454, "- N/A -   "
0.22, 17.6921, 4.720478E-4, NaN, NaN, NaN, 0.0531038, "- N/A -   "
0.23, 17.928, 0.000491485, NaN, NaN, NaN, 0.0531038, "- N/A -   "
0.24, 18.16391, 0.000510922, NaN, NaN, NaN, 0.05188305, "- N/A -   "
0.25, 18.5178, 0.000527583, NaN, NaN, NaN, 0.05066227, "- N/A -   "
0.26, 18.7536, 5.442434E-4, NaN, NaN, NaN, 0.05066227, "- N/A -   "
0.27, 18.9895, 5.636806E-4, NaN, NaN, NaN, 0.0494415, "- N/A -   "
0.28, 19.3434, 5.831179E-4, NaN, NaN, NaN, 0.0494415, "- N/A -   "
0.29, 19.57928, 5.997784E-4, NaN, NaN, NaN, 0.0494415, "- N/A -   "
0.3, 19.8152, 6.136621E-4, NaN, NaN, NaN, 0.0494415, "- N/A -   "
0.31, 20.169, 0.000630323, NaN, NaN, NaN, 0.0494415, "- N/A -   "
0.32, 20.287, 6.497599E-4, NaN, NaN, NaN, 0.0494415, "- N/A -   "
0.33, 20.52286, 0.00066642, NaN, NaN, NaN, 0.0494415, "- N/A -   "
0.34, 20.8767, 6.830809E-4, NaN, NaN, NaN, 0.0482207, "- N/A -   "
0.35, 21.2305, 6.997415E-4, NaN, NaN, NaN, 0.0482207, "- N/A -   "
0.36, 21.46644, 7.191787E-4, NaN, NaN, NaN, 0.04699994, "- N/A -   "
0.37, 21.8203, 7.38616E-4, NaN, NaN, NaN, 0.04699994, "- N/A -   "
0.38, 22.0562, 0.000758053, NaN, NaN, NaN, 0.04577916, "- N/A -   "
0.39, 22.29207, 0.000774714, NaN, NaN, NaN, 0.0445584, "- N/A -   "
0.4, 22.528, 0.000791374, NaN, NaN, NaN, 0.0445584, "- N/A -   "
0.41, 22.88181, 8.108115E-4, NaN, NaN, NaN, 0.0445584, "- N/A -   "
0.42, 22.9998, 8.246953E-4, NaN, NaN, NaN, 0.0445584, "- N/A -   "
0.43, 23.3536, 8.413558E-4, NaN, NaN, NaN, 0.0445584, "- N/A -   "
0.44, 23.5895, 8.580163E-4, NaN, NaN, NaN, 0.0445584, "- N/A -   "
0.45, 23.82539, 8.774536E-4, NaN, NaN, NaN, 0.0445584, "- N/A -   "
0.46, 24.1792, 8.941141E-4, NaN, NaN, NaN, 0.0433376, "- N/A -   "
0.47, 24.5331, 0.000913551, NaN, NaN, NaN, 0.04211683, "- N/A -   "
0.48, 24.769, 9.329886E-4, NaN, NaN, NaN, 0.04089605, "- N/A -   "
0.49, 25.0049, 9.524259E-4, NaN, NaN, NaN, 0.04089605, "- N/A -   "
0.5, 25.3587, 0.000971863, NaN, NaN, NaN, 0.0396753, "- N/A -   "
0.51, 25.5946, 9.885236E-4, NaN, NaN, NaN, 0.0384545, "- N/A -   "
0.52, 25.9484, 0.00100518, NaN, NaN, NaN, 0.0384545, "- N/A -   "
0.53, 26.0664, 0.00102462, NaN, NaN, NaN, 0.0384545, "- N/A -   "
0.54, 26.4202, 0.001041282, NaN, NaN, NaN, 0.0372337, "- N/A -   "
0.55, 26.5382, 0.00105794, NaN, NaN, NaN, 0.0372337, "- N/A -   "
0.56, 26.892, 0.00107738, NaN, NaN, NaN, 0.0372337, "- N/A -   "
0.57, 27.1279, 0.00109404, NaN, NaN, NaN, 0.0372337, "- N/A -   "
0.58, 27.3638, 0.00110792, NaN, NaN, NaN, 0.0372337, "- N/A -   "
0.59, 27.7177, 0.00112458, NaN, NaN, NaN, 0.0372337, "- N/A -   "
0.6, 27.8356, 0.001141245, NaN, NaN, NaN, 0.0372337, "- N/A -   "
0.61, 28.0715, 0.00115791, NaN, NaN, NaN, 0.0372337, "- N/A -   "
0.62, 28.42534, 0.001174566, NaN, NaN, NaN, 0.0372337, "- N/A -   "
0.63, 28.6612, 0.001194, NaN, NaN, NaN, 0.03601294, "- N/A -   "
0.64, 28.89713, 0.00121066, NaN, NaN, NaN, 0.0372337, "- N/A -   "
0.65, 29.251, 0.00122732, NaN, NaN, NaN, 0.03601294, "- N/A -   "
0.66, 29.3689, 0.00124398, NaN, NaN, NaN, 0.03601294, "- N/A -   "
0.67, 29.7228, 0.00126065, NaN, NaN, NaN, 0.03601294, "- N/A -   "
0.68, 29.9587, 0.00127731, NaN, NaN, NaN, 0.03601294, "- N/A -   "
0.69, 30.1946, 0.001296743, NaN, NaN, NaN, 0.03601294, "- N/A -   "
0.7, 30.4304, 0.0013134, NaN, NaN, NaN, 0.03601294, "- N/A -   "
0.71, 30.6663, 0.00133006, NaN, NaN, NaN, 0.0347922, "- N/A -   "
0.72, 30.9022, 0.0013495, NaN, NaN, NaN, 0.0347922, "- N/A -   "
0.73, 31.2561, 0.00136616, NaN, NaN, NaN, 0.0347922, "- N/A -   "
0.74, 31.6099, 0.00138282, NaN, NaN, NaN, 0.0335714, "- N/A -   "
0.75, 31.8458, 0.001399483, NaN, NaN, NaN, 0.0347922, "- N/A -   "
0.76, 32.08171, 0.00141337, NaN, NaN, NaN, 0.0347922, "- N/A -   "
0.77, 32.3176, 0.00143003, NaN, NaN, NaN, 0.0347922, "- N/A -   "
0.78, 32.67145, 0.00144669, NaN, NaN, NaN, 0.0347922, "- N/A -   "
0.79, 32.7894, 0.00146057, NaN, NaN, NaN, 0.03601294, "- N/A -   "
0.8, 33.02529, 0.00148001, NaN, NaN, NaN, 0.0347922, "- N/A -   "
0.81, 33.2612, 0.00149667, NaN, NaN, NaN, 0.0347922, "- N/A -   "
0.82, 33.61503, 0.00151333, NaN, NaN, NaN, 0.0347922, "- N/A -   "
0.83, 33.73298, 0.00152999, NaN, NaN, NaN, 0.0347922, "- N/A -   "
0.84, 34.08682, 0.00154665, NaN, NaN, NaN, 0.03601294, "- N/A -   "
0.85, 34.2048, 0.00156331, NaN, NaN, NaN, 0.0347922, "- N/A -   "
0.86, 34.6766, 0.00157997, NaN, NaN, NaN, 0.03601294, "- N/A -   "
0.87, 34.7945, 0.00159386, NaN, NaN, NaN, 0.03601294, "- N/A -   "
0.88, 35.1483, 0.00161052, NaN, NaN, NaN, 0.03601294, "- N/A -   "
0.89, 35.2663, 0.00162995, NaN, NaN, NaN, 0.03601294, "- N/A -   "
0.9, 35.6201, 0.00164384, NaN, NaN, NaN, 0.03601294, "- N/A -   "
0.91, 35.85603, 0.00166327, NaN, NaN, NaN, 0.03601294, "- N/A -   "
0.92, 36.2099, 0.00167993, NaN, NaN, NaN, 0.0347922, "- N/A -   "
0.93, 36.44577, 0.00169937, NaN, NaN, NaN, 0.0347922, "- N/A -   "
0.94, 36.6817, 0.00171603, NaN, NaN, NaN, 0.0347922, "- N/A -   "
0.95, 36.9176, 0.00173269, NaN, NaN, NaN, 0.0335714, "- N/A -   "
0.96, 37.15345, 0.00174658, NaN, NaN, NaN, 0.0347922, "- N/A -   "
0.97, 37.5073, 0.00176324, NaN, NaN, NaN, 0.0347922, "- N/A -   "
0.98, 37.6252, 0.00177712, NaN, NaN, NaN, 0.03601294, "- N/A -   "
0.99, 37.8611, 0.00179378, NaN, NaN, NaN, 0.0372337, "- N/A -   "
1, 38.097, 0.00180767, NaN, NaN, NaN, 0.0372337, "- N/A -   "
1.01, 38.3329, 0.00182433, NaN, NaN, NaN, 0.0372337, "- N/A -   "
1.02, 38.5688, 0.00183821, NaN, NaN, NaN, 0.0384545, "- N/A -   "
1.03, 38.8047, 0.00185209, NaN, NaN, NaN, 0.0396753, "- N/A -   "
1.04, 39.04061, 0.00186875, NaN, NaN, NaN, 0.0396753, "- N/A -   "
1.05, 39.15856, 0.00188541, NaN, NaN, NaN, 0.04089605, "- N/A -   "
1.06, 39.6304, 0.0018993, NaN, NaN, NaN, 0.04089605, "- N/A -   "
1.07, 39.7483, 0.00191874, NaN, NaN, NaN, 0.04089605, "- N/A -   "
1.08, 40.10214, 0.00193262, NaN, NaN, NaN, 0.04089605, "- N/A -   "
1.09, 40.22009, 0.00194928, NaN, NaN, NaN, 0.04089605, "- N/A -   "
1.1, 40.69188, 0.00196316, NaN, NaN, NaN, 0.04211683, "- N/A -   "
1.11, 40.8098, 0.00197705, NaN, NaN, NaN, 0.0433376, "- N/A -   "
1.12, 41.04572, 0.001990931, NaN, NaN, NaN, 0.0445584, "- N/A -   "
1.13, 41.2816, 0.00200759, NaN, NaN, NaN, 0.04577916, "- N/A -   "
1.14, 41.39956, 0.0020187, NaN, NaN, NaN, 0.04699994, "- N/A -   "
1.15, 41.7534, 0.002038136, NaN, NaN, NaN, 0.04577916, "- N/A -   "
1.16, 41.9893, 0.0020548, NaN, NaN, NaN, 0.04577916, "- N/A -   "
1.17, 42.3431, 0.00207146, NaN, NaN, NaN, 0.04577916, "- N/A -   "
1.18, 42.579, 0.00209089, NaN, NaN, NaN, 0.0445584, "- N/A -   "
1.19, 42.93288, 0.00211033, NaN, NaN, NaN, 0.0433376, "- N/A -   "
1.2, 43.40467, 0.00212977, NaN, NaN, NaN, 0.04211683, "- N/A -   "
1.21, 43.6406, 0.002149206, NaN, NaN, NaN, 0.04089605, "- N/A -   "
1.22, 43.87646, 0.002168643, NaN, NaN, NaN, 0.04089605, "- N/A -   "
1.23, 44.34825, 0.0021853, NaN, NaN, NaN, 0.0396753, "- N/A -   "
1.24, 44.4662, 0.002204741, NaN, NaN, NaN, 0.0384545, "- N/A -   "
1.25, 44.70209, 0.00222418, NaN, NaN, NaN, 0.0384545, "- N/A -   "
1.26, 45.05593, 0.00224362, NaN, NaN, NaN, 0.0372337, "- N/A -   "
1.27, 45.40978, 0.00226305, NaN, NaN, NaN, 0.0347922, "- N/A -   "
1.28, 45.76362, 0.00228249, NaN, NaN, NaN, 0.0335714, "- N/A -   "
1.29, 45.9995, 0.00229915, NaN, NaN, NaN, 0.0335714, "- N/A -   "
1.3, 46.3534, 0.00231859, NaN, NaN, NaN, 0.0335714, "- N/A -   "
1.31, 46.5893, 0.00233525, NaN, NaN, NaN, 0.0323506, "- N/A -   "
1.32, 46.9431, 0.00235469, NaN, NaN, NaN, 0.0323506, "- N/A -   "
1.33, 47.179, 0.002371346, NaN, NaN, NaN, 0.03112983, "- N/A -   "
1.34, 47.5328, 0.00238801, NaN, NaN, NaN, 0.03112983, "- N/A -   "
1.35, 47.7687, 0.002404667, NaN, NaN, NaN, 0.03112983, "- N/A -   "
1.36, 48.12257, 0.00242133, NaN, NaN, NaN, 0.03112983, "- N/A -   "
1.37, 48.3585, 0.002437988, NaN, NaN, NaN, 0.03112983, "- N/A -   "
1.38, 48.59436, 0.00245743, NaN, NaN, NaN, 0.0299091, "- N/A -   "
1.39, 48.7123, 0.00247131, NaN, NaN, NaN, 0.03112983, "- N/A -   "
1.4, 49.0661, 0.00248797, NaN, NaN, NaN, 0.03112983, "- N/A -   "
1.41, 49.30204, 0.00250463, NaN, NaN, NaN, 0.03112983, "- N/A -   "
1.42, 49.5379, 0.002518514, NaN, NaN, NaN, 0.0323506, "- N/A -   "
1.43, 49.7738, 0.00253517, NaN, NaN, NaN, 0.0335714, "- N/A -   "
1.44, 49.8918, 0.002549058, NaN, NaN, NaN, 0.0335714, "- N/A -   "
1.45, 50.3636, 0.0025685, NaN, NaN, NaN, 0.0335714, "- N/A -   "
1.46, 50.5995, 0.00258516, NaN, NaN, NaN, 0.0323506, "- N/A -   "
1.47, 50.9533, 0.00260459, NaN, NaN, NaN, 0.03112983, "- N/A -   "
1.48, 51.1892, 0.00262403, NaN, NaN, NaN, 0.03112983, "- N/A -   "
1.49, 51.66099, 0.00264347, NaN, NaN, NaN, 0.0286883, "- N/A -   "
1.5, 51.89689, 0.002662905, NaN, NaN, NaN, 0.0286883, "- N/A -   "
1.51, 52.25073, 0.00268234, NaN, NaN, NaN, 0.0274675, "- N/A -   "
1.52, 52.48662, 0.002699, NaN, NaN, NaN, 0.0262467, "- N/A -   "
1.53, 52.84047, 0.00271566, NaN, NaN, NaN, 0.0262467, "- N/A -   "
1.54, 52.9584, 0.00272955, NaN, NaN, NaN, 0.0274675, "- N/A -   "
1.55, 53.3123, 0.00274621, NaN, NaN, NaN, 0.0286883, "- N/A -   "
1.56, 53.4302, 0.00276009, NaN, NaN, NaN, 0.0286883, "- N/A -   "
1.57, 53.6661, 0.00277398, NaN, NaN, NaN, 0.0299091, "- N/A -   "
1.58, 53.902, 0.00278786, NaN, NaN, NaN, 0.03112983, "- N/A -   "
1.59, 54.2558, 0.00280452, NaN, NaN, NaN, 0.03112983, "- N/A -   "
1.6, 54.4917, 0.0028184, NaN, NaN, NaN, 0.0323506, "- N/A -   "
1.61, 54.7276, 0.00283229, NaN, NaN, NaN, 0.0335714, "- N/A -   "
1.62, 54.9635, 0.00284895, NaN, NaN, NaN, 0.0335714, "- N/A -   "
1.63, 55.3174, 0.00286283, NaN, NaN, NaN, 0.0347922, "- N/A -   "
1.64, 55.55326, 0.00287949, NaN, NaN, NaN, 0.0347922, "- N/A -   "
1.65, 55.7892, 0.00289338, NaN, NaN, NaN, 0.03601294, "- N/A -   "
1.66, 56.02505, 0.002910036, NaN, NaN, NaN, 0.03601294, "- N/A -   "
1.67, 56.2609, 0.00292392, NaN, NaN, NaN, 0.0372337, "- N/A -   "
1.68, 56.6148, 0.00294058, NaN, NaN, NaN, 0.0372337, "- N/A -   "
1.69, 56.73273, 0.002957241, NaN, NaN, NaN, 0.0372337, "- N/A -   "
1.7, 56.9686, 0.00297112, NaN, NaN, NaN, 0.0384545, "- N/A -   "
1.71, 57.32247, 0.002987785, NaN, NaN, NaN, 0.0396753, "- N/A -   "
1.72, 57.5584, 0.003001669, NaN, NaN, NaN, 0.04089605, "- N/A -   "
1.73, 57.79426, 0.00301555, NaN, NaN, NaN, 0.04089605, "- N/A -   "
1.74, 58.1481, 0.00302944, NaN, NaN, NaN, 0.04211683, "- N/A -   "
1.75, 58.26605, 0.00304332, NaN, NaN, NaN, 0.0433376, "- N/A -   "
1.76, 58.5019, 0.00305998, NaN, NaN, NaN, 0.0433376, "- N/A -   "
1.77, 58.8558, 0.00307664, NaN, NaN, NaN, 0.0445584, "- N/A -   "
1.78, 59.0917, 0.00309052, NaN, NaN, NaN, 0.0445584, "- N/A -   "
1.79, 59.3276, 0.00310719, NaN, NaN, NaN, 0.0445584, "- N/A -   "
1.8, 59.5635, 0.003121069, NaN, NaN, NaN, 0.04577916, "- N/A -   "
1.81, 59.79937, 0.00313773, NaN, NaN, NaN, 0.04577916, "- N/A -   "
1.82, 60.0353, 0.00315439, NaN, NaN, NaN, 0.04577916, "- N/A -   "
1.83, 60.3891, 0.00317105, NaN, NaN, NaN, 0.04577916, "- N/A -   "
1.84, 60.625, 0.00318771, NaN, NaN, NaN, 0.04577916, "- N/A -   "
1.85, 60.97884, 0.00320437, NaN, NaN, NaN, 0.04577916, "- N/A -   "
1.86, 61.3327, 0.003223809, NaN, NaN, NaN, 0.0445584, "- N/A -   "
1.87, 61.6865, 0.003243246, NaN, NaN, NaN, 0.0433376, "- N/A -   "
1.88, 62.0404, 0.00325991, NaN, NaN, NaN, 0.0433376, "- N/A -   "
1.89, 62.2763, 0.003279344, NaN, NaN, NaN, 0.0433376, "- N/A -   "
1.9, 62.6301, 0.003296, NaN, NaN, NaN, 0.0433376, "- N/A -   "
1.91, 62.866, 0.003309888, NaN, NaN, NaN, 0.0433376, "- N/A -   "
1.92, 63.1019, 0.00332933, NaN, NaN, NaN, 0.04211683, "- N/A -   "
1.93, 63.45574, 0.00334599, NaN, NaN, NaN, 0.0433376, "- N/A -   "
1.94, 63.6916, 0.00336265, NaN, NaN, NaN, 0.04211683, "- N/A -   "
1.95, 63.92753, 0.00338208, NaN, NaN, NaN, 0.04211683, "- N/A -   "
1.96, 64.5173, 0.00339874, NaN, NaN, NaN, 0.04089605, "- N/A -   "
1.97, 64.6352, 0.00341818, NaN, NaN, NaN, 0.04089605, "- N/A -   "
1.98, 64.98906, 0.00343484, NaN, NaN, NaN, 0.0396753, "- N/A -   "
1.99, 65.22495, 0.0034515, NaN, NaN, NaN, 0.0396753, "- N/A -   "
2, 65.5788, 0.00347094, NaN, NaN, NaN, 0.0384545, "- N/A -   "
2.01, 65.81469, 0.0034876, NaN, NaN, NaN, 0.0384545, "- N/A -   "
2.02, 66.16853, 0.00350704, NaN, NaN, NaN, 0.0384545, "- N/A -   "
2.03, 66.40443, 0.003523698, NaN, NaN, NaN, 0.0372337, "- N/A -   "
2.04, 66.87622, 0.00354314, NaN, NaN, NaN, 0.03601294, "- N/A -   "
2.05, 67.1121, 0.00356257, NaN, NaN, NaN, 0.03601294, "- N/A -   "
2.06, 67.34801, 0.00357923, NaN, NaN, NaN, 0.0347922, "- N/A -   "
2.07, 67.70185, 0.00359867, NaN, NaN, NaN, 0.0335714, "- N/A -   "
2.08, 68.05569, 0.003615331, NaN, NaN, NaN, 0.0335714, "- N/A -   "
2.09, 68.29159, 0.00363199, NaN, NaN, NaN, 0.0335714, "- N/A -   "
2.1, 68.6454, 0.00364865, NaN, NaN, NaN, 0.0335714, "- N/A -   "
2.11, 68.8813, 0.00366531, NaN, NaN, NaN, 0.0335714, "- N/A -   "
2.12, 69.23517, 0.00368197, NaN, NaN, NaN, 0.0335714, "- N/A -   "
2.13, 69.47106, 0.00370141, NaN, NaN, NaN, 0.0323506, "- N/A -   "
2.14, 69.707, 0.003715294, NaN, NaN, NaN, 0.0335714, "- N/A -   "
2.15, 70.0608, 0.00373473, NaN, NaN, NaN, 0.0335714, "- N/A -   "
2.16, 70.29669, 0.00375139, NaN, NaN, NaN, 0.0323506, "- N/A -   "
2.17, 70.7685, 0.003770829, NaN, NaN, NaN, 0.03112983, "- N/A -   "
2.18, 71.12233, 0.00379027, NaN, NaN, NaN, 0.03112983, "- N/A -   "
2.19, 71.3582, 0.00380693, NaN, NaN, NaN, 0.0299091, "- N/A -   "
2.2, 71.59412, 0.00382081, NaN, NaN, NaN, 0.03112983, "- N/A -   "
2.21, 71.94796, 0.00384025, NaN, NaN, NaN, 0.0299091, "- N/A -   "
2.22, 72.1838, 0.00385691, NaN, NaN, NaN, 0.0299091, "- N/A -   "
2.23, 72.5377, 0.003873569, NaN, NaN, NaN, 0.0299091, "- N/A -   "
2.24, 72.77359, 0.00389023, NaN, NaN, NaN, 0.03112983, "- N/A -   "
2.25, 73.00948, 0.003904113, NaN, NaN, NaN, 0.03112983, "- N/A -   "
2.26, 73.2454, 0.003917997, NaN, NaN, NaN, 0.0323506, "- N/A -   "
2.27, 73.59922, 0.00393466, NaN, NaN, NaN, 0.0335714, "- N/A -   "
2.28, 73.83511, 0.003948541, NaN, NaN, NaN, 0.0335714, "- N/A -   "
2.29, 73.9531, 0.003962425, NaN, NaN, NaN, 0.0347922, "- N/A -   "
2.3, 74.3069, 0.00397631, NaN, NaN, NaN, 0.03601294, "- N/A -   "
2.31, 74.5428, 0.003992969, NaN, NaN, NaN, 0.03601294, "- N/A -   "
2.32, 74.7787, 0.004006853, NaN, NaN, NaN, 0.0384545, "- N/A -   "
2.33, 75.0146, 0.00402074, NaN, NaN, NaN, 0.0396753, "- N/A -   "
2.34, 75.13254, 0.00403462, NaN, NaN, NaN, 0.04089605, "- N/A -   "
2.35, 75.36844, 0.004048504, NaN, NaN, NaN, 0.04089605, "- N/A -   "
2.36, 75.8402, 0.004065165, NaN, NaN, NaN, 0.04089605, "- N/A -   "
2.37, 76.07612, 0.00408183, NaN, NaN, NaN, 0.04211683, "- N/A -   "
2.38, 76.31202, 0.004095709, NaN, NaN, NaN, 0.04211683, "- N/A -   "
2.39, 76.5479, 0.00411237, NaN, NaN, NaN, 0.04211683, "- N/A -   "
2.4, 76.90175, 0.00412903, NaN, NaN, NaN, 0.04211683, "- N/A -   "
2.41, 77.25559, 0.00414569, NaN, NaN, NaN, 0.04211683, "- N/A -   "
2.42, 77.6094, 0.004162351, NaN, NaN, NaN, 0.04211683, "- N/A -   "
2.43, 77.96328, 0.00417901, NaN, NaN, NaN, 0.04211683, "- N/A -   "
2.44, 78.08122, 0.004195672, NaN, NaN, NaN, 0.04211683, "- N/A -   "
2.45, 78.4351, 0.00421233, NaN, NaN, NaN, 0.04211683, "- N/A -   "
2.46, 78.67096, 0.00422899, NaN, NaN, NaN, 0.04211683, "- N/A -   "
2.47, 79.0248, 0.00424565, NaN, NaN, NaN, 0.0433376, "- N/A -   "
2.48, 79.2607, 0.004262314, NaN, NaN, NaN, 0.0433376, "- N/A -   "
2.49, 79.4966, 0.004273421, NaN, NaN, NaN, 0.0445584, "- N/A -   "
2.5, 79.85043, 0.00429008, NaN, NaN, NaN, 0.0445584, "- N/A -   "
2.51, 80.0863, 0.004306742, NaN, NaN, NaN, 0.0445584, "- N/A -   "
2.52, 80.44018, 0.004326179, NaN, NaN, NaN, 0.0445584, "- N/A -   "
2.53, 80.67606, 0.00434284, NaN, NaN, NaN, 0.0445584, "- N/A -   "
2.54, 81.0299, 0.0043595, NaN, NaN, NaN, 0.0433376, "- N/A -   "
2.55, 81.38376, 0.004376161, NaN, NaN, NaN, 0.0433376, "- N/A -   "
2.56, 81.7376, 0.004395598, NaN, NaN, NaN, 0.04211683, "- N/A -   "
2.57, 81.97349, 0.00441504, NaN, NaN, NaN, 0.04211683, "- N/A -   "
2.58, 82.44528, 0.004434473, NaN, NaN, NaN, 0.0396753, "- N/A -   "
2.59, 82.68118, 0.00445391, NaN, NaN, NaN, 0.0384545, "- N/A -   "
2.6, 83.03502, 0.004473347, NaN, NaN, NaN, 0.0384545, "- N/A -   "
2.61, 83.50681, 0.00449001, NaN, NaN, NaN, 0.0372337, "- N/A -   "
2.62, 83.74271, 0.004509445, NaN, NaN, NaN, 0.03601294, "- N/A -   "
2.63, 84.09654, 0.00452888, NaN, NaN, NaN, 0.0347922, "- N/A -   "
2.64, 84.45039, 0.0045511, NaN, NaN, NaN, 0.0335714, "- N/A -   "
2.65, 84.80424, 0.00457053, NaN, NaN, NaN, 0.03112983, "- N/A -   "
2.66, 85.276, 0.00458997, NaN, NaN, NaN, 0.0299091, "- N/A -   "
2.67, 85.51192, 0.00460663, NaN, NaN, NaN, 0.0299091, "- N/A -   "
2.68, 85.86576, 0.00462607, NaN, NaN, NaN, 0.0286883, "- N/A -   "
2.69, 86.1017, 0.004642729, NaN, NaN, NaN, 0.0286883, "- N/A -   "
2.7, 86.33755, 0.00465939, NaN, NaN, NaN, 0.0286883, "- N/A -   "
2.71, 86.80934, 0.004678827, NaN, NaN, NaN, 0.0286883, "- N/A -   "
2.72, 87.04523, 0.00469549, NaN, NaN, NaN, 0.0286883, "- N/A -   "
2.73, 87.51702, 0.004712148, NaN, NaN, NaN, 0.0274675, "- N/A -   "
2.74, 87.63497, 0.00472881, NaN, NaN, NaN, 0.0274675, "- N/A -   "
2.75, 88.10676, 0.004745469, NaN, NaN, NaN, 0.0274675, "- N/A -   "
2.76, 88.34265, 0.00476213, NaN, NaN, NaN, 0.0274675, "- N/A -   "
2.77, 88.57855, 0.004776013, NaN, NaN, NaN, 0.0286883, "- N/A -   "
2.78, 88.8144, 0.00479267, NaN, NaN, NaN, 0.0286883, "- N/A -   "
2.79, 89.16828, 0.004809334, NaN, NaN, NaN, 0.0286883, "- N/A -   "
2.8, 89.52213, 0.004825995, NaN, NaN, NaN, 0.0286883, "- N/A -   "
2.81, 89.758, 0.00484266, NaN, NaN, NaN, 0.0286883, "- N/A -   "
2.82, 89.99392, 0.004856539, NaN, NaN, NaN, 0.0299091, "- N/A -   "
2.83, 90.22981, 0.0048732, NaN, NaN, NaN, 0.03112983, "- N/A -   "
2.84, 90.58366, 0.00488986, NaN, NaN, NaN, 0.0299091, "- N/A -   "
2.85, 90.9375, 0.00490652, NaN, NaN, NaN, 0.03112983, "- N/A -   "
2.86, 91.1734, 0.004920405, NaN, NaN, NaN, 0.03112983, "- N/A -   "
2.87, 91.40929, 0.004937065, NaN, NaN, NaN, 0.03112983, "- N/A -   "
2.88, 91.76313, 0.00495373, NaN, NaN, NaN, 0.0323506, "- N/A -   "
2.89, 91.99903, 0.004967609, NaN, NaN, NaN, 0.0323506, "- N/A -   "
2.9, 92.35287, 0.004981493, NaN, NaN, NaN, 0.0335714, "- N/A -   "
2.91, 92.58876, 0.004998153, NaN, NaN, NaN, 0.0335714, "- N/A -   "
2.92, 92.94261, 0.00501481, NaN, NaN, NaN, 0.0335714, "- N/A -   "
2.93, 93.1785, 0.005031475, NaN, NaN, NaN, 0.0347922, "- N/A -   "
2.94, 93.53234, 0.00504536, NaN, NaN, NaN, 0.0347922, "- N/A -   "
2.95, 93.76824, 0.005062019, NaN, NaN, NaN, 0.0347922, "- N/A -   "
2.96, 94.0041, 0.00507868, NaN, NaN, NaN, 0.03601294, "- N/A -   "
2.97, 94.24, 0.005092563, NaN, NaN, NaN, 0.03601294, "- N/A -   "
2.98, 94.59387, 0.00510922, NaN, NaN, NaN, 0.03601294, "- N/A -   "
2.99, 94.8298, 0.00512588, NaN, NaN, NaN, 0.0372337, "- N/A -   "
3, 95.18361, 0.00513977, NaN, NaN, NaN, 0.0372337, "- N/A -   "
3.01, 95.41951, 0.00515643, NaN, NaN, NaN, 0.0384545, "- N/A -   "
3.02, 95.7733, 0.005170312, NaN, NaN, NaN, 0.0396753, "- N/A -   "
3.03, 95.8913, 0.0051842, NaN, NaN, NaN, 0.0396753, "- N/A -   "
3.04, 96.24514, 0.005200856, NaN, NaN, NaN, 0.0396753, "- N/A -   "
3.05, 96.599, 0.00521752, NaN, NaN, NaN, 0.0396753, "- N/A -   "
3.06, 96.83487, 0.005234177, NaN, NaN, NaN, 0.04089605, "- N/A -   "
3.07, 97.07077, 0.00524806, NaN, NaN, NaN, 0.04211683, "- N/A -   "
3.08, 97.30666, 0.005261945, NaN, NaN, NaN, 0.04211683, "- N/A -   "
3.09, 97.54256, 0.00527861, NaN, NaN, NaN, 0.0433376, "- N/A -   "
3.1, 97.8964, 0.005292489, NaN, NaN, NaN, 0.0433376, "- N/A -   "
3.11, 98.2502, 0.00530915, NaN, NaN, NaN, 0.0445584, "- N/A -   "
3.12, 98.4861, 0.00532303, NaN, NaN, NaN, 0.0445584, "- N/A -   "
3.13, 98.83998, 0.00533969, NaN, NaN, NaN, 0.0445584, "- N/A -   "
3.14, 98.9579, 0.00535635, NaN, NaN, NaN, 0.0445584, "- N/A -   "
3.15, 99.42972, 0.005373015, NaN, NaN, NaN, 0.04577916, "- N/A -   "
3.16, 99.66561, 0.005386899, NaN, NaN, NaN, 0.04577916, "- N/A -   "
3.17, 100.019, 0.005403559, NaN, NaN, NaN, 0.04577916, "- N/A -   "
3.18, 100.255, 0.00542022, NaN, NaN, NaN, 0.04577916, "- N/A -   "
3.19, 100.491, 0.00543966, NaN, NaN, NaN, 0.0445584, "- N/A -   "
3.2, 100.963, 0.005459094, NaN, NaN, NaN, 0.0445584, "- N/A -   "
3.21, 101.317, 0.00547576, NaN, NaN, NaN, 0.0433376, "- N/A -   "
3.22, 101.671, 0.00549519, NaN, NaN, NaN, 0.04211683, "- N/A -   "
3.23, 102.025, 0.005514629, NaN, NaN, NaN, 0.04089605, "- N/A -   "
3.24, 102.3784, 0.005534066, NaN, NaN, NaN, 0.04089605, "- N/A -   "
3.25, 102.732, 0.0055535, NaN, NaN, NaN, 0.0396753, "- N/A -   "
3.26, 103.086, 0.005570164, NaN, NaN, NaN, 0.0384545, "- N/A -   "
3.27, 103.322, 0.0055896, NaN, NaN, NaN, 0.0372337, "- N/A -   "
3.28, 103.676, 0.00560626, NaN, NaN, NaN, 0.0372337, "- N/A -   "
3.29, 104.148, 0.0056257, NaN, NaN, NaN, 0.0372337, "- N/A -   "
3.3, 104.501, 0.005645136, NaN, NaN, NaN, 0.03601294, "- N/A -   "
3.31, 104.855, 0.0056618, NaN, NaN, NaN, 0.0347922, "- N/A -   "
3.32, 105.091, 0.00567846, NaN, NaN, NaN, 0.0347922, "- N/A -   "
3.33, 105.327, 0.0056979, NaN, NaN, NaN, 0.0335714, "- N/A -   "
3.34, 105.799, 0.00571456, NaN, NaN, NaN, 0.0335714, "- N/A -   "
3.35, 106.035, 0.005733992, NaN, NaN, NaN, 0.0335714, "- N/A -   "
3.36, 106.271, 0.005747876, NaN, NaN, NaN, 0.0335714, "- N/A -   "
3.37, 106.507, 0.00576454, NaN, NaN, NaN, 0.0335714, "- N/A -   "
3.38, 106.86, 0.0057812, NaN, NaN, NaN, 0.0335714, "- N/A -   "
3.39, 107.214, 0.005797858, NaN, NaN, NaN, 0.0347922, "- N/A -   "
3.4, 107.45, 0.00581174, NaN, NaN, NaN, 0.0347922, "- N/A -   "
3.41, 107.686, 0.005828402, NaN, NaN, NaN, 0.0347922, "- N/A -   "
3.42, 108.158, 0.00584784, NaN, NaN, NaN, 0.0347922, "- N/A -   "
3.43, 108.512, 0.0058645, NaN, NaN, NaN, 0.0347922, "- N/A -   "
3.44, 108.748, 0.00588116, NaN, NaN, NaN, 0.0347922, "- N/A -   "
3.45, 108.983, 0.00589504, NaN, NaN, NaN, 0.0347922, "- N/A -   "
3.46, 109.219, 0.005908928, NaN, NaN, NaN, 0.03601294, "- N/A -   "
3.47, 109.5732, 0.00592559, NaN, NaN, NaN, 0.03601294, "- N/A -   "
3.48, 109.8091, 0.00594225, NaN, NaN, NaN, 0.03601294, "- N/A -   "
3.49, 110.281, 0.00595891, NaN, NaN, NaN, 0.03601294, "- N/A -   "
3.5, 110.517, 0.00597835, NaN, NaN, NaN, 0.03601294, "- N/A -   "
3.51, 110.871, 0.005997784, NaN, NaN, NaN, 0.0347922, "- N/A -   "
3.52, 111.224, 0.006014444, NaN, NaN, NaN, 0.0335714, "- N/A -   "
3.53, 111.578, 0.00603111, NaN, NaN, NaN, 0.0335714, "- N/A -   "
3.54, 111.8142, 0.00604777, NaN, NaN, NaN, 0.0335714, "- N/A -   "
3.55, 112.168, 0.0060672, NaN, NaN, NaN, 0.0335714, "- N/A -   "
3.56, 112.522, 0.006083864, NaN, NaN, NaN, 0.0335714, "- N/A -   "
3.57, 112.758, 0.00609775, NaN, NaN, NaN, 0.0335714, "- N/A -   "
3.58, 113.112, 0.006114408, NaN, NaN, NaN, 0.0335714, "- N/A -   "
3.59, 113.348, 0.006133844, NaN, NaN, NaN, 0.0323506, "- N/A -   "
3.6, 113.701, 0.00615051, NaN, NaN, NaN, 0.0335714, "- N/A -   "
3.61, 113.937, 0.006167166, NaN, NaN, NaN, 0.0335714, "- N/A -   "
3.62, 114.2911, 0.00618105, NaN, NaN, NaN, 0.0347922, "- N/A -   "
3.63, 114.527, 0.00619771, NaN, NaN, NaN, 0.03601294, "- N/A -   "
3.64, 114.881, 0.00621437, NaN, NaN, NaN, 0.03601294, "- N/A -   "
3.65, 115.235, 0.006231032, NaN, NaN, NaN, 0.03601294, "- N/A -   "
3.66, 115.471, 0.00624491, NaN, NaN, NaN, 0.03601294, "- N/A -   "
3.67, 115.706, 0.0062588, NaN, NaN, NaN, 0.0372337, "- N/A -   "
3.68, 116.06, 0.00627546, NaN, NaN, NaN, 0.0384545, "- N/A -   "
3.69, 116.296, 0.00628934, NaN, NaN, NaN, 0.0396753, "- N/A -   "
3.7, 116.5321, 0.006303226, NaN, NaN, NaN, 0.0396753, "- N/A -   "
3.71, 116.768, 0.00631711, NaN, NaN, NaN, 0.04089605, "- N/A -   "
3.72, 117.004, 0.00633377, NaN, NaN, NaN, 0.04211683, "- N/A -   "
3.73, 117.24, 0.00635043, NaN, NaN, NaN, 0.04211683, "- N/A -   "
3.74, 117.712, 0.006367092, NaN, NaN, NaN, 0.04089605, "- N/A -   "
3.75, 118.065, 0.00638375, NaN, NaN, NaN, 0.04089605, "- N/A -   "
3.76, 118.301, 0.00640319, NaN, NaN, NaN, 0.0396753, "- N/A -   "
3.77, 118.7731, 0.00641985, NaN, NaN, NaN, 0.0396753, "- N/A -   "
3.78, 119.127, 0.00643651, NaN, NaN, NaN, 0.0396753, "- N/A -   "
3.79, 119.363, 0.006453172, NaN, NaN, NaN, 0.0396753, "- N/A -   "
3.8, 119.599, 0.006469832, NaN, NaN, NaN, 0.0396753, "- N/A -   "
3.81, 120.071, 0.006486492, NaN, NaN, NaN, 0.04089605, "- N/A -   "
3.82, 120.188, 0.00650315, NaN, NaN, NaN, 0.0396753, "- N/A -   "
3.83, 120.66, 0.006519814, NaN, NaN, NaN, 0.04089605, "- N/A -   "
3.84, 121.014, 0.006536474, NaN, NaN, NaN, 0.0396753, "- N/A -   "
3.85, 121.25, 0.00655313, NaN, NaN, NaN, 0.0396753, "- N/A -   "
3.86, 121.604, 0.006572572, NaN, NaN, NaN, 0.0396753, "- N/A -   "
3.87, 121.84, 0.00658646, NaN, NaN, NaN, 0.0396753, "- N/A -   "
3.88, 122.312, 0.00660589, NaN, NaN, NaN, 0.0384545, "- N/A -   "
3.89, 122.547, 0.00662255, NaN, NaN, NaN, 0.0384545, "- N/A -   "
3.9, 123.019, 0.00664199, NaN, NaN, NaN, 0.0384545, "- N/A -   "
3.91, 123.255, 0.00665865, NaN, NaN, NaN, 0.0384545, "- N/A -   "
3.92, 123.491, 0.006675312, NaN, NaN, NaN, 0.0372337, "- N/A -   "
3.93, 123.845, 0.00669475, NaN, NaN, NaN, 0.03601294, "- N/A -   "
3.94, 124.199, 0.00671141, NaN, NaN, NaN, 0.03601294, "- N/A -   "
3.95, 124.553, 0.00672807, NaN, NaN, NaN, 0.03601294, "- N/A -   "
3.96, 124.788, 0.00674473, NaN, NaN, NaN, 0.03601294, "- N/A -   "
3.97, 125.142, 0.00676139, NaN, NaN, NaN, 0.03601294, "- N/A -   "
3.98, 125.378, 0.006778052, NaN, NaN, NaN, 0.0372337, "- N/A -   "
3.99, 125.732, 0.006791935, NaN, NaN, NaN, 0.0372337, "- N/A -   "
4, 126.086, 0.006808596, NaN, NaN, NaN, 0.0372337, "- N/A -   "
4.01, 126.204, 0.006825256, NaN, NaN, NaN, 0.0384545, "- N/A -   "
4.02, 126.676, 0.00683914, NaN, NaN, NaN, 0.0384545, "- N/A -   "
4.03, 126.911, 0.0068558, NaN, NaN, NaN, 0.0396753, "- N/A -   "
4.04, 127.147, 0.00686968, NaN, NaN, NaN, 0.0396753, "- N/A -   "
4.05, 127.501, 0.006889122, NaN, NaN, NaN, 0.0396753, "- N/A -   "
4.06, 127.737, 0.006905782, NaN, NaN, NaN, 0.0396753, "- N/A -   "
4.07, 128.209, 0.00692244, NaN, NaN, NaN, 0.0396753, "- N/A -   "
4.08, 128.4448, 0.0069391, NaN, NaN, NaN, 0.0384545, "- N/A -   "
4.09, 128.799, 0.00695854, NaN, NaN, NaN, 0.0384545, "- N/A -   "
4.1, 129.152, 0.0069752, NaN, NaN, NaN, 0.0372337, "- N/A -   "
4.11, 129.624, 0.00699741, NaN, NaN, NaN, 0.03601294, "- N/A -   "
4.12, 129.86, 0.007014075, NaN, NaN, NaN, 0.03601294, "- N/A -   "
4.13, 130.214, 0.007030736, NaN, NaN, NaN, 0.0347922, "- N/A -   "
4.14, 130.4499, 0.007050173, NaN, NaN, NaN, 0.0347922, "- N/A -   "
4.15, 130.804, 0.00706683, NaN, NaN, NaN, 0.0335714, "- N/A -   "
4.16, 131.1576, 0.007083494, NaN, NaN, NaN, 0.0335714, "- N/A -   "
4.17, 131.393, 0.00710015, NaN, NaN, NaN, 0.0335714, "- N/A -   "
4.18, 131.747, 0.00711681, NaN, NaN, NaN, 0.0347922, "- N/A -   "
4.19, 132.101, 0.007133476, NaN, NaN, NaN, 0.0347922, "- N/A -   "
4.2, 132.455, 0.00715014, NaN, NaN, NaN, 0.0335714, "- N/A -   "
4.21, 132.809, 0.007169573, NaN, NaN, NaN, 0.0335714, "- N/A -   "
4.22, 133.163, 0.00718623, NaN, NaN, NaN, 0.0323506, "- N/A -   "
4.23, 133.399, 0.00720289, NaN, NaN, NaN, 0.0323506, "- N/A -   "
4.24, 133.752, 0.007219555, NaN, NaN, NaN, 0.0323506, "- N/A -   "
4.25, 134.106, 0.007236215, NaN, NaN, NaN, 0.0323506, "- N/A -   "
4.26, 134.46, 0.007252876, NaN, NaN, NaN, 0.0335714, "- N/A -   "
4.27, 134.696, 0.00726954, NaN, NaN, NaN, 0.0323506, "- N/A -   "
4.28, 134.932, 0.0072862, NaN, NaN, NaN, 0.0335714, "- N/A -   "
4.29, 135.4037, 0.007302857, NaN, NaN, NaN, 0.0323506, "- N/A -   "
4.3, 135.64, 0.00732229, NaN, NaN, NaN, 0.0323506, "- N/A -   "
4.31, 136.111, 0.007338955, NaN, NaN, NaN, 0.03112983, "- N/A -   "
4.32, 136.465, 0.00735839, NaN, NaN, NaN, 0.03112983, "- N/A -   "
4.33, 136.819, 0.00737228, NaN, NaN, NaN, 0.03112983, "- N/A -   "
4.34, 137.055, 0.007391713, NaN, NaN, NaN, 0.03112983, "- N/A -   "
4.35, 137.4088, 0.007405597, NaN, NaN, NaN, 0.03112983, "- N/A -   "
4.36, 137.6447, 0.007422258, NaN, NaN, NaN, 0.03112983, "- N/A -   "
4.37, 138.116, 0.00743892, NaN, NaN, NaN, 0.03112983, "- N/A -   "
4.38, 138.234, 0.0074528, NaN, NaN, NaN, 0.0335714, "- N/A -   "
4.39, 138.588, 0.00746391, NaN, NaN, NaN, 0.0347922, "- N/A -   "
4.4, 138.706, 0.007477793, NaN, NaN, NaN, 0.03601294, "- N/A -   "
4.41, 138.942, 0.0074889, NaN, NaN, NaN, 0.0384545, "- N/A -   "
4.42, 139.06, 0.007502783, NaN, NaN, NaN, 0.0396753, "- N/A -   "
4.43, 139.414, 0.007516667, NaN, NaN, NaN, 0.04089605, "- N/A -   "
4.44, 139.768, 0.00753333, NaN, NaN, NaN, 0.04089605, "- N/A -   "
4.45, 140.1216, 0.00754999, NaN, NaN, NaN, 0.04089605, "- N/A -   "
4.46, 140.357, 0.007566649, NaN, NaN, NaN, 0.04089605, "- N/A -   "
4.47, 140.711, 0.007583309, NaN, NaN, NaN, 0.04089605, "- N/A -   "
4.48, 141.065, 0.00759997, NaN, NaN, NaN, 0.04089605, "- N/A -   "
4.49, 141.419, 0.00761663, NaN, NaN, NaN, 0.04089605, "- N/A -   "
4.5, 141.773, 0.00763329, NaN, NaN, NaN, 0.04089605, "- N/A -   "
4.51, 142.009, 0.007647175, NaN, NaN, NaN, 0.04211683, "- N/A -   "
4.52, 142.3626, 0.007663835, NaN, NaN, NaN, 0.0433376, "- N/A -   "
4.53, 142.5985, 0.007677719, NaN, NaN, NaN, 0.0433376, "- N/A -   "
4.54, 142.952, 0.007694379, NaN, NaN, NaN, 0.0433376, "- N/A -   "
4.55, 143.188, 0.007708263, NaN, NaN, NaN, 0.0445584, "- N/A -   "
4.56, 143.542, 0.007724923, NaN, NaN, NaN, 0.0445584, "- N/A -   "
4.57, 143.896, 0.00774158, NaN, NaN, NaN, 0.0445584, "- N/A -   "
4.58, 144.25, 0.007758245, NaN, NaN, NaN, 0.0445584, "- N/A -   "
4.59, 144.604, 0.00777491, NaN, NaN, NaN, 0.0445584, "- N/A -   "
4.6, 144.722, 0.00779157, NaN, NaN, NaN, 0.0445584, "- N/A -   "
4.61, 145.193, 0.00780823, NaN, NaN, NaN, 0.0445584, "- N/A -   "
4.62, 145.547, 0.007824887, NaN, NaN, NaN, 0.0445584, "- N/A -   "
4.63, 145.901, 0.007841547, NaN, NaN, NaN, 0.0445584, "- N/A -   "
4.64, 146.255, 0.007860985, NaN, NaN, NaN, 0.0433376, "- N/A -   "
4.65, 146.727, 0.007880421, NaN, NaN, NaN, 0.0433376, "- N/A -   "
4.66, 146.963, 0.007899859, NaN, NaN, NaN, 0.04211683, "- N/A -   "
4.67, 147.434, 0.007919297, NaN, NaN, NaN, 0.04089605, "- N/A -   "
4.68, 147.788, 0.007938733, NaN, NaN, NaN, 0.0384545, "- N/A -   "
4.69, 148.26, 0.007960947, NaN, NaN, NaN, 0.0372337, "- N/A -   "
4.7, 148.732, 0.007977609, NaN, NaN, NaN, 0.03601294, "- N/A -   "
4.71, 148.968, 0.007994269, NaN, NaN, NaN, 0.03601294, "- N/A -   "
4.72, 149.3215, 0.008010929, NaN, NaN, NaN, 0.03601294, "- N/A -   "
4.73, 149.557, 0.008027589, NaN, NaN, NaN, 0.03601294, "- N/A -   "
4.74, 150.029, 0.00804425, NaN, NaN, NaN, 0.03601294, "- N/A -   "
4.75, 150.383, 0.008063687, NaN, NaN, NaN, 0.0347922, "- N/A -   "
4.76, 150.619, 0.008080347, NaN, NaN, NaN, 0.03601294, "- N/A -   "
4.77, 150.973, 0.008097009, NaN, NaN, NaN, 0.0347922, "- N/A -   "
4.78, 151.327, 0.00811645, NaN, NaN, NaN, 0.0347922, "- N/A -   "
4.79, 151.68, 0.008133107, NaN, NaN, NaN, 0.0335714, "- N/A -   "
4.8, 151.916, 0.008149767, NaN, NaN, NaN, 0.0335714, "- N/A -   "
4.81, 152.27, 0.008166427, NaN, NaN, NaN, 0.0335714, "- N/A -   "
4.82, 152.624, 0.008183087, NaN, NaN, NaN, 0.0335714, "- N/A -   "
4.83, 152.978, 0.008199749, NaN, NaN, NaN, 0.0347922, "- N/A -   "
4.84, 153.332, 0.008213632, NaN, NaN, NaN, 0.0347922, "- N/A -   "
4.85, 153.686, 0.008233069, NaN, NaN, NaN, 0.0347922, "- N/A -   "
4.86, 154.0394, 0.008246954, NaN, NaN, NaN, 0.0347922, "- N/A -   "
4.87, 154.393, 0.008263613, NaN, NaN, NaN, 0.0347922, "- N/A -   "
4.88, 154.629, 0.008285827, NaN, NaN, NaN, 0.0335714, "- N/A -   "
4.89, 155.101, 0.008302487, NaN, NaN, NaN, 0.0323506, "- N/A -   "
4.9, 155.455, 0.008321925, NaN, NaN, NaN, 0.03112983, "- N/A -   "
4.91, 155.809, 0.008341363, NaN, NaN, NaN, 0.0299091, "- N/A -   "
4.92, 156.162, 0.008358023, NaN, NaN, NaN, 0.0299091, "- N/A -   "
4.93, 156.634, 0.008377461, NaN, NaN, NaN, 0.0299091, "- N/A -   "
4.94, 156.988, 0.008394121, NaN, NaN, NaN, 0.0299091, "- N/A -   "
4.95, 157.342, 0.008410782, NaN, NaN, NaN, 0.0299091, "- N/A -   "
4.96, 157.578, 0.008427442, NaN, NaN, NaN, 0.0299091, "- N/A -   "
4.97, 157.932, 0.008444103, NaN, NaN, NaN, 0.0299091, "- N/A -   "
4.98, 158.168, 0.008457986, NaN, NaN, NaN, 0.0299091, "- N/A -   "
4.99, 158.403, 0.008474647, NaN, NaN, NaN, 0.0299091, "- N/A -   "
5, 158.7573, 0.008488531, NaN, NaN, NaN, 0.03112983, "- N/A -   "
5.01, 159.111, 0.008505192, NaN, NaN, NaN, 0.03112983, "- N/A -   "
5.02, 159.347, 0.008519075, NaN, NaN, NaN, 0.0323506, "- N/A -   "
5.03, 159.701, 0.008535735, NaN, NaN, NaN, 0.0323506, "- N/A -   "
5.04, 159.937, 0.00854962, NaN, NaN, NaN, 0.0335714, "- N/A -   "
5.05, 160.173, 0.008563503, NaN, NaN, NaN, 0.0347922, "- N/A -   "
5.06, 160.409, 0.008577387, NaN, NaN, NaN, 0.03601294, "- N/A -   "
5.07, 160.7624, 0.00859127, NaN, NaN, NaN, 0.0372337, "- N/A -   "
5.08, 160.998, 0.008605153, NaN, NaN, NaN, 0.0384545, "- N/A -   "
5.09, 161.352, 0.008619037, NaN, NaN, NaN, 0.0396753, "- N/A -   "
5.1, 161.4701, 0.008635698, NaN, NaN, NaN, 0.04089605, "- N/A -   "
5.11, 161.824, 0.008649582, NaN, NaN, NaN, 0.04211683, "- N/A -   "
5.12, 162.06, 0.008660689, NaN, NaN, NaN, 0.0433376, "- N/A -   "
5.13, 162.414, 0.008674573, NaN, NaN, NaN, 0.0445584, "- N/A -   "
5.14, 162.768, 0.008691234, NaN, NaN, NaN, 0.0445584, "- N/A -   "
5.15, 163.0034, 0.008707894, NaN, NaN, NaN, 0.04577916, "- N/A -   "
5.16, 163.357, 0.00872455, NaN, NaN, NaN, 0.04577916, "- N/A -   "
5.17, 163.593, 0.008738438, NaN, NaN, NaN, 0.04577916, "- N/A -   "
5.18, 164.065, 0.008752322, NaN, NaN, NaN, 0.04699994, "- N/A -   "
5.19, 164.301, 0.008768982, NaN, NaN, NaN, 0.04699994, "- N/A -   "
5.2, 164.537, 0.008785644, NaN, NaN, NaN, 0.04699994, "- N/A -   "
5.21, 165.009, 0.008802303, NaN, NaN, NaN, 0.04699994, "- N/A -   "
5.22, 165.2444, 0.008821742, NaN, NaN, NaN, 0.04577916, "- N/A -   "
5.23, 165.7162, 0.008841177, NaN, NaN, NaN, 0.04577916, "- N/A -   "
5.24, 166.07, 0.008860615, NaN, NaN, NaN, 0.0445584, "- N/A -   "
5.25, 166.542, 0.00887728, NaN, NaN, NaN, 0.0433376, "- N/A -   "
5.26, 166.896, 0.008896713, NaN, NaN, NaN, 0.04211683, "- N/A -   "
5.27, 167.25, 0.00891615, NaN, NaN, NaN, 0.04089605, "- N/A -   "
5.28, 167.7213, 0.00893559, NaN, NaN, NaN, 0.0396753, "- N/A -   "
5.29, 168.075, 0.008952248, NaN, NaN, NaN, 0.0396753, "- N/A -   "
5.3, 168.547, 0.008971686, NaN, NaN, NaN, 0.0384545, "- N/A -   "
5.31, 168.901, 0.008988346, NaN, NaN, NaN, 0.0384545, "- N/A -   "
5.32, 169.255, 0.009007784, NaN, NaN, NaN, 0.0384545, "- N/A -   "
5.33, 169.373, 0.009024444, NaN, NaN, NaN, 0.0384545, "- N/A -   "
5.34, 169.844, 0.009041104, NaN, NaN, NaN, 0.0372337, "- N/A -   "
5.35, 170.1982, 0.009060541, NaN, NaN, NaN, 0.0372337, "- N/A -   "
5.36, 170.552, 0.009074425, NaN, NaN, NaN, 0.0372337, "- N/A -   "
5.37, 170.788, 0.009091086, NaN, NaN, NaN, 0.0372337, "- N/A -   "
5.38, 171.142, 0.009107746, NaN, NaN, NaN, 0.0372337, "- N/A -   "
5.39, 171.614, 0.009124407, NaN, NaN, NaN, 0.0372337, "- N/A -   "
5.4, 171.849, 0.009143844, NaN, NaN, NaN, 0.0372337, "- N/A -   "
5.41, 172.203, 0.009160504, NaN, NaN, NaN, 0.0372337, "- N/A -   "
5.42, 172.557, 0.009177165, NaN, NaN, NaN, 0.03601294, "- N/A -   "
5.43, 172.793, 0.009196602, NaN, NaN, NaN, 0.0347922, "- N/A -   "
5.44, 173.265, 0.009213262, NaN, NaN, NaN, 0.0347922, "- N/A -   "
5.45, 173.619, 0.009229924, NaN, NaN, NaN, 0.0347922, "- N/A -   "
5.46, 173.973, 0.00924936, NaN, NaN, NaN, 0.0335714, "- N/A -   "
5.47, 174.326, 0.009268798, NaN, NaN, NaN, 0.0335714, "- N/A -   "
5.48, 174.798, 0.009288236, NaN, NaN, NaN, 0.03112983, "- N/A -   "
5.49, 175.034, 0.009304896, NaN, NaN, NaN, 0.03112983, "- N/A -   "
5.5, 175.506, 0.009324333, NaN, NaN, NaN, 0.0299091, "- N/A -   "
5.51, 175.86, 0.009340994, NaN, NaN, NaN, 0.0299091, "- N/A -   "
5.52, 176.096, 0.009357654, NaN, NaN, NaN, 0.0299091, "- N/A -   "
5.53, 176.567, 0.009374314, NaN, NaN, NaN, 0.0299091, "- N/A -   "
5.54, 176.803, 0.009390974, NaN, NaN, NaN, 0.0299091, "- N/A -   "
5.55, 177.275, 0.009410412, NaN, NaN, NaN, 0.0286883, "- N/A -   "
5.56, 177.511, 0.00942985, NaN, NaN, NaN, 0.0286883, "- N/A -   "
5.57, 177.983, 0.00944651, NaN, NaN, NaN, 0.0274675, "- N/A -   "
5.58, 178.219, 0.009463171, NaN, NaN, NaN, 0.0274675, "- N/A -   "
5.59, 178.69, 0.009482608, NaN, NaN, NaN, 0.0262467, "- N/A -   "
5.6, 178.926, 0.009499268, NaN, NaN, NaN, 0.0262467, "- N/A -   "
5.61, 179.28, 0.009515928, NaN, NaN, NaN, 0.0262467, "- N/A -   "
5.62, 179.516, 0.009529812, NaN, NaN, NaN, 0.0274675, "- N/A -   "
5.63, 179.87, 0.009543696, NaN, NaN, NaN, 0.0286883, "- N/A -   "
5.64, 180.224, 0.00955758, NaN, NaN, NaN, 0.0299091, "- N/A -   "
5.65, 180.342, 0.00957424, NaN, NaN, NaN, 0.03112983, "- N/A -   "
5.66, 180.696, 0.009588124, NaN, NaN, NaN, 0.0323506, "- N/A -   "
5.67, 180.931, 0.009602008, NaN, NaN, NaN, 0.0323506, "- N/A -   "
5.68, 181.167, 0.009615892, NaN, NaN, NaN, 0.0335714, "- N/A -   "
5.69, 181.403, 0.009629776, NaN, NaN, NaN, 0.03601294, "- N/A -   "
5.7, 181.639, 0.00964366, NaN, NaN, NaN, 0.03601294, "- N/A -   "
5.71, 182.1109, 0.009657542, NaN, NaN, NaN, 0.0372337, "- N/A -   "
5.72, 182.229, 0.009674204, NaN, NaN, NaN, 0.0372337, "- N/A -   "
5.73, 182.583, 0.009688088, NaN, NaN, NaN, 0.0384545, "- N/A -   "
5.74, 182.937, 0.009701971, NaN, NaN, NaN, 0.0396753, "- N/A -   "
5.75, 183.172, 0.009718632, NaN, NaN, NaN, 0.0396753, "- N/A -   "
5.76, 183.408, 0.009729738, NaN, NaN, NaN, 0.04211683, "- N/A -   "
5.77, 183.644, 0.00974362, NaN, NaN, NaN, 0.0433376, "- N/A -   "
5.78, 183.998, 0.009757506, NaN, NaN, NaN, 0.0445584, "- N/A -   "
5.79, 184.234, 0.009774166, NaN, NaN, NaN, 0.0445584, "- N/A -   "
5.8, 184.5878, 0.00978805, NaN, NaN, NaN, 0.04577916, "- N/A -   "
5.81, 184.824, 0.009804712, NaN, NaN, NaN, 0.04577916, "- N/A -   "
5.82, 185.295, 0.009821372, NaN, NaN, NaN, 0.04577916, "- N/A -   "
5.83, 185.531, 0.009838033, NaN, NaN, NaN, 0.04577916, "- N/A -   "
5.84, 185.885, 0.009854692, NaN, NaN, NaN, 0.04577916, "- N/A -   "
5.85, 186.239, 0.009871353, NaN, NaN, NaN, 0.04577916, "- N/A -   "
5.86, 186.593, 0.00989079, NaN, NaN, NaN, 0.0445584, "- N/A -   "
5.87, 186.947, 0.009904674, NaN, NaN, NaN, 0.04577916, "- N/A -   "
5.88, 187.183, 0.009924112, NaN, NaN, NaN, 0.0445584, "- N/A -   "
5.89, 187.654, 0.009940772, NaN, NaN, NaN, 0.0445584, "- N/A -   "
5.9, 188.008, 0.00996021, NaN, NaN, NaN, 0.0433376, "- N/A -   "
5.91, 188.244, 0.00997687, NaN, NaN, NaN, 0.0433376, "- N/A -   "
5.92, 188.598, 0.00999353, NaN, NaN, NaN, 0.0433376, "- N/A -   "
5.93, 188.952, 0.010013, NaN, NaN, NaN, 0.0433376, "- N/A -   "
5.94, 189.3057, 0.0100296, NaN, NaN, NaN, 0.04211683, "- N/A -   "
5.95, 189.777, 0.0100491, NaN, NaN, NaN, 0.04089605, "- N/A -   "
[...]
35.39, 1325.68, 0.05913371, NaN, NaN, NaN, 0.0347922, "- N/A -   "
35.4, 1326.275, 0.0591531, NaN, NaN, NaN, 0.0335714, "- N/A -   "
35.41, 1326.752, 0.0591726, NaN, NaN, NaN, 0.0323506, "- N/A -   "
35.42, 1327.229, 0.0591892, NaN, NaN, NaN, 0.03112983, "- N/A -   "
35.43, 1327.83, 0.0592087, NaN, NaN, NaN, 0.03112983, "- N/A -   "
35.44, 1328.06, 0.0592253, NaN, NaN, NaN, 0.0299091, "- N/A -   "
35.45, 1328.54, 0.059242, NaN, NaN, NaN, 0.03112983, "- N/A -   "
35.46, 1328.9, 0.0592587, NaN, NaN, NaN, 0.03112983, "- N/A -   "
35.47, 1329.38, 0.0592725, NaN, NaN, NaN, 0.03112983, "- N/A -   "
35.48, 1329.73, 0.0592892, NaN, NaN, NaN, 0.0323506, "- N/A -   "
35.49, 1330.21, 0.0593031, NaN, NaN, NaN, 0.0323506, "- N/A -   "
35.5, 1330.568, 0.0593198, NaN, NaN, NaN, 0.0323506, "- N/A -   "
35.51, 1330.81, 0.0593336, NaN, NaN, NaN, 0.0335714, "- N/A -   "
35.52, 1331.28, 0.0593475, NaN, NaN, NaN, 0.0347922, "- N/A -   "
35.53, 1331.64, 0.0593642, NaN, NaN, NaN, 0.0347922, "- N/A -   "
35.54, 1332.12, 0.05938084, NaN, NaN, NaN, 0.0347922, "- N/A -   "
35.55, 1332.6, 0.0594003, NaN, NaN, NaN, 0.0347922, "- N/A -   "
35.56, 1333.07, 0.05941694, NaN, NaN, NaN, 0.0335714, "- N/A -   "
35.57, 1333.55, 0.0594336, NaN, NaN, NaN, 0.0335714, "- N/A -   "
35.58, 1333.91, 0.0594503, NaN, NaN, NaN, 0.0335714, "- N/A -   "
35.59, 1334.26, 0.0594669, NaN, NaN, NaN, 0.0335714, "- N/A -   "
35.6, 1334.86, 0.0594836, NaN, NaN, NaN, 0.0335714, "- N/A -   "
35.61, 1335.46, 0.059503, NaN, NaN, NaN, 0.0323506, "- N/A -   "
35.62, 1335.82, 0.0595225, NaN, NaN, NaN, 0.03112983, "- N/A -   "
35.63, 1336.41, 0.0595391, NaN, NaN, NaN, 0.03112983, "- N/A -   "
35.64, 1336.89, 0.05955855, NaN, NaN, NaN, 0.0299091, "- N/A -   "
35.65, 1337.37, 0.05957521, NaN, NaN, NaN, 0.0299091, "- N/A -   "
35.66, 1337.72, 0.05959187, NaN, NaN, NaN, 0.0299091, "- N/A -   "
35.67, 1338.08, 0.05960576, NaN, NaN, NaN, 0.03112983, "- N/A -   "
35.68, 1338.56, 0.0596224, NaN, NaN, NaN, 0.03112983, "- N/A -   "
35.69, 1338.92, 0.05963908, NaN, NaN, NaN, 0.03112983, "- N/A -   "
35.7, 1339.27, 0.05965296, NaN, NaN, NaN, 0.0323506, "- N/A -   "
35.71, 1339.75, 0.05966962, NaN, NaN, NaN, 0.0323506, "- N/A -   "
35.72, 1340.11, 0.0596835, NaN, NaN, NaN, 0.0335714, "- N/A -   "
35.73, 1340.59, 0.0597002, NaN, NaN, NaN, 0.0335714, "- N/A -   "
35.74, 1340.82, 0.0597168, NaN, NaN, NaN, 0.0347922, "- N/A -   "
35.75, 1341.42, 0.0597307, NaN, NaN, NaN, 0.0347922, "- N/A -   "
35.76, 1341.78, 0.05974737, NaN, NaN, NaN, 0.03601294, "- N/A -   "
35.77, 1342.14, 0.0597613, NaN, NaN, NaN, 0.03601294, "- N/A -   "
35.78, 1342.49, 0.0597779, NaN, NaN, NaN, 0.03601294, "- N/A -   "
35.79, 1342.851, 0.0597946, NaN, NaN, NaN, 0.0372337, "- N/A -   "
35.8, 1343.21, 0.05980568, NaN, NaN, NaN, 0.0384545, "- N/A -   "
35.81, 1343.69, 0.0598223, NaN, NaN, NaN, 0.0384545, "- N/A -   "
35.82, 1343.92, 0.05983623, NaN, NaN, NaN, 0.0396753, "- N/A -   "
35.83, 1344.4, 0.05985011, NaN, NaN, NaN, 0.04089605, "- N/A -   "
35.84, 1344.64, 0.059864, NaN, NaN, NaN, 0.04211683, "- N/A -   "
35.85, 1345, 0.0598779, NaN, NaN, NaN, 0.0433376, "- N/A -   "
35.86, 1345.36, 0.05989176, NaN, NaN, NaN, 0.0445584, "- N/A -   "
35.87, 1345.713, 0.05990565, NaN, NaN, NaN, 0.04577916, "- N/A -   "
35.88, 1346.19, 0.0599223, NaN, NaN, NaN, 0.04577916, "- N/A -   "
35.89, 1346.43, 0.059939, NaN, NaN, NaN, 0.04699994, "- N/A -   "
35.9, 1347.02, 0.05995285, NaN, NaN, NaN, 0.04699994, "- N/A -   "
35.91, 1347.38, 0.05996951, NaN, NaN, NaN, 0.04699994, "- N/A -   "
35.92, 1347.86, 0.05998617, NaN, NaN, NaN, 0.04699994, "- N/A -   "
35.93, 1348.22, 0.06000283, NaN, NaN, NaN, 0.04699994, "- N/A -   "
35.94, 1348.69, 0.06002227, NaN, NaN, NaN, 0.04699994, "- N/A -   "
35.95, 1349.17, 0.0600389, NaN, NaN, NaN, 0.04577916, "- N/A -   "
35.96, 1349.65, 0.0600584, NaN, NaN, NaN, 0.0445584, "- N/A -   "
35.97, 1350.24, 0.0600778, NaN, NaN, NaN, 0.0433376, "- N/A -   "
35.98, 1350.72, 0.0600972, NaN, NaN, NaN, 0.04211683, "- N/A -   "
35.99, 1351.2, 0.0601167, NaN, NaN, NaN, 0.04089605, "- N/A -   "
36, 1351.79, 0.06013334, NaN, NaN, NaN, 0.04089605, "- N/A -   "
36.01, 1352.27, 0.0601528, NaN, NaN, NaN, 0.0396753, "- N/A -   "
36.02, 1352.75, 0.06016944, NaN, NaN, NaN, 0.0396753, "- N/A -   "
36.03, 1353.11, 0.0601889, NaN, NaN, NaN, 0.0396753, "- N/A -   "
36.04, 1353.58, 0.06020276, NaN, NaN, NaN, 0.0396753, "- N/A -   "
36.05, 1353.94, 0.0602222, NaN, NaN, NaN, 0.0396753, "- N/A -   "
36.06, 1354.42, 0.0602389, NaN, NaN, NaN, 0.0396753, "- N/A -   "
36.07, 1354.9, 0.0602583, NaN, NaN, NaN, 0.0384545, "- N/A -   "
36.08, 1355.37, 0.060275, NaN, NaN, NaN, 0.0372337, "- N/A -   "
36.09, 1355.73, 0.0602916, NaN, NaN, NaN, 0.0372337, "- N/A -   "
36.1, 1356.21, 0.0603083, NaN, NaN, NaN, 0.0372337, "- N/A -   "
36.11, 1356.68, 0.0603249, NaN, NaN, NaN, 0.0372337, "- N/A -   "
36.12, 1357.16, 0.0603416, NaN, NaN, NaN, 0.0372337, "- N/A -   "
36.13, 1357.64, 0.0603583, NaN, NaN, NaN, 0.0372337, "- N/A -   "
36.14, 1358, 0.0603777, NaN, NaN, NaN, 0.0372337, "- N/A -   "
36.15, 1358.59, 0.0603944, NaN, NaN, NaN, 0.03601294, "- N/A -   "
36.16, 1359.07, 0.0604138, NaN, NaN, NaN, 0.03601294, "- N/A -   "
36.17, 1359.55, 0.0604332, NaN, NaN, NaN, 0.0347922, "- N/A -   "
36.18, 1360.02, 0.06044989, NaN, NaN, NaN, 0.0335714, "- N/A -   "
36.19, 1360.62, 0.0604693, NaN, NaN, NaN, 0.0323506, "- N/A -   "
36.2, 1360.98, 0.06048599, NaN, NaN, NaN, 0.0323506, "- N/A -   "
36.21, 1361.45, 0.0605054, NaN, NaN, NaN, 0.03112983, "- N/A -   "
36.22, 1361.93, 0.0605249, NaN, NaN, NaN, 0.03112983, "- N/A -   "
36.23, 1362.41, 0.06054152, NaN, NaN, NaN, 0.03112983, "- N/A -   "
36.24, 1362.89, 0.0605582, NaN, NaN, NaN, 0.03112983, "- N/A -   "
36.25, 1363.36, 0.0605748, NaN, NaN, NaN, 0.0299091, "- N/A -   "
36.26, 1363.72, 0.06059428, NaN, NaN, NaN, 0.0299091, "- N/A -   "
36.27, 1364.197, 0.0606109, NaN, NaN, NaN, 0.0286883, "- N/A -   "
36.28, 1364.55, 0.0606276, NaN, NaN, NaN, 0.0286883, "- N/A -   "
36.29, 1365.15, 0.06064426, NaN, NaN, NaN, 0.0286883, "- N/A -   "
36.3, 1365.628, 0.06066092, NaN, NaN, NaN, 0.0286883, "- N/A -   "
36.31, 1365.99, 0.06067758, NaN, NaN, NaN, 0.0286883, "- N/A -   "
36.32, 1366.34, 0.0606915, NaN, NaN, NaN, 0.0299091, "- N/A -   "
36.33, 1366.7, 0.0607054, NaN, NaN, NaN, 0.03112983, "- N/A -   "
36.34, 1367.06, 0.0607192, NaN, NaN, NaN, 0.0323506, "- N/A -   "
36.35, 1367.42, 0.0607359, NaN, NaN, NaN, 0.0323506, "- N/A -   "
36.36, 1367.77, 0.0607498, NaN, NaN, NaN, 0.0335714, "- N/A -   "
36.37, 1368.13, 0.06076366, NaN, NaN, NaN, 0.0347922, "- N/A -   "
36.38, 1368.49, 0.06078032, NaN, NaN, NaN, 0.03601294, "- N/A -   "
36.39, 1368.967, 0.06079421, NaN, NaN, NaN, 0.03601294, "- N/A -   "
36.4, 1369.32, 0.0608081, NaN, NaN, NaN, 0.0372337, "- N/A -   "
36.41, 1369.56, 0.060822, NaN, NaN, NaN, 0.0384545, "- N/A -   "
36.42, 1370.16, 0.0608359, NaN, NaN, NaN, 0.0396753, "- N/A -   "
36.43, 1370.4, 0.0608497, NaN, NaN, NaN, 0.04089605, "- N/A -   "
36.44, 1370.52, 0.0608636, NaN, NaN, NaN, 0.04211683, "- N/A -   "
36.45, 1371.11, 0.06088029, NaN, NaN, NaN, 0.0433376, "- N/A -   "
36.46, 1371.35, 0.06089417, NaN, NaN, NaN, 0.0433376, "- N/A -   "
36.47, 1371.83, 0.0609081, NaN, NaN, NaN, 0.0445584, "- N/A -   "
36.48, 1372.19, 0.0609247, NaN, NaN, NaN, 0.0445584, "- N/A -   "
36.49, 1372.664, 0.0609414, NaN, NaN, NaN, 0.0445584, "- N/A -   "
36.5, 1373.02, 0.06095803, NaN, NaN, NaN, 0.0445584, "- N/A -   "
36.51, 1373.618, 0.06097747, NaN, NaN, NaN, 0.0445584, "- N/A -   "
36.52, 1374.095, 0.06099413, NaN, NaN, NaN, 0.0433376, "- N/A -   "
36.53, 1374.45, 0.0610108, NaN, NaN, NaN, 0.0433376, "- N/A -   "
36.54, 1374.93, 0.0610275, NaN, NaN, NaN, 0.0433376, "- N/A -   "
36.55, 1375.526, 0.06104689, NaN, NaN, NaN, 0.04211683, "- N/A -   "
36.56, 1375.88, 0.0610636, NaN, NaN, NaN, 0.04211683, "- N/A -   "
36.57, 1376.36, 0.0610802, NaN, NaN, NaN, 0.04211683, "- N/A -   "
36.58, 1376.84, 0.06109965, NaN, NaN, NaN, 0.04089605, "- N/A -   "
36.59, 1377.31, 0.06111631, NaN, NaN, NaN, 0.04089605, "- N/A -   "
36.6, 1377.55, 0.06113297, NaN, NaN, NaN, 0.04211683, "- N/A -   "
36.61, 1378.03, 0.0611496, NaN, NaN, NaN, 0.04211683, "- N/A -   "
36.62, 1378.51, 0.0611663, NaN, NaN, NaN, 0.04211683, "- N/A -   "
36.63, 1378.865, 0.0611802, NaN, NaN, NaN, 0.04211683, "- N/A -   "
36.64, 1379.342, 0.0611968, NaN, NaN, NaN, 0.04211683, "- N/A -   "
36.65, 1379.819, 0.0612135, NaN, NaN, NaN, 0.04211683, "- N/A -   "
36.66, 1380.296, 0.0612329, NaN, NaN, NaN, 0.04089605, "- N/A -   "
36.67, 1380.65, 0.0612496, NaN, NaN, NaN, 0.04089605, "- N/A -   "
36.68, 1381.25, 0.06126903, NaN, NaN, NaN, 0.04089605, "- N/A -   "
36.69, 1381.727, 0.0612857, NaN, NaN, NaN, 0.0396753, "- N/A -   "
36.7, 1382.2, 0.0613051, NaN, NaN, NaN, 0.0384545, "- N/A -   "
36.71, 1382.68, 0.0613246, NaN, NaN, NaN, 0.0384545, "- N/A -   "
36.72, 1383.28, 0.061344, NaN, NaN, NaN, 0.0372337, "- N/A -   "
36.73, 1383.75, 0.0613634, NaN, NaN, NaN, 0.03601294, "- N/A -   "
36.74, 1384.23, 0.06138288, NaN, NaN, NaN, 0.0347922, "- N/A -   "
36.75, 1384.83, 0.0614023, NaN, NaN, NaN, 0.0335714, "- N/A -   "
36.76, 1385.424, 0.0614218, NaN, NaN, NaN, 0.03112983, "- N/A -   "
36.77, 1385.9, 0.06144119, NaN, NaN, NaN, 0.0299091, "- N/A -   "
36.78, 1386.38, 0.0614606, NaN, NaN, NaN, 0.0286883, "- N/A -   "
36.79, 1386.85, 0.0614801, NaN, NaN, NaN, 0.0286883, "- N/A -   "
36.8, 1387.33, 0.0614967, NaN, NaN, NaN, 0.0274675, "- N/A -   "
36.81, 1387.69, 0.0615134, NaN, NaN, NaN, 0.0274675, "- N/A -   "
36.82, 1388.17, 0.06153, NaN, NaN, NaN, 0.0274675, "- N/A -   "
36.83, 1388.52, 0.0615467, NaN, NaN, NaN, 0.0274675, "- N/A -   "
36.84, 1389.12, 0.0615634, NaN, NaN, NaN, 0.0274675, "- N/A -   "
36.85, 1389.48, 0.0615828, NaN, NaN, NaN, 0.0274675, "- N/A -   "
36.86, 1389.84, 0.06159669, NaN, NaN, NaN, 0.0274675, "- N/A -   "
36.87, 1390.31, 0.0616106, NaN, NaN, NaN, 0.0286883, "- N/A -   "
36.88, 1390.671, 0.0616272, NaN, NaN, NaN, 0.0286883, "- N/A -   "
36.89, 1391.03, 0.0616439, NaN, NaN, NaN, 0.0299091, "- N/A -   "
36.9, 1391.51, 0.0616578, NaN, NaN, NaN, 0.0299091, "- N/A -   "
36.91, 1391.86, 0.06167444, NaN, NaN, NaN, 0.03112983, "- N/A -   "
36.92, 1392.34, 0.06168832, NaN, NaN, NaN, 0.03112983, "- N/A -   "
36.93, 1392.579, 0.06170498, NaN, NaN, NaN, 0.03112983, "- N/A -   "
36.94, 1393.056, 0.0617189, NaN, NaN, NaN, 0.0323506, "- N/A -   "
36.95, 1393.29, 0.06173275, NaN, NaN, NaN, 0.0335714, "- N/A -   "
36.96, 1393.77, 0.06174663, NaN, NaN, NaN, 0.0347922, "- N/A -   "
36.97, 1394.13, 0.0617633, NaN, NaN, NaN, 0.0347922, "- N/A -   "
36.98, 1394.61, 0.0617772, NaN, NaN, NaN, 0.03601294, "- N/A -   "
36.99, 1394.96, 0.0617938, NaN, NaN, NaN, 0.0372337, "- N/A -   "
37, 1395.32, 0.06180772, NaN, NaN, NaN, 0.0372337, "- N/A -   "
37.01, 1395.8, 0.06182438, NaN, NaN, NaN, 0.0372337, "- N/A -   "
37.02, 1396.28, 0.06184382, NaN, NaN, NaN, 0.0372337, "- N/A -   "
37.03, 1396.75, 0.06186048, NaN, NaN, NaN, 0.03601294, "- N/A -   "
37.04, 1397.23, 0.0618771, NaN, NaN, NaN, 0.03601294, "- N/A -   "
37.05, 1397.71, 0.0618938, NaN, NaN, NaN, 0.03601294, "- N/A -   "
37.06, 1397.95, 0.06191046, NaN, NaN, NaN, 0.03601294, "- N/A -   "
37.07, 1398.54, 0.0619243, NaN, NaN, NaN, 0.0372337, "- N/A -   "
37.08, 1398.9, 0.06194378, NaN, NaN, NaN, 0.03601294, "- N/A -   "
37.09, 1399.5, 0.0619604, NaN, NaN, NaN, 0.03601294, "- N/A -   "
37.1, 1399.73, 0.06197988, NaN, NaN, NaN, 0.03601294, "- N/A -   "
37.11, 1400.33, 0.0619938, NaN, NaN, NaN, 0.03601294, "- N/A -   "
37.12, 1400.69, 0.0620104, NaN, NaN, NaN, 0.03601294, "- N/A -   "
37.13, 1400.93, 0.0620243, NaN, NaN, NaN, 0.0384545, "- N/A -   "
37.14, 1401.4, 0.0620382, NaN, NaN, NaN, 0.0384545, "- N/A -   "
37.15, 1401.76, 0.0620521, NaN, NaN, NaN, 0.0396753, "- N/A -   "
37.16, 1402.24, 0.0620687, NaN, NaN, NaN, 0.0396753, "- N/A -   "
37.17, 1402.6, 0.06208262, NaN, NaN, NaN, 0.04089605, "- N/A -   "
37.18, 1402.954, 0.0620993, NaN, NaN, NaN, 0.04089605, "- N/A -   "
37.19, 1403.431, 0.06211594, NaN, NaN, NaN, 0.04211683, "- N/A -   "
37.2, 1403.79, 0.0621298, NaN, NaN, NaN, 0.04211683, "- N/A -   "
37.21, 1404.385, 0.06214649, NaN, NaN, NaN, 0.04211683, "- N/A -   "
37.22, 1404.62, 0.0621631, NaN, NaN, NaN, 0.0433376, "- N/A -   "
37.23, 1404.98, 0.06217703, NaN, NaN, NaN, 0.0433376, "- N/A -   "
37.24, 1405.339, 0.0621909, NaN, NaN, NaN, 0.0445584, "- N/A -   "
37.25, 1405.7, 0.0622048, NaN, NaN, NaN, 0.04577916, "- N/A -   "
37.26, 1406.05, 0.06221868, NaN, NaN, NaN, 0.04699994, "- N/A -   "
37.27, 1406.53, 0.0622353, NaN, NaN, NaN, 0.04699994, "- N/A -   "
37.28, 1406.89, 0.062252, NaN, NaN, NaN, 0.04699994, "- N/A -   "
37.29, 1407.37, 0.0622687, NaN, NaN, NaN, 0.04699994, "- N/A -   "
37.3, 1407.96, 0.0622881, NaN, NaN, NaN, 0.04699994, "- N/A -   "
37.31, 1408.32, 0.06230754, NaN, NaN, NaN, 0.04577916, "- N/A -   "
37.32, 1408.92, 0.0623242, NaN, NaN, NaN, 0.0445584, "- N/A -   "
37.33, 1409.39, 0.06234363, NaN, NaN, NaN, 0.0433376, "- N/A -   "
37.34, 1409.87, 0.06236307, NaN, NaN, NaN, 0.04211683, "- N/A -   "
37.35, 1410.586, 0.0623825, NaN, NaN, NaN, 0.04089605, "- N/A -   "
37.36, 1411.06, 0.0624047, NaN, NaN, NaN, 0.0384545, "- N/A -   "
37.37, 1411.66, 0.06242694, NaN, NaN, NaN, 0.0372337, "- N/A -   "
37.38, 1412.14, 0.0624436, NaN, NaN, NaN, 0.03601294, "- N/A -   "
37.39, 1412.61, 0.062463, NaN, NaN, NaN, 0.0347922, "- N/A -   "
37.4, 1413.09, 0.0624825, NaN, NaN, NaN, 0.0335714, "- N/A -   "
37.41, 1413.57, 0.0624991, NaN, NaN, NaN, 0.0335714, "- N/A -   "
37.42, 1414.04, 0.0625186, NaN, NaN, NaN, 0.0323506, "- N/A -   "
37.43, 1414.52, 0.0625352, NaN, NaN, NaN, 0.0323506, "- N/A -   "
37.44, 1415, 0.06255189, NaN, NaN, NaN, 0.0323506, "- N/A -   "
37.45, 1415.48, 0.06257133, NaN, NaN, NaN, 0.03112983, "- N/A -   "
37.46, 1415.83, 0.06258521, NaN, NaN, NaN, 0.0323506, "- N/A -   "
37.47, 1416.19, 0.06260187, NaN, NaN, NaN, 0.0335714, "- N/A -   "
37.48, 1416.55, 0.06261575, NaN, NaN, NaN, 0.0335714, "- N/A -   "
37.49, 1416.91, 0.06263242, NaN, NaN, NaN, 0.0347922, "- N/A -   "
37.5, 1417.26, 0.06264353, NaN, NaN, NaN, 0.03601294, "- N/A -   "
37.51, 1417.622, 0.06266019, NaN, NaN, NaN, 0.03601294, "- N/A -   "
37.52, 1417.98, 0.06267407, NaN, NaN, NaN, 0.0372337, "- N/A -   "
37.53, 1418.46, 0.06269073, NaN, NaN, NaN, 0.0372337, "- N/A -   "
37.54, 1418.93, 0.06270739, NaN, NaN, NaN, 0.0372337, "- N/A -   "
37.55, 1419.41, 0.06272405, NaN, NaN, NaN, 0.0372337, "- N/A -   "
37.56, 1419.77, 0.0627407, NaN, NaN, NaN, 0.0372337, "- N/A -   "
37.57, 1420.25, 0.06275737, NaN, NaN, NaN, 0.0372337, "- N/A -   "
37.58, 1420.6, 0.06277403, NaN, NaN, NaN, 0.0372337, "- N/A -   "
37.59, 1421.08, 0.06279347, NaN, NaN, NaN, 0.0372337, "- N/A -   "
37.6, 1421.56, 0.06281013, NaN, NaN, NaN, 0.03601294, "- N/A -   "
37.61, 1422.03, 0.06282679, NaN, NaN, NaN, 0.03601294, "- N/A -   "
37.62, 1422.39, 0.06284623, NaN, NaN, NaN, 0.03601294, "- N/A -   "
37.63, 1422.99, 0.06286289, NaN, NaN, NaN, 0.0347922, "- N/A -   "
37.64, 1423.47, 0.06288233, NaN, NaN, NaN, 0.0335714, "- N/A -   "
37.65, 1423.94, 0.062899, NaN, NaN, NaN, 0.0335714, "- N/A -   "
37.66, 1424.42, 0.0629184, NaN, NaN, NaN, 0.0323506, "- N/A -   "
37.67, 1424.9, 0.0629351, NaN, NaN, NaN, 0.0323506, "- N/A -   "
37.68, 1425.37, 0.06295174, NaN, NaN, NaN, 0.0323506, "- N/A -   "
37.69, 1425.85, 0.0629684, NaN, NaN, NaN, 0.0323506, "- N/A -   "
37.7, 1426.21, 0.06298506, NaN, NaN, NaN, 0.0335714, "- N/A -   "
37.71, 1426.685, 0.06299895, NaN, NaN, NaN, 0.0335714, "- N/A -   "
37.72, 1427.162, 0.06301561, NaN, NaN, NaN, 0.0335714, "- N/A -   "
37.73, 1427.52, 0.06303227, NaN, NaN, NaN, 0.0335714, "- N/A -   "
37.74, 1428, 0.06304615, NaN, NaN, NaN, 0.0347922, "- N/A -   "
37.75, 1428.24, 0.06306281, NaN, NaN, NaN, 0.0347922, "- N/A -   "
37.76, 1428.593, 0.06307948, NaN, NaN, NaN, 0.03601294, "- N/A -   "
37.77, 1429.07, 0.06309336, NaN, NaN, NaN, 0.03601294, "- N/A -   "
37.78, 1429.43, 0.06311002, NaN, NaN, NaN, 0.0372337, "- N/A -   "
37.79, 1429.9, 0.0631239, NaN, NaN, NaN, 0.0372337, "- N/A -   "
37.8, 1430.14, 0.0631378, NaN, NaN, NaN, 0.0384545, "- N/A -   "
37.81, 1430.5, 0.06314889, NaN, NaN, NaN, 0.04089605, "- N/A -   "
37.82, 1430.86, 0.0631628, NaN, NaN, NaN, 0.04211683, "- N/A -   "
37.83, 1431.22, 0.06317943, NaN, NaN, NaN, 0.04211683, "- N/A -   "
37.84, 1431.69, 0.06319332, NaN, NaN, NaN, 0.0433376, "- N/A -   "
37.85, 1432.05, 0.06320998, NaN, NaN, NaN, 0.0445584, "- N/A -   "
37.86, 1432.41, 0.06322664, NaN, NaN, NaN, 0.0433376, "- N/A -   "
37.87, 1432.89, 0.0632433, NaN, NaN, NaN, 0.0433376, "- N/A -   "
37.88, 1433.48, 0.06325996, NaN, NaN, NaN, 0.0433376, "- N/A -   "
37.89, 1433.84, 0.06328218, NaN, NaN, NaN, 0.04211683, "- N/A -   "
37.9, 1434.44, 0.06329884, NaN, NaN, NaN, 0.04089605, "- N/A -   "
37.91, 1435.03, 0.0633183, NaN, NaN, NaN, 0.0396753, "- N/A -   "
37.92, 1435.39, 0.06333771, NaN, NaN, NaN, 0.0384545, "- N/A -   "
37.93, 1435.87, 0.06335437, NaN, NaN, NaN, 0.0384545, "- N/A -   "
37.94, 1436.34, 0.06337103, NaN, NaN, NaN, 0.0384545, "- N/A -   "
37.95, 1436.7, 0.06338769, NaN, NaN, NaN, 0.0384545, "- N/A -   "
37.96, 1437.3, 0.06340435, NaN, NaN, NaN, 0.0384545, "- N/A -   "
37.97, 1437.537, 0.06342379, NaN, NaN, NaN, 0.0384545, "- N/A -   "
37.98, 1438.014, 0.06343768, NaN, NaN, NaN, 0.0384545, "- N/A -   "
37.99, 1438.491, 0.06345434, NaN, NaN, NaN, 0.0384545, "- N/A -   "
38, 1438.968, 0.063471, NaN, NaN, NaN, 0.0384545, "- N/A -   "
38.01, 1439.45, 0.06348766, NaN, NaN, NaN, 0.0384545, "- N/A -   "
38.02, 1439.8, 0.0635043, NaN, NaN, NaN, 0.0384545, "- N/A -   "
38.03, 1440.399, 0.0635238, NaN, NaN, NaN, 0.0372337, "- N/A -   "
38.04, 1440.76, 0.0635404, NaN, NaN, NaN, 0.0372337, "- N/A -   "
38.05, 1441.23, 0.06355985, NaN, NaN, NaN, 0.0372337, "- N/A -   "
38.06, 1441.71, 0.06357651, NaN, NaN, NaN, 0.0372337, "- N/A -   "
38.07, 1442.19, 0.06359317, NaN, NaN, NaN, 0.03601294, "- N/A -   "
38.08, 1442.66, 0.06360983, NaN, NaN, NaN, 0.03601294, "- N/A -   "
38.09, 1443.142, 0.06362649, NaN, NaN, NaN, 0.03601294, "- N/A -   "
38.1, 1443.5, 0.06364315, NaN, NaN, NaN, 0.0372337, "- N/A -   "
38.11, 1443.86, 0.06365704, NaN, NaN, NaN, 0.0372337, "- N/A -   "
38.12, 1444.22, 0.06367648, NaN, NaN, NaN, 0.03601294, "- N/A -   "
38.13, 1444.69, 0.0636931, NaN, NaN, NaN, 0.03601294, "- N/A -   "
38.14, 1445.29, 0.0637098, NaN, NaN, NaN, 0.03601294, "- N/A -   "
38.15, 1445.65, 0.0637265, NaN, NaN, NaN, 0.03601294, "- N/A -   "
38.16, 1446.12, 0.06374589, NaN, NaN, NaN, 0.03601294, "- N/A -   "
38.17, 1446.6, 0.06376255, NaN, NaN, NaN, 0.0347922, "- N/A -   "
38.18, 1447.08, 0.06378199, NaN, NaN, NaN, 0.0335714, "- N/A -   "
38.19, 1447.55, 0.06379865, NaN, NaN, NaN, 0.0335714, "- N/A -   "
38.2, 1448.15, 0.06381809, NaN, NaN, NaN, 0.0323506, "- N/A -   "
38.21, 1448.51, 0.06383753, NaN, NaN, NaN, 0.03112983, "- N/A -   "
38.22, 1449.1, 0.06385696, NaN, NaN, NaN, 0.03112983, "- N/A -   "
38.23, 1449.58, 0.06387363, NaN, NaN, NaN, 0.0299091, "- N/A -   "
38.24, 1450.06, 0.0638903, NaN, NaN, NaN, 0.0299091, "- N/A -   "
38.25, 1450.42, 0.0639069, NaN, NaN, NaN, 0.0299091, "- N/A -   "
38.26, 1450.774, 0.06392083, NaN, NaN, NaN, 0.03112983, "- N/A -   "
38.27, 1451.251, 0.06393749, NaN, NaN, NaN, 0.03112983, "- N/A -   "
38.28, 1451.49, 0.06395137, NaN, NaN, NaN, 0.0323506, "- N/A -   "
38.29, 1451.85, 0.06396803, NaN, NaN, NaN, 0.0323506, "- N/A -   "
38.3, 1452.32, 0.06398469, NaN, NaN, NaN, 0.0323506, "- N/A -   "
38.31, 1452.92, 0.06400135, NaN, NaN, NaN, 0.0323506, "- N/A -   "
38.32, 1453.28, 0.06401801, NaN, NaN, NaN, 0.0323506, "- N/A -   "
38.33, 1453.76, 0.06403745, NaN, NaN, NaN, 0.0323506, "- N/A -   "
38.34, 1454.113, 0.06405134, NaN, NaN, NaN, 0.0323506, "- N/A -   "
38.35, 1454.47, 0.064068, NaN, NaN, NaN, 0.0335714, "- N/A -   "
38.36, 1454.95, 0.0640819, NaN, NaN, NaN, 0.0335714, "- N/A -   "
38.366, 1455.19, 0.06409299, NaN, NaN, NaN, 0.0335714, "- N/A -   "