File: 2_Tensile_Data/Hamel_ForceTest_Bolt10_Test11.csv
Time, Load (lb), Position (in), AxialStrain (in), TransverseStrain (in), Auxiliary (), Control Out (V), Stress (psi)
0.0, 13.446, 0.0, NaN, NaN, NaN, -0.007935055, "- N/A -   "
0.01, 13.446, -2.776752E-6, NaN, NaN, NaN, -6.103888E-4, "- N/A -   "
0.02, 13.446, 0.0, NaN, NaN, NaN, 0.006714277, "- N/A -   "
0.03, 13.564, 0.0, NaN, NaN, NaN, 0.0250259, "- N/A -   "
0.04, 13.564, 5.553504E-6, NaN, NaN, NaN, 0.04211683, "- N/A -   "
0.05, 13.6819, 1.66605e-05, NaN, NaN, NaN, 0.05676616, "- N/A -   "
0.06, 14.0357, 3.054427E-5, NaN, NaN, NaN, 0.0701947, "- N/A -   "
0.07, 14.5075, 5.27583e-05, NaN, NaN, NaN, 0.0799609, "- N/A -   "
0.08, 15.0973, 7.774905E-5, NaN, NaN, NaN, 0.0897272, "- N/A -   "
0.09, 15.687, 0.000105517, NaN, NaN, NaN, 0.09705182, "- N/A -   "
0.1, 16.3947, 0.000136061, NaN, NaN, NaN, 0.100714, "- N/A -   "
0.11, 16.9844, 0.000166605, NaN, NaN, NaN, 0.09461027, "- N/A -   "
0.12, 17.5742, 0.000197149, NaN, NaN, NaN, 0.08850638, "- N/A -   "
0.13, 18.046, 0.00022214, NaN, NaN, NaN, 0.08362327, "- N/A -   "
0.14, 18.7536, 0.000249908, NaN, NaN, NaN, 0.07874016, "- N/A -   "
0.15, 19.1075, 0.000274898, NaN, NaN, NaN, 0.0750778, "- N/A -   "
0.16, 19.57928, 0.000297112, NaN, NaN, NaN, 0.07263627, "- N/A -   "
0.17, 19.9331, 3.165497E-4, NaN, NaN, NaN, 0.07141549, "- N/A -   "
0.18, 20.287, 0.000335987, NaN, NaN, NaN, 0.0701947, "- N/A -   "
0.19, 20.6408, 0.000355424, NaN, NaN, NaN, 0.0689739, "- N/A -   "
0.2, 21.1126, 3.748615E-4, NaN, NaN, NaN, 0.06775316, "- N/A -   "
0.21, 21.46644, 0.000397076, NaN, NaN, NaN, 0.0653116, "- N/A -   "
0.22, 21.8203, 0.000416513, NaN, NaN, NaN, 0.0653116, "- N/A -   "
0.23, 22.1741, 0.00043595, NaN, NaN, NaN, 0.0640908, "- N/A -   "
0.24, 22.528, 4.553873E-4, NaN, NaN, NaN, 0.06287005, "- N/A -   "
0.25, 22.88181, 0.000474825, NaN, NaN, NaN, 0.06164927, "- N/A -   "
0.26, 23.2357, 0.000491485, NaN, NaN, NaN, 0.0604285, "- N/A -   "
0.27, 23.5895, 0.000510922, NaN, NaN, NaN, 0.0592077, "- N/A -   "
0.28, 23.82539, 0.000533136, NaN, NaN, NaN, 0.0579869, "- N/A -   "
0.29, 24.29718, 0.000549797, NaN, NaN, NaN, 0.05676616, "- N/A -   "
0.3, 24.65102, 5.720109E-4, NaN, NaN, NaN, 0.0543246, "- N/A -   "
0.31, 25.0049, 0.000591448, NaN, NaN, NaN, 0.0531038, "- N/A -   "
0.32, 25.4767, 6.136621E-4, NaN, NaN, NaN, 0.05066227, "- N/A -   "
0.33, 25.8305, 6.330994E-4, NaN, NaN, NaN, 0.0494415, "- N/A -   "
0.34, 26.0664, 0.000655313, NaN, NaN, NaN, 0.04699994, "- N/A -   "
0.35, 26.4202, 6.747507E-4, NaN, NaN, NaN, 0.04699994, "- N/A -   "
0.36, 26.7741, 6.914112E-4, NaN, NaN, NaN, 0.04577916, "- N/A -   "
0.37, 27.1279, 7.108485E-4, NaN, NaN, NaN, 0.0445584, "- N/A -   "
0.38, 27.4818, 7.302857E-4, NaN, NaN, NaN, 0.0433376, "- N/A -   "
0.39, 27.8356, 7.49723E-4, NaN, NaN, NaN, 0.04211683, "- N/A -   "
0.4, 28.1894, 7.691603E-4, NaN, NaN, NaN, 0.04089605, "- N/A -   "
0.41, 28.42534, 0.000785821, NaN, NaN, NaN, 0.04089605, "- N/A -   "
0.42, 28.89713, 0.000802481, NaN, NaN, NaN, 0.04089605, "- N/A -   "
0.43, 29.0151, 8.191418E-4, NaN, NaN, NaN, 0.04211683, "- N/A -   "
0.44, 29.3689, 8.358023E-4, NaN, NaN, NaN, 0.04211683, "- N/A -   "
0.45, 29.7228, 8.524628E-4, NaN, NaN, NaN, 0.04211683, "- N/A -   "
0.46, 29.9587, 8.691233E-4, NaN, NaN, NaN, 0.04089605, "- N/A -   "
0.47, 30.3125, 8.857838E-4, NaN, NaN, NaN, 0.04089605, "- N/A -   "
0.48, 30.6663, 9.052211E-4, NaN, NaN, NaN, 0.0396753, "- N/A -   "
0.49, 31.0202, 9.246584E-4, NaN, NaN, NaN, 0.0384545, "- N/A -   "
0.5, 31.374, 9.440956E-4, NaN, NaN, NaN, 0.0372337, "- N/A -   "
0.51, 31.8458, 9.663096E-4, NaN, NaN, NaN, 0.03601294, "- N/A -   "
0.53, 32.5535, 0.00100241, NaN, NaN, NaN, 0.0335714, "- N/A -   "
0.55, 33.2612, 0.001041282, NaN, NaN, NaN, 0.03112983, "- N/A -   "
0.57, 33.9689, 0.00108016, NaN, NaN, NaN, 0.0299091, "- N/A -   "
0.59, 34.6766, 0.00111348, NaN, NaN, NaN, 0.0286883, "- N/A -   "
0.61, 35.2663, 0.00114958, NaN, NaN, NaN, 0.0286883, "- N/A -   "
0.63, 35.7381, 0.00117734, NaN, NaN, NaN, 0.0299091, "- N/A -   "
0.65, 36.44577, 0.00121066, NaN, NaN, NaN, 0.0299091, "- N/A -   "
0.67, 37.0355, 0.001241208, NaN, NaN, NaN, 0.03112983, "- N/A -   "
0.69, 37.6252, 0.00127175, NaN, NaN, NaN, 0.0323506, "- N/A -   "
0.71, 38.097, 0.00129952, NaN, NaN, NaN, 0.0347922, "- N/A -   "
0.73, 38.68677, 0.00133284, NaN, NaN, NaN, 0.03601294, "- N/A -   "
0.75, 39.2765, 0.00136339, NaN, NaN, NaN, 0.03601294, "- N/A -   "
0.77, 39.8662, 0.00139393, NaN, NaN, NaN, 0.0384545, "- N/A -   "
0.79, 40.33803, 0.00141892, NaN, NaN, NaN, 0.04089605, "- N/A -   "
0.81, 40.8098, 0.00144946, NaN, NaN, NaN, 0.0433376, "- N/A -   "
0.83, 41.39956, 0.00148001, NaN, NaN, NaN, 0.0433376, "- N/A -   "
0.85, 42.2252, 0.00151333, NaN, NaN, NaN, 0.0433376, "- N/A -   "
0.87, 42.93288, 0.00154943, NaN, NaN, NaN, 0.0433376, "- N/A -   "
0.89, 43.5226, 0.00158553, NaN, NaN, NaN, 0.04211683, "- N/A -   "
0.91, 44.2303, 0.00161607, NaN, NaN, NaN, 0.04211683, "- N/A -   "
0.93, 44.82, 0.00164661, NaN, NaN, NaN, 0.0433376, "- N/A -   "
0.95, 45.40978, 0.00167993, NaN, NaN, NaN, 0.0433376, "- N/A -   "
0.97, 46.11746, 0.00171326, NaN, NaN, NaN, 0.0433376, "- N/A -   "
0.99, 46.8251, 0.00174658, NaN, NaN, NaN, 0.0433376, "- N/A -   "
1.01, 47.5328, 0.001779898, NaN, NaN, NaN, 0.0433376, "- N/A -   "
1.03, 48.2405, 0.001816, NaN, NaN, NaN, 0.04211683, "- N/A -   "
1.05, 49.0661, 0.00185487, NaN, NaN, NaN, 0.04089605, "- N/A -   "
1.07, 49.7738, 0.00189374, NaN, NaN, NaN, 0.0372337, "- N/A -   "
1.09, 50.7174, 0.001935396, NaN, NaN, NaN, 0.0347922, "- N/A -   "
1.11, 51.543, 0.00197149, NaN, NaN, NaN, 0.0323506, "- N/A -   "
1.13, 52.36868, 0.00201037, NaN, NaN, NaN, 0.0299091, "- N/A -   "
1.15, 53.0764, 0.002046466, NaN, NaN, NaN, 0.0286883, "- N/A -   "
1.17, 53.784, 0.00207979, NaN, NaN, NaN, 0.0286883, "- N/A -   "
1.19, 54.4917, 0.002113108, NaN, NaN, NaN, 0.0286883, "- N/A -   "
1.21, 55.1994, 0.00214365, NaN, NaN, NaN, 0.0299091, "- N/A -   "
1.23, 55.7892, 0.00217697, NaN, NaN, NaN, 0.0299091, "- N/A -   "
1.25, 56.37889, 0.00221029, NaN, NaN, NaN, 0.03112983, "- N/A -   "
1.27, 57.20452, 0.00224084, NaN, NaN, NaN, 0.03112983, "- N/A -   "
1.29, 57.91221, 0.002271383, NaN, NaN, NaN, 0.0323506, "- N/A -   "
1.31, 58.384, 0.002304704, NaN, NaN, NaN, 0.0323506, "- N/A -   "
1.33, 59.2096, 0.00233525, NaN, NaN, NaN, 0.0335714, "- N/A -   "
1.35, 59.79937, 0.00236857, NaN, NaN, NaN, 0.0347922, "- N/A -   "
1.37, 60.5071, 0.00239911, NaN, NaN, NaN, 0.0347922, "- N/A -   "
1.39, 61.2147, 0.00243243, NaN, NaN, NaN, 0.0347922, "- N/A -   "
1.41, 61.9224, 0.00246576, NaN, NaN, NaN, 0.03601294, "- N/A -   "
1.43, 62.6301, 0.0024963, NaN, NaN, NaN, 0.03601294, "- N/A -   "
1.45, 63.33779, 0.00252962, NaN, NaN, NaN, 0.03601294, "- N/A -   "
1.47, 63.92753, 0.00256017, NaN, NaN, NaN, 0.0384545, "- N/A -   "
1.49, 64.5173, 0.002585156, NaN, NaN, NaN, 0.04089605, "- N/A -   "
1.51, 65.107, 0.0026157, NaN, NaN, NaN, 0.0433376, "- N/A -   "
1.53, 65.81469, 0.00264624, NaN, NaN, NaN, 0.0433376, "- N/A -   "
1.55, 66.64032, 0.00267679, NaN, NaN, NaN, 0.0445584, "- N/A -   "
1.57, 67.34801, 0.00271011, NaN, NaN, NaN, 0.0445584, "- N/A -   "
1.59, 67.9377, 0.002743431, NaN, NaN, NaN, 0.0445584, "- N/A -   "
1.61, 68.6454, 0.00277675, NaN, NaN, NaN, 0.0445584, "- N/A -   "
1.63, 69.47106, 0.00281285, NaN, NaN, NaN, 0.0433376, "- N/A -   "
1.65, 70.41464, 0.00284895, NaN, NaN, NaN, 0.04211683, "- N/A -   "
1.67, 71.24027, 0.002887822, NaN, NaN, NaN, 0.0396753, "- N/A -   "
1.69, 72.06591, 0.0029267, NaN, NaN, NaN, 0.0372337, "- N/A -   "
1.71, 72.89154, 0.002965571, NaN, NaN, NaN, 0.03601294, "- N/A -   "
1.73, 73.83511, 0.00300445, NaN, NaN, NaN, 0.0335714, "- N/A -   "
1.75, 74.66075, 0.00303777, NaN, NaN, NaN, 0.0323506, "- N/A -   "
1.77, 75.25049, 0.00307386, NaN, NaN, NaN, 0.0323506, "- N/A -   "
1.79, 76.07612, 0.00310719, NaN, NaN, NaN, 0.03112983, "- N/A -   "
1.81, 76.6659, 0.00313773, NaN, NaN, NaN, 0.0335714, "- N/A -   "
1.83, 77.25559, 0.003165497, NaN, NaN, NaN, 0.0347922, "- N/A -   "
1.85, 77.96328, 0.003196041, NaN, NaN, NaN, 0.03601294, "- N/A -   "
1.87, 78.67096, 0.00322936, NaN, NaN, NaN, 0.03601294, "- N/A -   "
1.89, 79.37865, 0.003259907, NaN, NaN, NaN, 0.0372337, "- N/A -   "
1.91, 80.20428, 0.003296, NaN, NaN, NaN, 0.0372337, "- N/A -   "
1.93, 81.0299, 0.00332933, NaN, NaN, NaN, 0.03601294, "- N/A -   "
1.95, 81.8555, 0.00336542, NaN, NaN, NaN, 0.03601294, "- N/A -   "
1.97, 82.68118, 0.00340152, NaN, NaN, NaN, 0.0335714, "- N/A -   "
1.99, 83.38886, 0.003437619, NaN, NaN, NaN, 0.0323506, "- N/A -   "
2.01, 84.09654, 0.003468163, NaN, NaN, NaN, 0.0335714, "- N/A -   "
2.03, 84.92217, 0.00350148, NaN, NaN, NaN, 0.0335714, "- N/A -   "
2.05, 85.62987, 0.00353481, NaN, NaN, NaN, 0.0335714, "- N/A -   "
2.07, 86.33755, 0.00356535, NaN, NaN, NaN, 0.0347922, "- N/A -   "
2.09, 87.04523, 0.00359867, NaN, NaN, NaN, 0.0347922, "- N/A -   "
2.11, 87.75292, 0.00362921, NaN, NaN, NaN, 0.03601294, "- N/A -   "
2.13, 88.4606, 0.00366254, NaN, NaN, NaN, 0.0372337, "- N/A -   "
2.15, 89.16828, 0.00369308, NaN, NaN, NaN, 0.0372337, "- N/A -   "
2.17, 89.758, 0.00372085, NaN, NaN, NaN, 0.0396753, "- N/A -   "
2.19, 90.4657, 0.00375139, NaN, NaN, NaN, 0.04089605, "- N/A -   "
2.21, 91.2913, 0.00378749, NaN, NaN, NaN, 0.04089605, "- N/A -   "
2.23, 92.23492, 0.00382081, NaN, NaN, NaN, 0.0396753, "- N/A -   "
2.25, 93.0606, 0.00385969, NaN, NaN, NaN, 0.0372337, "- N/A -   "
2.27, 93.8862, 0.00389301, NaN, NaN, NaN, 0.0372337, "- N/A -   "
2.29, 94.47592, 0.00392355, NaN, NaN, NaN, 0.0384545, "- N/A -   "
2.31, 95.41951, 0.00395965, NaN, NaN, NaN, 0.0372337, "- N/A -   "
2.33, 96.12719, 0.003995746, NaN, NaN, NaN, 0.0372337, "- N/A -   "
2.35, 96.83487, 0.00402629, NaN, NaN, NaN, 0.0372337, "- N/A -   "
2.37, 97.6605, 0.00406239, NaN, NaN, NaN, 0.0372337, "- N/A -   "
2.39, 98.60408, 0.004095709, NaN, NaN, NaN, 0.03601294, "- N/A -   "
2.41, 99.3118, 0.00412903, NaN, NaN, NaN, 0.03601294, "- N/A -   "
2.43, 100.019, 0.00416235, NaN, NaN, NaN, 0.03601294, "- N/A -   "
2.45, 100.845, 0.004195672, NaN, NaN, NaN, 0.0372337, "- N/A -   "
2.47, 101.671, 0.00423177, NaN, NaN, NaN, 0.03601294, "- N/A -   "
2.49, 102.26, 0.00425954, NaN, NaN, NaN, 0.0372337, "- N/A -   "
2.51, 103.086, 0.004295635, NaN, NaN, NaN, 0.0372337, "- N/A -   "
2.53, 103.912, 0.004328956, NaN, NaN, NaN, 0.03601294, "- N/A -   "
2.55, 104.855, 0.00436783, NaN, NaN, NaN, 0.0335714, "- N/A -   "
2.57, 105.563, 0.00440115, NaN, NaN, NaN, 0.0335714, "- N/A -   "
2.59, 106.389, 0.00443725, NaN, NaN, NaN, 0.0323506, "- N/A -   "
2.61, 107.0963, 0.00447057, NaN, NaN, NaN, 0.0323506, "- N/A -   "
2.63, 107.922, 0.004503892, NaN, NaN, NaN, 0.0323506, "- N/A -   "
2.65, 108.748, 0.004534436, NaN, NaN, NaN, 0.0335714, "- N/A -   "
2.67, 109.455, 0.004567757, NaN, NaN, NaN, 0.0335714, "- N/A -   "
2.69, 110.281, 0.004603855, NaN, NaN, NaN, 0.0323506, "- N/A -   "
2.71, 110.989, 0.004634399, NaN, NaN, NaN, 0.0335714, "- N/A -   "
2.73, 111.8142, 0.00466772, NaN, NaN, NaN, 0.0335714, "- N/A -   "
2.75, 112.522, 0.004701041, NaN, NaN, NaN, 0.0335714, "- N/A -   "
2.77, 113.348, 0.00473714, NaN, NaN, NaN, 0.0323506, "- N/A -   "
2.79, 114.173, 0.00477046, NaN, NaN, NaN, 0.0323506, "- N/A -   "
2.81, 114.999, 0.004806557, NaN, NaN, NaN, 0.03112983, "- N/A -   "
2.83, 115.824, 0.004837102, NaN, NaN, NaN, 0.0323506, "- N/A -   "
2.85, 116.414, 0.004864869, NaN, NaN, NaN, 0.0347922, "- N/A -   "
2.87, 117.122, 0.00489264, NaN, NaN, NaN, 0.0372337, "- N/A -   "
2.89, 117.712, 0.004923181, NaN, NaN, NaN, 0.0384545, "- N/A -   "
2.91, 118.419, 0.00495373, NaN, NaN, NaN, 0.0396753, "- N/A -   "
2.93, 119.245, 0.004987046, NaN, NaN, NaN, 0.04089605, "- N/A -   "
2.95, 119.953, 0.00501759, NaN, NaN, NaN, 0.04089605, "- N/A -   "
2.97, 120.66, 0.00504813, NaN, NaN, NaN, 0.04211683, "- N/A -   "
2.99, 121.368, 0.00507868, NaN, NaN, NaN, 0.0433376, "- N/A -   "
3.01, 122.194, 0.00510922, NaN, NaN, NaN, 0.0445584, "- N/A -   "
3.03, 123.019, 0.005145321, NaN, NaN, NaN, 0.0445584, "- N/A -   "
3.05, 123.845, 0.00517864, NaN, NaN, NaN, 0.0433376, "- N/A -   "
3.07, 124.553, 0.00521474, NaN, NaN, NaN, 0.0433376, "- N/A -   "
3.09, 125.614, 0.00525084, NaN, NaN, NaN, 0.04089605, "- N/A -   "
3.11, 126.558, 0.00528971, NaN, NaN, NaN, 0.0384545, "- N/A -   "
3.13, 127.619, 0.00533136, NaN, NaN, NaN, 0.03601294, "- N/A -   "
3.15, 128.4448, 0.005370238, NaN, NaN, NaN, 0.0335714, "- N/A -   "
3.17, 129.27, 0.00540634, NaN, NaN, NaN, 0.03112983, "- N/A -   "
3.19, 129.978, 0.005439657, NaN, NaN, NaN, 0.0323506, "- N/A -   "
3.21, 130.6858, 0.00546742, NaN, NaN, NaN, 0.0335714, "- N/A -   "
3.23, 131.511, 0.00549797, NaN, NaN, NaN, 0.03601294, "- N/A -   "
3.25, 132.337, 0.00553129, NaN, NaN, NaN, 0.0347922, "- N/A -   "
3.27, 133.045, 0.00556739, NaN, NaN, NaN, 0.0347922, "- N/A -   "
3.29, 133.87, 0.00560071, NaN, NaN, NaN, 0.0347922, "- N/A -   "
3.31, 134.696, 0.00563125, NaN, NaN, NaN, 0.0347922, "- N/A -   "
3.33, 135.522, 0.00566735, NaN, NaN, NaN, 0.0335714, "- N/A -   "
3.35, 136.465, 0.005706225, NaN, NaN, NaN, 0.03112983, "- N/A -   "
3.37, 137.4088, 0.0057451, NaN, NaN, NaN, 0.0299091, "- N/A -   "
3.39, 138.234, 0.00577842, NaN, NaN, NaN, 0.0286883, "- N/A -   "
3.41, 138.942, 0.005808965, NaN, NaN, NaN, 0.0299091, "- N/A -   "
3.43, 139.532, 0.005839509, NaN, NaN, NaN, 0.0323506, "- N/A -   "
3.45, 140.357, 0.005870053, NaN, NaN, NaN, 0.0323506, "- N/A -   "
3.47, 141.065, 0.005903374, NaN, NaN, NaN, 0.0335714, "- N/A -   "
3.49, 141.891, 0.005933919, NaN, NaN, NaN, 0.0335714, "- N/A -   "
3.51, 142.481, 0.005961686, NaN, NaN, NaN, 0.03601294, "- N/A -   "
3.53, 143.188, 0.00599223, NaN, NaN, NaN, 0.0372337, "- N/A -   "
3.55, 143.778, 0.006019998, NaN, NaN, NaN, 0.0396753, "- N/A -   "
3.57, 144.486, 0.006050542, NaN, NaN, NaN, 0.04211683, "- N/A -   "
3.59, 145.193, 0.00607831, NaN, NaN, NaN, 0.0433376, "- N/A -   "
3.61, 145.783, 0.006108854, NaN, NaN, NaN, 0.0445584, "- N/A -   "
3.63, 146.727, 0.006142175, NaN, NaN, NaN, 0.04577916, "- N/A -   "
3.65, 147.434, 0.006175496, NaN, NaN, NaN, 0.04577916, "- N/A -   "
3.67, 148.26, 0.00620604, NaN, NaN, NaN, 0.04699994, "- N/A -   "
3.69, 148.968, 0.006242138, NaN, NaN, NaN, 0.04699994, "- N/A -   "
3.71, 150.029, 0.006278236, NaN, NaN, NaN, 0.0445584, "- N/A -   "
3.73, 150.855, 0.00631711, NaN, NaN, NaN, 0.04211683, "- N/A -   "
3.75, 151.916, 0.006355985, NaN, NaN, NaN, 0.04089605, "- N/A -   "
3.77, 152.742, 0.006392082, NaN, NaN, NaN, 0.0384545, "- N/A -   "
3.79, 153.686, 0.006430957, NaN, NaN, NaN, 0.0372337, "- N/A -   "
3.81, 154.629, 0.006467055, NaN, NaN, NaN, 0.0347922, "- N/A -   "
3.83, 155.455, 0.006500376, NaN, NaN, NaN, 0.0347922, "- N/A -   "
3.85, 156.2804, 0.00653647, NaN, NaN, NaN, 0.0335714, "- N/A -   "
3.87, 156.988, 0.00656979, NaN, NaN, NaN, 0.0335714, "- N/A -   "
3.89, 157.932, 0.00660589, NaN, NaN, NaN, 0.0335714, "- N/A -   "
3.91, 158.7573, 0.00663921, NaN, NaN, NaN, 0.0323506, "- N/A -   "
3.93, 159.583, 0.006678088, NaN, NaN, NaN, 0.0299091, "- N/A -   "
3.95, 160.409, 0.006714186, NaN, NaN, NaN, 0.0299091, "- N/A -   "
3.97, 161.234, 0.00675028, NaN, NaN, NaN, 0.0286883, "- N/A -   "
3.99, 162.06, 0.00678083, NaN, NaN, NaN, 0.0286883, "- N/A -   "
4.01, 162.65, 0.006814149, NaN, NaN, NaN, 0.0286883, "- N/A -   "
4.03, 163.593, 0.00684747, NaN, NaN, NaN, 0.0286883, "- N/A -   "
4.05, 164.419, 0.00688357, NaN, NaN, NaN, 0.0274675, "- N/A -   "
4.07, 165.2444, 0.00691411, NaN, NaN, NaN, 0.0286883, "- N/A -   "
4.09, 165.834, 0.00694466, NaN, NaN, NaN, 0.0299091, "- N/A -   "
4.11, 166.542, 0.00697242, NaN, NaN, NaN, 0.0323506, "- N/A -   "
4.13, 167.132, 0.00699741, NaN, NaN, NaN, 0.03601294, "- N/A -   "
4.15, 167.7213, 0.00702518, NaN, NaN, NaN, 0.0384545, "- N/A -   "
4.17, 168.547, 0.00705573, NaN, NaN, NaN, 0.0396753, "- N/A -   "
4.19, 169.255, 0.00708627, NaN, NaN, NaN, 0.04089605, "- N/A -   "
4.21, 169.962, 0.00711681, NaN, NaN, NaN, 0.04211683, "- N/A -   "
4.23, 170.552, 0.00714736, NaN, NaN, NaN, 0.0445584, "- N/A -   "
4.25, 171.378, 0.007177904, NaN, NaN, NaN, 0.0445584, "- N/A -   "
4.27, 172.203, 0.007208448, NaN, NaN, NaN, 0.04577916, "- N/A -   "
4.29, 173.029, 0.00724177, NaN, NaN, NaN, 0.04577916, "- N/A -   "
4.31, 173.737, 0.007272313, NaN, NaN, NaN, 0.04699994, "- N/A -   "
4.33, 174.4443, 0.00730286, NaN, NaN, NaN, 0.0482207, "- N/A -   "
4.35, 175.27, 0.007336179, NaN, NaN, NaN, 0.0482207, "- N/A -   "
4.37, 176.096, 0.0073695, NaN, NaN, NaN, 0.0482207, "- N/A -   "
4.39, 176.9212, 0.007408374, NaN, NaN, NaN, 0.04699994, "- N/A -   "
4.41, 177.865, 0.00744447, NaN, NaN, NaN, 0.0445584, "- N/A -   "
4.43, 178.69, 0.007483346, NaN, NaN, NaN, 0.04211683, "- N/A -   "
4.45, 179.752, 0.00752222, NaN, NaN, NaN, 0.04089605, "- N/A -   "
4.47, 180.696, 0.007561095, NaN, NaN, NaN, 0.0384545, "- N/A -   "
4.49, 181.757, 0.00759997, NaN, NaN, NaN, 0.0347922, "- N/A -   "
4.51, 182.819, 0.0076444, NaN, NaN, NaN, 0.0299091, "- N/A -   "
4.53, 183.644, 0.0076805, NaN, NaN, NaN, 0.0286883, "- N/A -   "
4.55, 184.3519, 0.00771382, NaN, NaN, NaN, 0.0286883, "- N/A -   "
4.57, 185.06, 0.00774436, NaN, NaN, NaN, 0.0299091, "- N/A -   "
4.59, 185.885, 0.00777491, NaN, NaN, NaN, 0.03112983, "- N/A -   "
4.61, 186.593, 0.007808226, NaN, NaN, NaN, 0.03112983, "- N/A -   "
4.63, 187.419, 0.007841547, NaN, NaN, NaN, 0.03112983, "- N/A -   "
4.65, 188.008, 0.007872092, NaN, NaN, NaN, 0.0323506, "- N/A -   "
4.67, 188.834, 0.007902636, NaN, NaN, NaN, 0.0335714, "- N/A -   "
4.69, 189.66, 0.00793318, NaN, NaN, NaN, 0.0347922, "- N/A -   "
4.71, 190.367, 0.007966501, NaN, NaN, NaN, 0.0347922, "- N/A -   "
4.73, 191.075, 0.007997045, NaN, NaN, NaN, 0.03601294, "- N/A -   "
4.75, 191.901, 0.008030366, NaN, NaN, NaN, 0.03601294, "- N/A -   "
4.77, 192.726, 0.008060911, NaN, NaN, NaN, 0.0372337, "- N/A -   "
4.79, 193.3159, 0.008094232, NaN, NaN, NaN, 0.0384545, "- N/A -   "
4.81, 194.142, 0.008124776, NaN, NaN, NaN, 0.0384545, "- N/A -   "
4.83, 194.967, 0.008158097, NaN, NaN, NaN, 0.0396753, "- N/A -   "
4.85, 195.675, 0.008191418, NaN, NaN, NaN, 0.0396753, "- N/A -   "
4.87, 196.5, 0.00822196, NaN, NaN, NaN, 0.0396753, "- N/A -   "
4.89, 197.208, 0.008258061, NaN, NaN, NaN, 0.0396753, "- N/A -   "
4.91, 198.034, 0.008288604, NaN, NaN, NaN, 0.0396753, "- N/A -   "
4.93, 198.859, 0.008319149, NaN, NaN, NaN, 0.04089605, "- N/A -   "
4.95, 199.567, 0.008349692, NaN, NaN, NaN, 0.04211683, "- N/A -   "
4.97, 200.393, 0.008383013, NaN, NaN, NaN, 0.04211683, "- N/A -   "
4.99, 200.9825, 0.008413558, NaN, NaN, NaN, 0.0433376, "- N/A -   "
5.01, 201.808, 0.00844688, NaN, NaN, NaN, 0.0433376, "- N/A -   "
5.03, 202.7517, 0.008482977, NaN, NaN, NaN, 0.04211683, "- N/A -   "
5.05, 203.695, 0.008521851, NaN, NaN, NaN, 0.0396753, "- N/A -   "
5.07, 204.639, 0.00856073, NaN, NaN, NaN, 0.0372337, "- N/A -   "
5.09, 205.7, 0.008599601, NaN, NaN, NaN, 0.0347922, "- N/A -   "
5.11, 206.408, 0.008638475, NaN, NaN, NaN, 0.0323506, "- N/A -   "
5.13, 207.352, 0.008674572, NaN, NaN, NaN, 0.03112983, "- N/A -   "
5.15, 208.177, 0.008707894, NaN, NaN, NaN, 0.03112983, "- N/A -   "
5.17, 209.003, 0.008743991, NaN, NaN, NaN, 0.0299091, "- N/A -   "
5.19, 209.829, 0.008780089, NaN, NaN, NaN, 0.0299091, "- N/A -   "
5.21, 210.654, 0.008813411, NaN, NaN, NaN, 0.0286883, "- N/A -   "
5.23, 211.362, 0.008843955, NaN, NaN, NaN, 0.0299091, "- N/A -   "
5.25, 212.07, 0.008874499, NaN, NaN, NaN, 0.03112983, "- N/A -   "
5.27, 212.777, 0.008902267, NaN, NaN, NaN, 0.0335714, "- N/A -   "
5.29, 213.485, 0.00893281, NaN, NaN, NaN, 0.0347922, "- N/A -   "
5.31, 214.1926, 0.008963355, NaN, NaN, NaN, 0.03601294, "- N/A -   "
5.33, 214.9, 0.0089939, NaN, NaN, NaN, 0.0372337, "- N/A -   "
5.35, 215.49, 0.00902722, NaN, NaN, NaN, 0.0372337, "- N/A -   "
5.37, 216.434, 0.009060541, NaN, NaN, NaN, 0.0372337, "- N/A -   "
5.39, 217.377, 0.009096639, NaN, NaN, NaN, 0.03601294, "- N/A -   "
5.41, 218.203, 0.009135514, NaN, NaN, NaN, 0.0335714, "- N/A -   "
5.43, 219.028, 0.009171611, NaN, NaN, NaN, 0.0335714, "- N/A -   "
5.45, 219.8541, 0.009202156, NaN, NaN, NaN, 0.0335714, "- N/A -   "
5.47, 220.562, 0.009235477, NaN, NaN, NaN, 0.0335714, "- N/A -   "
5.49, 221.152, 0.009263244, NaN, NaN, NaN, 0.03601294, "- N/A -   "
5.51, 221.859, 0.009296565, NaN, NaN, NaN, 0.0372337, "- N/A -   "
5.53, 222.567, 0.009327109, NaN, NaN, NaN, 0.0372337, "- N/A -   "
5.55, 223.157, 0.009357654, NaN, NaN, NaN, 0.0384545, "- N/A -   "
5.57, 223.746, 0.009385421, NaN, NaN, NaN, 0.04089605, "- N/A -   "
5.59, 224.572, 0.009413189, NaN, NaN, NaN, 0.0433376, "- N/A -   "
5.61, 225.28, 0.00944651, NaN, NaN, NaN, 0.0433376, "- N/A -   "
5.63, 225.987, 0.009479831, NaN, NaN, NaN, 0.0433376, "- N/A -   "
5.65, 226.813, 0.009515928, NaN, NaN, NaN, 0.04211683, "- N/A -   "
5.67, 227.757, 0.009552026, NaN, NaN, NaN, 0.04089605, "- N/A -   "
5.69, 228.346, 0.009588124, NaN, NaN, NaN, 0.04089605, "- N/A -   "
5.71, 229.172, 0.009618668, NaN, NaN, NaN, 0.04089605, "- N/A -   "
5.73, 229.998, 0.00965199, NaN, NaN, NaN, 0.04089605, "- N/A -   "
5.75, 230.705, 0.009685311, NaN, NaN, NaN, 0.04089605, "- N/A -   "
5.77, 231.649, 0.009724185, NaN, NaN, NaN, 0.0384545, "- N/A -   "
5.79, 232.357, 0.009760283, NaN, NaN, NaN, 0.0384545, "- N/A -   "
5.81, 233.182, 0.00979638, NaN, NaN, NaN, 0.0372337, "- N/A -   "
5.83, 234.008, 0.009829702, NaN, NaN, NaN, 0.03601294, "- N/A -   "
5.85, 234.833, 0.009865799, NaN, NaN, NaN, 0.03601294, "- N/A -   "
5.87, 235.5411, 0.009899121, NaN, NaN, NaN, 0.03601294, "- N/A -   "
5.89, 236.249, 0.009932441, NaN, NaN, NaN, 0.0347922, "- N/A -   "
5.91, 236.956, 0.009962986, NaN, NaN, NaN, 0.03601294, "- N/A -   "
5.93, 237.7821, 0.009996306, NaN, NaN, NaN, 0.03601294, "- N/A -   "
5.95, 238.49, 0.0100296, NaN, NaN, NaN, 0.03601294, "- N/A -   "
5.97, 239.315, 0.0100657, NaN, NaN, NaN, 0.03601294, "- N/A -   "
5.99, 240.0231, 0.010099, NaN, NaN, NaN, 0.0347922, "- N/A -   "
6.01, 240.613, 0.0101324, NaN, NaN, NaN, 0.0347922, "- N/A -   "
6.03, 241.556, 0.0101685, NaN, NaN, NaN, 0.0347922, "- N/A -   "
6.05, 242.382, 0.0102046, NaN, NaN, NaN, 0.0323506, "- N/A -   "
6.07, 243.089, 0.0102379, NaN, NaN, NaN, 0.0323506, "- N/A -   "
6.09, 243.914, 0.0102712, NaN, NaN, NaN, 0.0323506, "- N/A -   "
6.11, 244.621, 0.0103017, NaN, NaN, NaN, 0.0335714, "- N/A -   "
6.13, 245.328, 0.01033507, NaN, NaN, NaN, 0.0335714, "- N/A -   "
6.15, 246.035, 0.0103684, NaN, NaN, NaN, 0.0347922, "- N/A -   "
6.17, 246.624, 0.0103989, NaN, NaN, NaN, 0.0347922, "- N/A -   "
6.19, 247.4487, 0.0104323, NaN, NaN, NaN, 0.0347922, "- N/A -   "
6.21, 248.156, 0.0104656, NaN, NaN, NaN, 0.0347922, "- N/A -   "
6.23, 248.745, 0.0104989, NaN, NaN, NaN, 0.0347922, "- N/A -   "
6.25, 249.57, 0.0105322, NaN, NaN, NaN, 0.03601294, "- N/A -   "
6.27, 250.159, 0.01056, NaN, NaN, NaN, 0.0372337, "- N/A -   "
6.29, 250.866, 0.0105905, NaN, NaN, NaN, 0.0384545, "- N/A -   "
6.31, 251.5726, 0.0106239, NaN, NaN, NaN, 0.0396753, "- N/A -   "
6.33, 252.28, 0.0106572, NaN, NaN, NaN, 0.0384545, "- N/A -   "
6.35, 253.104, 0.0106905, NaN, NaN, NaN, 0.0384545, "- N/A -   "
6.37, 253.693, 0.010721, NaN, NaN, NaN, 0.0396753, "- N/A -   "
6.39, 254.4, 0.0107516, NaN, NaN, NaN, 0.04089605, "- N/A -   "
6.41, 255.1074, 0.0107849, NaN, NaN, NaN, 0.04211683, "- N/A -   "
6.43, 255.932, 0.0108182, NaN, NaN, NaN, 0.04089605, "- N/A -   "
6.45, 256.5213, 0.0108515, NaN, NaN, NaN, 0.04211683, "- N/A -   "
6.47, 257.346, 0.0108821, NaN, NaN, NaN, 0.04211683, "- N/A -   "
6.49, 258.171, 0.0109182, NaN, NaN, NaN, 0.04089605, "- N/A -   "
6.51, 258.996, 0.0109543, NaN, NaN, NaN, 0.0396753, "- N/A -   "
6.53, 259.938, 0.0109932, NaN, NaN, NaN, 0.0372337, "- N/A -   "
6.55, 260.8809, 0.0110348, NaN, NaN, NaN, 0.0347922, "- N/A -   "
6.57, 261.588, 0.0110709, NaN, NaN, NaN, 0.0323506, "- N/A -   "
6.59, 262.4126, 0.011107, NaN, NaN, NaN, 0.03112983, "- N/A -   "
6.61, 263.002, 0.0111403, NaN, NaN, NaN, 0.03112983, "- N/A -   "
6.63, 263.591, 0.01117365, NaN, NaN, NaN, 0.0323506, "- N/A -   "
6.65, 264.298, 0.0112042, NaN, NaN, NaN, 0.0323506, "- N/A -   "
6.67, 265.123, 0.0112403, NaN, NaN, NaN, 0.03112983, "- N/A -   "
6.69, 265.83, 0.0112708, NaN, NaN, NaN, 0.0323506, "- N/A -   "
6.71, 266.537, 0.01130138, NaN, NaN, NaN, 0.0335714, "- N/A -   "
6.73, 267.3613, 0.0113375, NaN, NaN, NaN, 0.0323506, "- N/A -   "
6.75, 268.1861, 0.0113764, NaN, NaN, NaN, 0.0299091, "- N/A -   "
6.77, 269.011, 0.0114152, NaN, NaN, NaN, 0.0286883, "- N/A -   "
6.79, 269.7178, 0.0114513, NaN, NaN, NaN, 0.0262467, "- N/A -   "
6.81, 270.425, 0.0114846, NaN, NaN, NaN, 0.0274675, "- N/A -   "
6.83, 271.132, 0.0115124, NaN, NaN, NaN, 0.0286883, "- N/A -   "
6.85, 271.7209, 0.011543, NaN, NaN, NaN, 0.0299091, "- N/A -   "
6.87, 272.428, 0.0115735, NaN, NaN, NaN, 0.03112983, "- N/A -   "
6.89, 273.017, 0.011604, NaN, NaN, NaN, 0.0335714, "- N/A -   "
6.91, 273.606, 0.0116318, NaN, NaN, NaN, 0.0347922, "- N/A -   "
6.93, 274.195, 0.0116596, NaN, NaN, NaN, 0.0372337, "- N/A -   "
6.95, 274.667, 0.0116873, NaN, NaN, NaN, 0.0396753, "- N/A -   "
6.97, 275.256, 0.0117179, NaN, NaN, NaN, 0.04211683, "- N/A -   "
6.99, 275.963, 0.01174566, NaN, NaN, NaN, 0.0433376, "- N/A -   "
7.01, 276.434, 0.0117734, NaN, NaN, NaN, 0.04699994, "- N/A -   "
7.03, 277.141, 0.0118012, NaN, NaN, NaN, 0.0482207, "- N/A -   "
7.05, 277.73, 0.01183174, NaN, NaN, NaN, 0.0494415, "- N/A -   "
7.07, 278.555, 0.01186506, NaN, NaN, NaN, 0.0494415, "- N/A -   "
7.09, 279.262, 0.0119012, NaN, NaN, NaN, 0.0482207, "- N/A -   "
7.11, 280.087, 0.01194, NaN, NaN, NaN, 0.04577916, "- N/A -   "
7.13, 281.0291, 0.0119817, NaN, NaN, NaN, 0.0433376, "- N/A -   "
7.15, 281.736, 0.0120206, NaN, NaN, NaN, 0.0396753, "- N/A -   "
7.17, 282.6787, 0.0120594, NaN, NaN, NaN, 0.0372337, "- N/A -   "
7.19, 283.503, 0.0120983, NaN, NaN, NaN, 0.0347922, "- N/A -   "
7.21, 284.328, 0.0121344, NaN, NaN, NaN, 0.0335714, "- N/A -   "
7.23, 285.153, 0.0121677, NaN, NaN, NaN, 0.0335714, "- N/A -   "
7.25, 285.7422, 0.0122038, NaN, NaN, NaN, 0.0335714, "- N/A -   "
7.27, 286.449, 0.0122371, NaN, NaN, NaN, 0.0323506, "- N/A -   "
7.29, 287.274, 0.0122732, NaN, NaN, NaN, 0.0323506, "- N/A -   "
7.31, 287.981, 0.0123093, NaN, NaN, NaN, 0.03112983, "- N/A -   "
7.33, 288.9235, 0.0123454, NaN, NaN, NaN, 0.0286883, "- N/A -   "
7.35, 289.5126, 0.01237876, NaN, NaN, NaN, 0.0286883, "- N/A -   "
7.37, 290.102, 0.0124121, NaN, NaN, NaN, 0.0299091, "- N/A -   "
7.39, 290.927, 0.0124426, NaN, NaN, NaN, 0.0299091, "- N/A -   "
7.41, 291.516, 0.0124759, NaN, NaN, NaN, 0.0299091, "- N/A -   "
7.43, 292.34, 0.0125093, NaN, NaN, NaN, 0.03112983, "- N/A -   "
7.45, 293.0474, 0.0125426, NaN, NaN, NaN, 0.03112983, "- N/A -   "
7.47, 293.637, 0.0125787, NaN, NaN, NaN, 0.0286883, "- N/A -   "
7.49, 294.5791, 0.012612, NaN, NaN, NaN, 0.0286883, "- N/A -   "
7.51, 295.05, 0.01264255, NaN, NaN, NaN, 0.03112983, "- N/A -   "
7.53, 295.7574, 0.0126731, NaN, NaN, NaN, 0.0323506, "- N/A -   "
7.55, 296.347, 0.0127009, NaN, NaN, NaN, 0.0335714, "- N/A -   "
7.57, 296.936, 0.0127286, NaN, NaN, NaN, 0.03601294, "- N/A -   "
7.59, 297.289, 0.0127508, NaN, NaN, NaN, 0.04089605, "- N/A -   "
7.61, 297.76, 0.0127786, NaN, NaN, NaN, 0.0433376, "- N/A -   "
7.63, 298.467, 0.0128092, NaN, NaN, NaN, 0.0445584, "- N/A -   "
7.65, 299.057, 0.0128425, NaN, NaN, NaN, 0.0445584, "- N/A -   "
7.67, 299.8813, 0.0128758, NaN, NaN, NaN, 0.0445584, "- N/A -   "
7.69, 300.588, 0.0129119, NaN, NaN, NaN, 0.0445584, "- N/A -   "
7.71, 301.413, 0.012948, NaN, NaN, NaN, 0.0433376, "- N/A -   "
7.73, 302.238, 0.0129813, NaN, NaN, NaN, 0.04211683, "- N/A -   "
7.75, 302.945, 0.0130146, NaN, NaN, NaN, 0.0433376, "- N/A -   "
7.77, 303.5339, 0.0130452, NaN, NaN, NaN, 0.0433376, "- N/A -   "
7.79, 304.241, 0.0130813, NaN, NaN, NaN, 0.0433376, "- N/A -   "
7.81, 305.066, 0.0131174, NaN, NaN, NaN, 0.04211683, "- N/A -   "
7.83, 305.8904, 0.0131535, NaN, NaN, NaN, 0.04089605, "- N/A -   "
7.85, 306.7152, 0.0131868, NaN, NaN, NaN, 0.0396753, "- N/A -   "
7.87, 307.54, 0.0132257, NaN, NaN, NaN, 0.0372337, "- N/A -   "
7.89, 308.247, 0.0132673, NaN, NaN, NaN, 0.0347922, "- N/A -   "
7.91, 309.3074, 0.0133062, NaN, NaN, NaN, 0.03112983, "- N/A -   "
7.93, 310.132, 0.0133451, NaN, NaN, NaN, 0.0299091, "- N/A -   "
7.95, 310.8391, 0.01337839, NaN, NaN, NaN, 0.0286883, "- N/A -   "
7.97, 311.546, 0.0134145, NaN, NaN, NaN, 0.0286883, "- N/A -   "
7.99, 312.135, 0.013445, NaN, NaN, NaN, 0.0286883, "- N/A -   "
8.01, 312.842, 0.0134784, NaN, NaN, NaN, 0.0286883, "- N/A -   "
8.03, 313.667, 0.0135117, NaN, NaN, NaN, 0.0286883, "- N/A -   "
8.05, 314.374, 0.0135478, NaN, NaN, NaN, 0.0286883, "- N/A -   "
8.07, 315.081, 0.0135783, NaN, NaN, NaN, 0.0286883, "- N/A -   "
8.09, 315.67, 0.0136089, NaN, NaN, NaN, 0.03112983, "- N/A -   "
8.11, 316.259, 0.0136366, NaN, NaN, NaN, 0.0323506, "- N/A -   "
8.13, 317.084, 0.0136727, NaN, NaN, NaN, 0.03112983, "- N/A -   "
8.15, 317.673, 0.0137033, NaN, NaN, NaN, 0.0335714, "- N/A -   "
8.17, 318.38, 0.0137366, NaN, NaN, NaN, 0.0347922, "- N/A -   "
8.19, 318.8513, 0.0137671, NaN, NaN, NaN, 0.0347922, "- N/A -   "
8.21, 319.6761, 0.0138005, NaN, NaN, NaN, 0.03601294, "- N/A -   "
8.23, 320.383, 0.013831, NaN, NaN, NaN, 0.03601294, "- N/A -   "
8.25, 320.9722, 0.0138643, NaN, NaN, NaN, 0.0372337, "- N/A -   "
8.27, 321.5613, 0.0138921, NaN, NaN, NaN, 0.0384545, "- N/A -   "
8.29, 322.3861, 0.0139226, NaN, NaN, NaN, 0.0396753, "- N/A -   "
8.31, 322.9752, 0.013956, NaN, NaN, NaN, 0.04089605, "- N/A -   "
8.33, 323.447, 0.0139837, NaN, NaN, NaN, 0.04211683, "- N/A -   "
8.35, 324.153, 0.0140143, NaN, NaN, NaN, 0.0433376, "- N/A -   "
8.37, 324.86, 0.0140476, NaN, NaN, NaN, 0.0445584, "- N/A -   "
8.39, 325.45, 0.0140754, NaN, NaN, NaN, 0.04577916, "- N/A -   "
8.41, 326.0387, 0.0141087, NaN, NaN, NaN, 0.04699994, "- N/A -   "
8.43, 326.863, 0.0141392, NaN, NaN, NaN, 0.04699994, "- N/A -   "
8.45, 327.4526, 0.0141725, NaN, NaN, NaN, 0.04699994, "- N/A -   "
8.47, 328.395, 0.0142086, NaN, NaN, NaN, 0.04577916, "- N/A -   "
8.49, 329.22, 0.0142475, NaN, NaN, NaN, 0.0433376, "- N/A -   "
8.51, 330.1626, 0.0142864, NaN, NaN, NaN, 0.04089605, "- N/A -   "
8.53, 330.87, 0.0143225, NaN, NaN, NaN, 0.0396753, "- N/A -   "
8.55, 331.694, 0.0143614, NaN, NaN, NaN, 0.0372337, "- N/A -   "
8.57, 332.637, 0.0144058, NaN, NaN, NaN, 0.0323506, "- N/A -   "
8.59, 333.58, 0.0144419, NaN, NaN, NaN, 0.03112983, "- N/A -   "
8.61, 334.1687, 0.0144752, NaN, NaN, NaN, 0.0323506, "- N/A -   "
8.63, 334.876, 0.0145058, NaN, NaN, NaN, 0.0323506, "- N/A -   "
8.65, 335.465, 0.0145363, NaN, NaN, NaN, 0.0335714, "- N/A -   "
8.67, 336.172, 0.0145696, NaN, NaN, NaN, 0.0335714, "- N/A -   "
8.69, 336.761, 0.0146002, NaN, NaN, NaN, 0.0347922, "- N/A -   "
8.71, 337.468, 0.0146335, NaN, NaN, NaN, 0.0347922, "- N/A -   "
8.73, 338.2926, 0.014664, NaN, NaN, NaN, 0.03601294, "- N/A -   "
8.75, 338.882, 0.0146973, NaN, NaN, NaN, 0.03601294, "- N/A -   "
8.77, 339.589, 0.0147307, NaN, NaN, NaN, 0.0372337, "- N/A -   "
8.79, 340.296, 0.0147612, NaN, NaN, NaN, 0.0372337, "- N/A -   "
8.81, 341.0026, 0.0148001, NaN, NaN, NaN, 0.03601294, "- N/A -   "
8.83, 341.945, 0.014839, NaN, NaN, NaN, 0.0335714, "- N/A -   "
8.85, 342.652, 0.01487506, NaN, NaN, NaN, 0.0323506, "- N/A -   "
8.87, 343.5948, 0.0149084, NaN, NaN, NaN, 0.03112983, "- N/A -   "
8.89, 344.302, 0.0149445, NaN, NaN, NaN, 0.03112983, "- N/A -   "
8.91, 344.773, 0.014975, NaN, NaN, NaN, 0.03112983, "- N/A -   "
8.93, 345.48, 0.01500279, NaN, NaN, NaN, 0.0335714, "- N/A -   "
8.95, 346.069, 0.0150306, NaN, NaN, NaN, 0.03601294, "- N/A -   "
8.97, 346.54, 0.0150611, NaN, NaN, NaN, 0.0372337, "- N/A -   "
8.99, 347.13, 0.0150861, NaN, NaN, NaN, 0.04089605, "- N/A -   "
9, 347.483, 0.0151, NaN, NaN, NaN, 0.04211683, "- N/A -   "
9.01, 347.719, 0.01511386, NaN, NaN, NaN, 0.0433376, "- N/A -   "
9.07, 350.075, 0.0152222, NaN, NaN, NaN, 0.04089605, "- N/A -   "
9.13, 352.3139, 0.0153221, NaN, NaN, NaN, 0.0396753, "- N/A -   "
9.19, 354.6704, 0.01543041, NaN, NaN, NaN, 0.0372337, "- N/A -   "
9.25, 356.556, 0.0155248, NaN, NaN, NaN, 0.0396753, "- N/A -   "
9.31, 358.794, 0.01562756, NaN, NaN, NaN, 0.0372337, "- N/A -   "
9.37, 361.033, 0.0157331, NaN, NaN, NaN, 0.03601294, "- N/A -   "
9.43, 363.3896, 0.0158386, NaN, NaN, NaN, 0.0323506, "- N/A -   "
9.49, 365.393, 0.0159386, NaN, NaN, NaN, 0.0323506, "- N/A -   "
9.55, 367.5135, 0.0160385, NaN, NaN, NaN, 0.0335714, "- N/A -   "
9.61, 369.7522, 0.0161385, NaN, NaN, NaN, 0.0323506, "- N/A -   "
9.67, 371.402, 0.0162301, NaN, NaN, NaN, 0.03601294, "- N/A -   "
9.73, 373.405, 0.0163245, NaN, NaN, NaN, 0.0384545, "- N/A -   "
9.79, 375.4078, 0.0164162, NaN, NaN, NaN, 0.04211683, "- N/A -   "
9.85, 377.293, 0.0165106, NaN, NaN, NaN, 0.0445584, "- N/A -   "
9.91, 379.65, 0.0166133, NaN, NaN, NaN, 0.0433376, "- N/A -   "
9.97, 382.006, 0.0167272, NaN, NaN, NaN, 0.0384545, "- N/A -   "
10.03, 384.127, 0.0168299, NaN, NaN, NaN, 0.03601294, "- N/A -   "
10.09, 386.4835, 0.0169382, NaN, NaN, NaN, 0.0335714, "- N/A -   "
10.15, 388.487, 0.01703815, NaN, NaN, NaN, 0.0335714, "- N/A -   "
10.21, 390.843, 0.0171437, NaN, NaN, NaN, 0.0299091, "- N/A -   "
10.27, 392.9639, 0.0172409, NaN, NaN, NaN, 0.03112983, "- N/A -   "
10.33, 394.849, 0.01732971, NaN, NaN, NaN, 0.03601294, "- N/A -   "
10.39, 396.617, 0.0174158, NaN, NaN, NaN, 0.04211683, "- N/A -   "
10.45, 398.502, 0.0175046, NaN, NaN, NaN, 0.04699994, "- N/A -   "
10.51, 400.858, 0.0176129, NaN, NaN, NaN, 0.0445584, "- N/A -   "
10.57, 403.3326, 0.0177268, NaN, NaN, NaN, 0.0384545, "- N/A -   "
10.63, 405.689, 0.0178323, NaN, NaN, NaN, 0.0347922, "- N/A -   "
10.69, 407.928, 0.01793504, NaN, NaN, NaN, 0.0335714, "- N/A -   "
10.75, 410.284, 0.0180406, NaN, NaN, NaN, 0.03112983, "- N/A -   "
10.81, 412.641, 0.0181461, NaN, NaN, NaN, 0.0286883, "- N/A -   "
10.87, 414.5261, 0.0182433, NaN, NaN, NaN, 0.03112983, "- N/A -   "
10.93, 416.647, 0.0183349, NaN, NaN, NaN, 0.0347922, "- N/A -   "
10.99, 418.414, 0.0184237, NaN, NaN, NaN, 0.0384545, "- N/A -   "
11.05, 420.535, 0.0185154, NaN, NaN, NaN, 0.0433376, "- N/A -   "
11.11, 422.538, 0.0186126, NaN, NaN, NaN, 0.0433376, "- N/A -   "
11.17, 424.777, 0.0187098, NaN, NaN, NaN, 0.0445584, "- N/A -   "
11.23, 426.898, 0.0188097, NaN, NaN, NaN, 0.0445584, "- N/A -   "
11.29, 429.49, 0.0189208, NaN, NaN, NaN, 0.0396753, "- N/A -   "
11.35, 432.082, 0.019043, NaN, NaN, NaN, 0.03112983, "- N/A -   "
11.41, 434.203, 0.0191429, NaN, NaN, NaN, 0.03112983, "- N/A -   "
11.47, 436.6774, 0.0192512, NaN, NaN, NaN, 0.0262467, "- N/A -   "
11.53, 438.798, 0.0193484, NaN, NaN, NaN, 0.0274675, "- N/A -   "
11.59, 440.4478, 0.0194262, NaN, NaN, NaN, 0.0372337, "- N/A -   "
11.65, 442.5687, 0.0195206, NaN, NaN, NaN, 0.04089605, "- N/A -   "
11.71, 444.69, 0.0196205, NaN, NaN, NaN, 0.0396753, "- N/A -   "
11.77, 446.5748, 0.0197066, NaN, NaN, NaN, 0.04577916, "- N/A -   "
11.83, 448.578, 0.019801, NaN, NaN, NaN, 0.0494415, "- N/A -   "
11.89, 451.17, 0.0199093, NaN, NaN, NaN, 0.04577916, "- N/A -   "
11.95, 454.116, 0.020037, NaN, NaN, NaN, 0.0335714, "- N/A -   "
12.01, 456.708, 0.02015089, NaN, NaN, NaN, 0.0262467, "- N/A -   "
12.07, 458.711, 0.0202453, NaN, NaN, NaN, 0.0286883, "- N/A -   "
12.13, 460.5961, 0.0203369, NaN, NaN, NaN, 0.0335714, "- N/A -   "
12.19, 462.717, 0.0204286, NaN, NaN, NaN, 0.03601294, "- N/A -   "
12.25, 465.309, 0.0205396, NaN, NaN, NaN, 0.0323506, "- N/A -   "
12.31, 467.3122, 0.020634, NaN, NaN, NaN, 0.0335714, "- N/A -   "
12.37, 469.433, 0.0207285, NaN, NaN, NaN, 0.0372337, "- N/A -   "
12.43, 471.2004, 0.02081731, NaN, NaN, NaN, 0.04089605, "- N/A -   "
12.49, 473.557, 0.02092005, NaN, NaN, NaN, 0.0396753, "- N/A -   "
12.55, 475.796, 0.02102, NaN, NaN, NaN, 0.04089605, "- N/A -   "
12.61, 478.152, 0.0211228, NaN, NaN, NaN, 0.0384545, "- N/A -   "
12.67, 480.5087, 0.02122827, NaN, NaN, NaN, 0.0384545, "- N/A -   "
12.73, 482.8652, 0.021331, NaN, NaN, NaN, 0.03601294, "- N/A -   "
12.79, 485.34, 0.0214365, NaN, NaN, NaN, 0.0335714, "- N/A -   "
12.85, 487.46, 0.0215365, NaN, NaN, NaN, 0.0335714, "- N/A -   "
12.91, 489.5813, 0.0216337, NaN, NaN, NaN, 0.0347922, "- N/A -   "
12.97, 491.584, 0.0217253, NaN, NaN, NaN, 0.0384545, "- N/A -   "
13.03, 494.059, 0.0218336, NaN, NaN, NaN, 0.03601294, "- N/A -   "
13.09, 496.18, 0.0219308, NaN, NaN, NaN, 0.03601294, "- N/A -   "
13.15, 498.3, 0.0220252, NaN, NaN, NaN, 0.0396753, "- N/A -   "
13.21, 500.3035, 0.0221141, NaN, NaN, NaN, 0.0433376, "- N/A -   "
13.27, 502.66, 0.0222168, NaN, NaN, NaN, 0.04211683, "- N/A -   "
13.33, 505.134, 0.0223251, NaN, NaN, NaN, 0.0396753, "- N/A -   "
13.39, 507.962, 0.0224389, NaN, NaN, NaN, 0.0323506, "- N/A -   "
13.45, 510.083, 0.0225389, NaN, NaN, NaN, 0.0323506, "- N/A -   "
13.51, 512.2039, 0.0226361, NaN, NaN, NaN, 0.0335714, "- N/A -   "
13.57, 514.4462, 0.022736, NaN, NaN, NaN, 0.0347922, "- N/A -   "
13.63, 516.8118, 0.0228416, NaN, NaN, NaN, 0.0323506, "- N/A -   "
13.69, 519.1775, 0.0229387, NaN, NaN, NaN, 0.0323506, "- N/A -   "
13.75, 521.3065, 0.0230332, NaN, NaN, NaN, 0.0347922, "- N/A -   "
13.81, 522.962, 0.0231192, NaN, NaN, NaN, 0.04211683, "- N/A -   "
13.87, 524.973, 0.0232081, NaN, NaN, NaN, 0.04577916, "- N/A -   "
13.93, 527.2206, 0.0233108, NaN, NaN, NaN, 0.04577916, "- N/A -   "
13.99, 529.941, 0.0234219, NaN, NaN, NaN, 0.0396753, "- N/A -   "
14.05, 532.307, 0.02352742, NaN, NaN, NaN, 0.0384545, "- N/A -   "
14.11, 534.672, 0.0236329, NaN, NaN, NaN, 0.0347922, "- N/A -   "
14.17, 537.2744, 0.02374123, NaN, NaN, NaN, 0.03112983, "- N/A -   "
14.23, 539.6401, 0.023844, NaN, NaN, NaN, 0.0299091, "- N/A -   "
14.29, 542.0057, 0.02394671, NaN, NaN, NaN, 0.0286883, "- N/A -   "
14.35, 543.8982, 0.0240328, NaN, NaN, NaN, 0.0347922, "- N/A -   "
14.41, 545.791, 0.0241189, NaN, NaN, NaN, 0.04089605, "- N/A -   "
14.47, 547.92, 0.0242105, NaN, NaN, NaN, 0.0445584, "- N/A -   "
14.53, 550.167, 0.0243105, NaN, NaN, NaN, 0.0445584, "- N/A -   "
14.59, 552.4144, 0.0244104, NaN, NaN, NaN, 0.0445584, "- N/A -   "
14.65, 555.0166, 0.0245159, NaN, NaN, NaN, 0.04211683, "- N/A -   "
14.71, 557.855, 0.0246353, NaN, NaN, NaN, 0.0335714, "- N/A -   "
14.77, 560.8123, 0.024752, NaN, NaN, NaN, 0.0262467, "- N/A -   "
14.83, 562.8231, 0.0248492, NaN, NaN, NaN, 0.0274675, "- N/A -   "
14.89, 565.07, 0.0249436, NaN, NaN, NaN, 0.0299091, "- N/A -   "
14.95, 567.1995, 0.0250352, NaN, NaN, NaN, 0.0335714, "- N/A -   "
15.01, 569.329, 0.0251296, NaN, NaN, NaN, 0.03601294, "- N/A -   "
15.07, 571.694, 0.0252296, NaN, NaN, NaN, 0.0372337, "- N/A -   "
15.13, 573.823, 0.0253268, NaN, NaN, NaN, 0.0372337, "- N/A -   "
15.19, 576.071, 0.02541561, NaN, NaN, NaN, 0.04211683, "- N/A -   "
15.25, 578.081, 0.0255045, NaN, NaN, NaN, 0.04699994, "- N/A -   "
15.31, 580.684, 0.0256155, NaN, NaN, NaN, 0.04211683, "- N/A -   "
15.37, 583.5223, 0.0257322, NaN, NaN, NaN, 0.03601294, "- N/A -   "
15.43, 586.124, 0.0258432, NaN, NaN, NaN, 0.03112983, "- N/A -   "
15.49, 588.372, 0.0259432, NaN, NaN, NaN, 0.03112983, "- N/A -   "
15.55, 590.501, 0.02603205, NaN, NaN, NaN, 0.0347922, "- N/A -   "
15.61, 592.8664, 0.026132, NaN, NaN, NaN, 0.0347922, "- N/A -   "
15.67, 595.469, 0.0262403, NaN, NaN, NaN, 0.03112983, "- N/A -   "
15.73, 597.598, 0.0263347, NaN, NaN, NaN, 0.0335714, "- N/A -   "
15.79, 599.727, 0.02641802, NaN, NaN, NaN, 0.04089605, "- N/A -   "
15.85, 601.738, 0.02650965, NaN, NaN, NaN, 0.0445584, "- N/A -   "
15.91, 604.221, 0.0266179, NaN, NaN, NaN, 0.04211683, "- N/A -   "
15.97, 606.8236, 0.0267179, NaN, NaN, NaN, 0.04089605, "- N/A -   "
16.03, 609.544, 0.0268262, NaN, NaN, NaN, 0.0372337, "- N/A -   "
16.09, 611.91, 0.0269317, NaN, NaN, NaN, 0.0347922, "- N/A -   "
16.15, 614.157, 0.0270345, NaN, NaN, NaN, 0.0347922, "- N/A -   "
16.21, 616.5226, 0.02713442, NaN, NaN, NaN, 0.0335714, "- N/A -   "
16.27, 619.125, 0.02723716, NaN, NaN, NaN, 0.0323506, "- N/A -   "
16.33, 621.49, 0.0273371, NaN, NaN, NaN, 0.0335714, "- N/A -   "
[...]
31.33, 1250.79, 0.05234733, NaN, NaN, NaN, 0.0286883, "- N/A -   "
31.39, 1253.412, 0.05244174, NaN, NaN, NaN, 0.03112983, "- N/A -   "
31.45, 1255.68, 0.05253337, NaN, NaN, NaN, 0.03601294, "- N/A -   "
31.51, 1257.94, 0.0526167, NaN, NaN, NaN, 0.04211683, "- N/A -   "
31.57, 1260.33, 0.05271108, NaN, NaN, NaN, 0.0445584, "- N/A -   "
31.63, 1262.83, 0.05280827, NaN, NaN, NaN, 0.04699994, "- N/A -   "
31.69, 1265.58, 0.052911, NaN, NaN, NaN, 0.0445584, "- N/A -   "
31.75, 1268.44, 0.0530137, NaN, NaN, NaN, 0.0433376, "- N/A -   "
31.81, 1271.66, 0.0531359, NaN, NaN, NaN, 0.0335714, "- N/A -   "
31.87, 1274.52, 0.0532387, NaN, NaN, NaN, 0.0323506, "- N/A -   "
31.93, 1277.02, 0.05333863, NaN, NaN, NaN, 0.0323506, "- N/A -   "
31.99, 1279.53, 0.05343304, NaN, NaN, NaN, 0.03601294, "- N/A -   "
32.05, 1281.91, 0.0535247, NaN, NaN, NaN, 0.0384545, "- N/A -   "
32.11, 1284.54, 0.0536246, NaN, NaN, NaN, 0.0384545, "- N/A -   "
32.17, 1287.16, 0.0537246, NaN, NaN, NaN, 0.0384545, "- N/A -   "
32.23, 1289.78, 0.05381623, NaN, NaN, NaN, 0.04211683, "- N/A -   "
32.29, 1292.05, 0.05391064, NaN, NaN, NaN, 0.0445584, "- N/A -   "
32.35, 1294.67, 0.0540106, NaN, NaN, NaN, 0.04577916, "- N/A -   "
32.41, 1298.01, 0.05413278, NaN, NaN, NaN, 0.0347922, "- N/A -   "
32.47, 1300.99, 0.0542411, NaN, NaN, NaN, 0.03112983, "- N/A -   "
32.53, 1303.5, 0.054341, NaN, NaN, NaN, 0.03112983, "- N/A -   "
32.59, 1306.12, 0.0544382, NaN, NaN, NaN, 0.0323506, "- N/A -   "
32.65, 1308.63, 0.0545354, NaN, NaN, NaN, 0.0347922, "- N/A -   "
32.71, 1311.37, 0.0546381, NaN, NaN, NaN, 0.0323506, "- N/A -   "
32.77, 1313.992, 0.0547381, NaN, NaN, NaN, 0.0323506, "- N/A -   "
32.83, 1316.38, 0.0548297, NaN, NaN, NaN, 0.03601294, "- N/A -   "
32.89, 1318.64, 0.0549186, NaN, NaN, NaN, 0.04089605, "- N/A -   "
32.95, 1321.5, 0.0550241, NaN, NaN, NaN, 0.0384545, "- N/A -   "
33.01, 1324.13, 0.05512408, NaN, NaN, NaN, 0.0384545, "- N/A -   "
33.07, 1326.87, 0.05522682, NaN, NaN, NaN, 0.0372337, "- N/A -   "
33.13, 1329.61, 0.0553268, NaN, NaN, NaN, 0.0372337, "- N/A -   "
33.19, 1332.12, 0.05542397, NaN, NaN, NaN, 0.0384545, "- N/A -   "
33.25, 1334.86, 0.0555295, NaN, NaN, NaN, 0.0372337, "- N/A -   "
33.31, 1337.72, 0.0556322, NaN, NaN, NaN, 0.0347922, "- N/A -   "
33.37, 1340.35, 0.0557322, NaN, NaN, NaN, 0.03601294, "- N/A -   "
33.43, 1342.97, 0.05583215, NaN, NaN, NaN, 0.03601294, "- N/A -   "
33.49, 1345.59, 0.0559321, NaN, NaN, NaN, 0.0347922, "- N/A -   "
33.55, 1348.098, 0.0560293, NaN, NaN, NaN, 0.03601294, "- N/A -   "
33.61, 1350.6, 0.0561265, NaN, NaN, NaN, 0.0384545, "- N/A -   "
33.67, 1352.99, 0.0562181, NaN, NaN, NaN, 0.04089605, "- N/A -   "
33.73, 1355.73, 0.0563181, NaN, NaN, NaN, 0.04089605, "- N/A -   "
33.79, 1358.59, 0.0564264, NaN, NaN, NaN, 0.0372337, "- N/A -   "
33.85, 1361.57, 0.0565374, NaN, NaN, NaN, 0.0323506, "- N/A -   "
33.91, 1364.32, 0.0566402, NaN, NaN, NaN, 0.0323506, "- N/A -   "
33.97, 1366.82, 0.0567374, NaN, NaN, NaN, 0.0335714, "- N/A -   "
34.03, 1369.68, 0.0568373, NaN, NaN, NaN, 0.0323506, "- N/A -   "
34.09, 1372.43, 0.05694563, NaN, NaN, NaN, 0.0299091, "- N/A -   "
34.15, 1374.93, 0.0570428, NaN, NaN, NaN, 0.03112983, "- N/A -   "
34.21, 1377.434, 0.0571344, NaN, NaN, NaN, 0.0335714, "- N/A -   "
34.27, 1379.58, 0.05721497, NaN, NaN, NaN, 0.04211683, "- N/A -   "
34.33, 1381.85, 0.0573066, NaN, NaN, NaN, 0.04577916, "- N/A -   "
34.39, 1384.47, 0.05740379, NaN, NaN, NaN, 0.0482207, "- N/A -   "
34.45, 1387.33, 0.0575121, NaN, NaN, NaN, 0.0433376, "- N/A -   "
34.51, 1390.55, 0.05762871, NaN, NaN, NaN, 0.03601294, "- N/A -   "
34.57, 1393.41, 0.057737, NaN, NaN, NaN, 0.0323506, "- N/A -   "
34.63, 1396.16, 0.0578397, NaN, NaN, NaN, 0.03112983, "- N/A -   "
34.69, 1399.02, 0.05794526, NaN, NaN, NaN, 0.0299091, "- N/A -   "
34.75, 1401.523, 0.0580424, NaN, NaN, NaN, 0.0299091, "- N/A -   "
34.81, 1404.15, 0.0581396, NaN, NaN, NaN, 0.03112983, "- N/A -   "
34.87, 1406.293, 0.0582229, NaN, NaN, NaN, 0.0384545, "- N/A -   "
34.93, 1408.32, 0.05830624, NaN, NaN, NaN, 0.04577916, "- N/A -   "
34.99, 1411.06, 0.0584118, NaN, NaN, NaN, 0.0445584, "- N/A -   "
35.05, 1413.93, 0.0585145, NaN, NaN, NaN, 0.0433376, "- N/A -   "
35.11, 1416.79, 0.05862001, NaN, NaN, NaN, 0.0396753, "- N/A -   "
35.17, 1419.89, 0.0587311, NaN, NaN, NaN, 0.0347922, "- N/A -   "
35.23, 1423.11, 0.0588505, NaN, NaN, NaN, 0.0262467, "- N/A -   "
35.29, 1425.73, 0.05895322, NaN, NaN, NaN, 0.0250259, "- N/A -   "
35.35, 1428.35, 0.0590504, NaN, NaN, NaN, 0.0274675, "- N/A -   "
35.41, 1430.62, 0.0591365, NaN, NaN, NaN, 0.0347922, "- N/A -   "
35.47, 1433.01, 0.05922812, NaN, NaN, NaN, 0.0372337, "- N/A -   "
35.53, 1435.87, 0.05933086, NaN, NaN, NaN, 0.03601294, "- N/A -   "
35.59, 1438.37, 0.05942527, NaN, NaN, NaN, 0.0384545, "- N/A -   "
35.65, 1440.399, 0.0595141, NaN, NaN, NaN, 0.0445584, "- N/A -   "
35.71, 1442.9, 0.059603, NaN, NaN, NaN, 0.0482207, "- N/A -   "
35.77, 1445.77, 0.0597113, NaN, NaN, NaN, 0.04577916, "- N/A -   "
35.83, 1449.1, 0.0598335, NaN, NaN, NaN, 0.03601294, "- N/A -   "
35.89, 1452.09, 0.0599445, NaN, NaN, NaN, 0.0299091, "- N/A -   "
35.95, 1454.59, 0.0600389, NaN, NaN, NaN, 0.0323506, "- N/A -   "
36.01, 1456.975, 0.0601306, NaN, NaN, NaN, 0.0372337, "- N/A -   "
36.07, 1459.48, 0.0602277, NaN, NaN, NaN, 0.0372337, "- N/A -   "
36.13, 1462.46, 0.0603333, NaN, NaN, NaN, 0.0347922, "- N/A -   "
36.19, 1464.85, 0.0604249, NaN, NaN, NaN, 0.0384545, "- N/A -   "
36.25, 1467.35, 0.0605221, NaN, NaN, NaN, 0.0396753, "- N/A -   "
36.31, 1469.85, 0.0606137, NaN, NaN, NaN, 0.0433376, "- N/A -   "
36.37, 1472.72, 0.060722, NaN, NaN, NaN, 0.04089605, "- N/A -   "
36.43, 1475.46, 0.06082475, NaN, NaN, NaN, 0.0384545, "- N/A -   "
36.49, 1478.2, 0.06092749, NaN, NaN, NaN, 0.0372337, "- N/A -   "
36.55, 1481.18, 0.0610358, NaN, NaN, NaN, 0.0347922, "- N/A -   "
36.61, 1483.81, 0.0611357, NaN, NaN, NaN, 0.0347922, "- N/A -   "
36.67, 1486.43, 0.0612329, NaN, NaN, NaN, 0.03601294, "- N/A -   "
36.73, 1489.29, 0.06133845, NaN, NaN, NaN, 0.0323506, "- N/A -   "
36.79, 1491.916, 0.0614356, NaN, NaN, NaN, 0.0335714, "- N/A -   "
36.85, 1494.54, 0.0615356, NaN, NaN, NaN, 0.0347922, "- N/A -   "
36.91, 1497.28, 0.0616411, NaN, NaN, NaN, 0.03112983, "- N/A -   "
36.97, 1499.79, 0.06173275, NaN, NaN, NaN, 0.0347922, "- N/A -   "
37.03, 1502.05, 0.0618216, NaN, NaN, NaN, 0.0396753, "- N/A -   "
37.09, 1504.2, 0.06191046, NaN, NaN, NaN, 0.04577916, "- N/A -   "
37.15, 1506.94, 0.0620076, NaN, NaN, NaN, 0.04699994, "- N/A -   "
37.21, 1509.8, 0.06211594, NaN, NaN, NaN, 0.04211683, "- N/A -   "
37.27, 1513.14, 0.06222979, NaN, NaN, NaN, 0.03601294, "- N/A -   "
37.33, 1515.89, 0.0623325, NaN, NaN, NaN, 0.0347922, "- N/A -   "
37.39, 1518.39, 0.0624353, NaN, NaN, NaN, 0.0335714, "- N/A -   "
37.45, 1521.13, 0.0625325, NaN, NaN, NaN, 0.0347922, "- N/A -   "
37.51, 1524.23, 0.0626463, NaN, NaN, NaN, 0.0286883, "- N/A -   "
37.57, 1526.62, 0.0627407, NaN, NaN, NaN, 0.03112983, "- N/A -   "
37.63, 1528.884, 0.06282679, NaN, NaN, NaN, 0.0372337, "- N/A -   "
37.69, 1531.03, 0.06291287, NaN, NaN, NaN, 0.0433376, "- N/A -   "
37.75, 1533.53, 0.0630045, NaN, NaN, NaN, 0.04699994, "- N/A -   "
37.81, 1536.28, 0.06310724, NaN, NaN, NaN, 0.04577916, "- N/A -   "
37.87, 1539.5, 0.06322387, NaN, NaN, NaN, 0.0396753, "- N/A -   "
37.93, 1542.72, 0.0633405, NaN, NaN, NaN, 0.03112983, "- N/A -   "
37.99, 1545.34, 0.06344045, NaN, NaN, NaN, 0.03112983, "- N/A -   "
38.05, 1548.2, 0.06354597, NaN, NaN, NaN, 0.0299091, "- N/A -   "
38.11, 1551.065, 0.06365426, NaN, NaN, NaN, 0.0250259, "- N/A -   "
38.17, 1553.57, 0.06374867, NaN, NaN, NaN, 0.0274675, "- N/A -   "
38.23, 1555.72, 0.06383475, NaN, NaN, NaN, 0.0335714, "- N/A -   "
38.29, 1558.1, 0.0639264, NaN, NaN, NaN, 0.0384545, "- N/A -   "
38.35, 1560.37, 0.06401246, NaN, NaN, NaN, 0.0433376, "- N/A -   "
38.41, 1562.87, 0.0641124, NaN, NaN, NaN, 0.0445584, "- N/A -   "
38.47, 1565.49, 0.06420684, NaN, NaN, NaN, 0.04577916, "- N/A -   "
38.53, 1568.48, 0.0643124, NaN, NaN, NaN, 0.0433376, "- N/A -   "
38.59, 1571.58, 0.06442342, NaN, NaN, NaN, 0.0384545, "- N/A -   "
38.65, 1574.796, 0.06454282, NaN, NaN, NaN, 0.03112983, "- N/A -   "
38.71, 1577.3, 0.06464001, NaN, NaN, NaN, 0.03112983, "- N/A -   "
38.77, 1579.8, 0.06473719, NaN, NaN, NaN, 0.0323506, "- N/A -   "
38.83, 1582.43, 0.06483438, NaN, NaN, NaN, 0.0347922, "- N/A -   "
38.89, 1585.05, 0.06492879, NaN, NaN, NaN, 0.0372337, "- N/A -   "
38.95, 1587.68, 0.06502875, NaN, NaN, NaN, 0.03601294, "- N/A -   "
39.01, 1590.18, 0.06512594, NaN, NaN, NaN, 0.0384545, "- N/A -   "
39.07, 1592.56, 0.06521202, NaN, NaN, NaN, 0.0433376, "- N/A -   "
39.13, 1595.07, 0.06530643, NaN, NaN, NaN, 0.04577916, "- N/A -   "
39.19, 1598.17, 0.06542028, NaN, NaN, NaN, 0.0396753, "- N/A -   "
39.25, 1601.39, 0.06553968, NaN, NaN, NaN, 0.03112983, "- N/A -   "
39.31, 1604.25, 0.06564797, NaN, NaN, NaN, 0.0286883, "- N/A -   "
39.37, 1606.76, 0.06573682, NaN, NaN, NaN, 0.0323506, "- N/A -   "
39.43, 1609.26, 0.06583124, NaN, NaN, NaN, 0.0347922, "- N/A -   "
39.49, 1612, 0.06593675, NaN, NaN, NaN, 0.0335714, "- N/A -   "
39.55, 1614.98, 0.066045, NaN, NaN, NaN, 0.0299091, "- N/A -   "
39.61, 1617.25, 0.06613112, NaN, NaN, NaN, 0.03601294, "- N/A -   "
39.67, 1619.754, 0.06622276, NaN, NaN, NaN, 0.0384545, "- N/A -   "
39.73, 1622.139, 0.06631716, NaN, NaN, NaN, 0.04089605, "- N/A -   "
39.79, 1625.12, 0.06642546, NaN, NaN, NaN, 0.0384545, "- N/A -   "
39.85, 1627.62, 0.0665199, NaN, NaN, NaN, 0.04211683, "- N/A -   "
39.91, 1630.37, 0.0666198, NaN, NaN, NaN, 0.04089605, "- N/A -   "
39.97, 1633.11, 0.06672535, NaN, NaN, NaN, 0.0396753, "- N/A -   "
40.03, 1635.73, 0.06682254, NaN, NaN, NaN, 0.0396753, "- N/A -   "
40.09, 1638.596, 0.06692805, NaN, NaN, NaN, 0.0384545, "- N/A -   "
40.15, 1641.46, 0.06703357, NaN, NaN, NaN, 0.0347922, "- N/A -   "
40.21, 1644.2, 0.06713631, NaN, NaN, NaN, 0.0335714, "- N/A -   "
40.27, 1646.705, 0.06723627, NaN, NaN, NaN, 0.0347922, "- N/A -   "
40.33, 1649.45, 0.06733901, NaN, NaN, NaN, 0.0335714, "- N/A -   "
40.39, 1651.952, 0.0674306, NaN, NaN, NaN, 0.0372337, "- N/A -   "
40.45, 1654.337, 0.06752228, NaN, NaN, NaN, 0.04089605, "- N/A -   "
40.51, 1656.72, 0.06761391, NaN, NaN, NaN, 0.0433376, "- N/A -   "
40.57, 1659.58, 0.06771387, NaN, NaN, NaN, 0.0433376, "- N/A -   "
40.63, 1662.45, 0.0678222, NaN, NaN, NaN, 0.0396753, "- N/A -   "
40.69, 1665.9, 0.06794434, NaN, NaN, NaN, 0.0299091, "- N/A -   "
40.75, 1668.41, 0.06804153, NaN, NaN, NaN, 0.03112983, "- N/A -   "
40.81, 1670.91, 0.06813594, NaN, NaN, NaN, 0.0335714, "- N/A -   "
40.87, 1673.54, 0.06823868, NaN, NaN, NaN, 0.0335714, "- N/A -   "
40.93, 1676.518, 0.06834975, NaN, NaN, NaN, 0.0286883, "- N/A -   "
40.99, 1678.9, 0.06843583, NaN, NaN, NaN, 0.0335714, "- N/A -   "
41.05, 1681.17, 0.06852746, NaN, NaN, NaN, 0.0384545, "- N/A -   "
41.11, 1683.43, 0.0686135, NaN, NaN, NaN, 0.0433376, "- N/A -   "
41.17, 1686.06, 0.06871072, NaN, NaN, NaN, 0.0445584, "- N/A -   "
41.23, 1688.8, 0.0688135, NaN, NaN, NaN, 0.0433376, "- N/A -   "
41.29, 1691.78, 0.06892454, NaN, NaN, NaN, 0.0396753, "- N/A -   "
41.35, 1694.64, 0.0690301, NaN, NaN, NaN, 0.03601294, "- N/A -   "
41.41, 1697.27, 0.06913279, NaN, NaN, NaN, 0.0347922, "- N/A -   "
41.47, 1700.13, 0.0692383, NaN, NaN, NaN, 0.0335714, "- N/A -   "
41.53, 1702.87, 0.06934105, NaN, NaN, NaN, 0.03112983, "- N/A -   "
41.59, 1705.73, 0.06944379, NaN, NaN, NaN, 0.03112983, "- N/A -   "
41.65, 1708, 0.06953265, NaN, NaN, NaN, 0.0347922, "- N/A -   "
41.71, 1710.147, 0.0696187, NaN, NaN, NaN, 0.04089605, "- N/A -   "
41.77, 1712.41, 0.06971036, NaN, NaN, NaN, 0.0445584, "- N/A -   "
41.83, 1715.27, 0.0698159, NaN, NaN, NaN, 0.04211683, "- N/A -   "
41.89, 1717.78, 0.06991306, NaN, NaN, NaN, 0.0433376, "- N/A -   "
41.95, 1720.88, 0.0700241, NaN, NaN, NaN, 0.0384545, "- N/A -   "
42.01, 1723.74, 0.07013242, NaN, NaN, NaN, 0.0347922, "- N/A -   "
42.07, 1726.84, 0.07024905, NaN, NaN, NaN, 0.0286883, "- N/A -   "
42.13, 1729.585, 0.07034901, NaN, NaN, NaN, 0.0274675, "- N/A -   "
42.19, 1731.97, 0.07044064, NaN, NaN, NaN, 0.0323506, "- N/A -   "
42.25, 1734.236, 0.07052672, NaN, NaN, NaN, 0.0372337, "- N/A -   "
42.31, 1736.98, 0.07062946, NaN, NaN, NaN, 0.03601294, "- N/A -   "
42.37, 1739.6, 0.0707322, NaN, NaN, NaN, 0.03601294, "- N/A -   "
42.43, 1741.99, 0.07081828, NaN, NaN, NaN, 0.04089605, "- N/A -   "
42.49, 1744.37, 0.07091269, NaN, NaN, NaN, 0.0433376, "- N/A -   "
42.55, 1746.88, 0.0710071, NaN, NaN, NaN, 0.04577916, "- N/A -   "
42.61, 1749.86, 0.07111817, NaN, NaN, NaN, 0.04089605, "- N/A -   "
42.67, 1752.96, 0.07123201, NaN, NaN, NaN, 0.0347922, "- N/A -   "
42.73, 1756.06, 0.07134031, NaN, NaN, NaN, 0.03112983, "- N/A -   "
42.79, 1758.21, 0.07143194, NaN, NaN, NaN, 0.0347922, "- N/A -   "
42.85, 1760.71, 0.0715264, NaN, NaN, NaN, 0.0372337, "- N/A -   "
42.91, 1763.45, 0.07162909, NaN, NaN, NaN, 0.03601294, "- N/A -   "
42.97, 1766.434, 0.07173739, NaN, NaN, NaN, 0.0323506, "- N/A -   "
43.03, 1768.819, 0.0718318, NaN, NaN, NaN, 0.03601294, "- N/A -   "
43.09, 1771.204, 0.0719207, NaN, NaN, NaN, 0.0396753, "- N/A -   "
43.15, 1773.71, 0.07201783, NaN, NaN, NaN, 0.04089605, "- N/A -   "
43.21, 1776.45, 0.07212058, NaN, NaN, NaN, 0.04089605, "- N/A -   "
43.27, 1779.07, 0.07222054, NaN, NaN, NaN, 0.0396753, "- N/A -   "
43.33, 1782.06, 0.07232606, NaN, NaN, NaN, 0.0372337, "- N/A -   "
43.39, 1784.8, 0.0724288, NaN, NaN, NaN, 0.03601294, "- N/A -   "
43.45, 1787.78, 0.0725426, NaN, NaN, NaN, 0.03112983, "- N/A -   "
43.51, 1790.76, 0.07265649, NaN, NaN, NaN, 0.0250259, "- N/A -   "
43.57, 1793.15, 0.0727453, NaN, NaN, NaN, 0.0286883, "- N/A -   "
43.63, 1795.53, 0.0728342, NaN, NaN, NaN, 0.0335714, "- N/A -   "
43.69, 1797.92, 0.0729314, NaN, NaN, NaN, 0.03601294, "- N/A -   "
43.75, 1800.54, 0.07303135, NaN, NaN, NaN, 0.0347922, "- N/A -   "
43.81, 1802.69, 0.0731147, NaN, NaN, NaN, 0.04211683, "- N/A -   "
43.87, 1804.71, 0.07319796, NaN, NaN, NaN, 0.0494415, "- N/A -   "
43.93, 1807.58, 0.0733035, NaN, NaN, NaN, 0.0482207, "- N/A -   "
43.99, 1810.8, 0.07341732, NaN, NaN, NaN, 0.04089605, "- N/A -   "
44.05, 1813.66, 0.0735256, NaN, NaN, NaN, 0.0372337, "- N/A -   "
44.11, 1816.76, 0.07363946, NaN, NaN, NaN, 0.03112983, "- N/A -   "
44.17, 1819.26, 0.07373387, NaN, NaN, NaN, 0.0335714, "- N/A -   "
44.23, 1821.89, 0.07383383, NaN, NaN, NaN, 0.0335714, "- N/A -   "
44.29, 1824.63, 0.07393935, NaN, NaN, NaN, 0.0323506, "- N/A -   "
44.35, 1827.491, 0.07404765, NaN, NaN, NaN, 0.0286883, "- N/A -   "
44.41, 1829.876, 0.0741393, NaN, NaN, NaN, 0.0335714, "- N/A -   "
44.47, 1832.14, 0.07422813, NaN, NaN, NaN, 0.0372337, "- N/A -   "
44.53, 1834.29, 0.0743114, NaN, NaN, NaN, 0.0445584, "- N/A -   "
44.59, 1836.67, 0.07440307, NaN, NaN, NaN, 0.0482207, "- N/A -   "
44.65, 1839.65, 0.0745114, NaN, NaN, NaN, 0.0445584, "- N/A -   "
44.71, 1842.76, 0.07462798, NaN, NaN, NaN, 0.0372337, "- N/A -   "
44.77, 1845.74, 0.0747391, NaN, NaN, NaN, 0.0323506, "- N/A -   "
44.83, 1848.48, 0.07484179, NaN, NaN, NaN, 0.0323506, "- N/A -   "
44.89, 1851.34, 0.0749501, NaN, NaN, NaN, 0.0274675, "- N/A -   "
44.95, 1853.965, 0.07504728, NaN, NaN, NaN, 0.0286883, "- N/A -   "
45.01, 1856.47, 0.07514168, NaN, NaN, NaN, 0.03112983, "- N/A -   "
45.07, 1858.735, 0.07523609, NaN, NaN, NaN, 0.0347922, "- N/A -   "
45.13, 1861.12, 0.07532217, NaN, NaN, NaN, 0.0396753, "- N/A -   "
45.19, 1863.15, 0.07540825, NaN, NaN, NaN, 0.04577916, "- N/A -   "
45.25, 1865.89, 0.0755082, NaN, NaN, NaN, 0.04699994, "- N/A -   "
45.31, 1868.63, 0.07560818, NaN, NaN, NaN, 0.04577916, "- N/A -   "
45.37, 1871.495, 0.07571647, NaN, NaN, NaN, 0.04211683, "- N/A -   "
45.43, 1874.6, 0.07583309, NaN, NaN, NaN, 0.03601294, "- N/A -   "
45.49, 1877.696, 0.07594694, NaN, NaN, NaN, 0.0286883, "- N/A -   "
45.55, 1880.32, 0.07604413, NaN, NaN, NaN, 0.0299091, "- N/A -   "
45.61, 1882.47, 0.07613576, NaN, NaN, NaN, 0.0335714, "- N/A -   "
45.67, 1885.09, 0.07623017, NaN, NaN, NaN, 0.03601294, "- N/A -   "
45.73, 1887.59, 0.07632458, NaN, NaN, NaN, 0.0384545, "- N/A -   "
45.79, 1890.58, 0.0764301, NaN, NaN, NaN, 0.03601294, "- N/A -   "
45.85, 1892.84, 0.0765245, NaN, NaN, NaN, 0.0396753, "- N/A -   "
45.91, 1895.11, 0.07661059, NaN, NaN, NaN, 0.04577916, "- N/A -   "
45.97, 1897.61, 0.07670777, NaN, NaN, NaN, 0.04577916, "- N/A -   "
46.03, 1900.71, 0.07682162, NaN, NaN, NaN, 0.04089605, "- N/A -   "
46.09, 1903.81, 0.0769382, NaN, NaN, NaN, 0.0323506, "- N/A -   "
46.15, 1906.67, 0.0770438, NaN, NaN, NaN, 0.0299091, "- N/A -   "
46.21, 1909.06, 0.07713817, NaN, NaN, NaN, 0.0323506, "- N/A -   "
46.27, 1911.68, 0.07723535, NaN, NaN, NaN, 0.0335714, "- N/A -   "
46.33, 1914.54, 0.07734087, NaN, NaN, NaN, 0.03112983, "- N/A -   "
46.39, 1916.93, 0.0774353, NaN, NaN, NaN, 0.0335714, "- N/A -   "
46.45, 1919.315, 0.07752691, NaN, NaN, NaN, 0.0372337, "- N/A -   "
46.51, 1921.82, 0.07762132, NaN, NaN, NaN, 0.04089605, "- N/A -   "
46.57, 1924.085, 0.07771573, NaN, NaN, NaN, 0.0433376, "- N/A -   "
46.63, 1926.83, 0.07781292, NaN, NaN, NaN, 0.0433376, "- N/A -   "
46.69, 1929.57, 0.07791843, NaN, NaN, NaN, 0.04211683, "- N/A -   "
46.75, 1932.552, 0.0780295, NaN, NaN, NaN, 0.03601294, "- N/A -   "
46.81, 1935.29, 0.07813224, NaN, NaN, NaN, 0.0347922, "- N/A -   "
46.87, 1937.92, 0.078235, NaN, NaN, NaN, 0.0335714, "- N/A -   "
46.93, 1940.66, 0.0783405, NaN, NaN, NaN, 0.0323506, "- N/A -   "
46.99, 1943.17, 0.0784377, NaN, NaN, NaN, 0.0335714, "- N/A -   "
47.05, 1945.789, 0.07853488, NaN, NaN, NaN, 0.0335714, "- N/A -   "
47.11, 1948.29, 0.0786348, NaN, NaN, NaN, 0.0335714, "- N/A -   "
47.17, 1950.8, 0.07873202, NaN, NaN, NaN, 0.0347922, "- N/A -   "
47.23, 1953.3, 0.0788209, NaN, NaN, NaN, 0.0396753, "- N/A -   "
47.29, 1955.69, 0.07892084, NaN, NaN, NaN, 0.04089605, "- N/A -   "
47.35, 1958.07, 0.0790125, NaN, NaN, NaN, 0.0445584, "- N/A -   "
47.41, 1960.81, 0.07911243, NaN, NaN, NaN, 0.0433376, "- N/A -   "
47.47, 1963.68, 0.0792235, NaN, NaN, NaN, 0.0396753, "- N/A -   "
47.53, 1966.78, 0.07933735, NaN, NaN, NaN, 0.0323506, "- N/A -   "
47.59, 1969.4, 0.0794401, NaN, NaN, NaN, 0.03112983, "- N/A -   "
47.65, 1972.02, 0.07954005, NaN, NaN, NaN, 0.03112983, "- N/A -   "
47.71, 1975.01, 0.0796511, NaN, NaN, NaN, 0.0262467, "- N/A -   "
47.77, 1977.51, 0.07974832, NaN, NaN, NaN, 0.0286883, "- N/A -   "
47.83, 1979.895, 0.07983717, NaN, NaN, NaN, 0.0323506, "- N/A -   "
47.89, 1981.92, 0.07992326, NaN, NaN, NaN, 0.0384545, "- N/A -   "
47.95, 1984.07, 0.08000933, NaN, NaN, NaN, 0.0445584, "- N/A -   "
48.01, 1986.45, 0.08009819, NaN, NaN, NaN, 0.0494415, "- N/A -   "
48.07, 1989.32, 0.080212, NaN, NaN, NaN, 0.0445584, "- N/A -   "
48.13, 1992.42, 0.0803231, NaN, NaN, NaN, 0.0384545, "- N/A -   "
48.19, 1995.04, 0.0804314, NaN, NaN, NaN, 0.0347922, "- N/A -   "
48.25, 1997.78, 0.08053413, NaN, NaN, NaN, 0.0335714, "- N/A -   "
48.31, 2000.53, 0.0806424, NaN, NaN, NaN, 0.0299091, "- N/A -   "
48.37, 2003.149, 0.0807452, NaN, NaN, NaN, 0.0299091, "- N/A -   "
48.43, 2006.01, 0.08084513, NaN, NaN, NaN, 0.0286883, "- N/A -   "
48.49, 2008.16, 0.08093399, NaN, NaN, NaN, 0.0335714, "- N/A -   "
48.55, 2010.185, 0.08102284, NaN, NaN, NaN, 0.0384545, "- N/A -   "
48.61, 2012.45, 0.08110892, NaN, NaN, NaN, 0.0445584, "- N/A -   "
48.67, 2015.07, 0.0812089, NaN, NaN, NaN, 0.0445584, "- N/A -   "
48.73, 2017.7, 0.08131163, NaN, NaN, NaN, 0.0433376, "- N/A -   "
48.79, 2020.44, 0.08141714, NaN, NaN, NaN, 0.04089605, "- N/A -   "
48.85, 2023.3, 0.08152821, NaN, NaN, NaN, 0.03601294, "- N/A -   "
48.91, 2026.52, 0.08164483, NaN, NaN, NaN, 0.0299091, "- N/A -   "
48.97, 2029.27, 0.08175313, NaN, NaN, NaN, 0.0274675, "- N/A -   "
49.03, 2031.41, 0.08184477, NaN, NaN, NaN, 0.0299091, "- N/A -   "
49.09, 2033.916, 0.0819392, NaN, NaN, NaN, 0.0335714, "- N/A -   "
49.15, 2036.18, 0.082028, NaN, NaN, NaN, 0.0372337, "- N/A -   "
49.177, 2037.26, 0.08207245, NaN, NaN, NaN, 0.0372337, "- N/A -   "