File: 2_Tensile_Data/Hamel_ForceTest_Bolt9_Test11.csv
Time, Load (lb), Position (in), AxialStrain (in), TransverseStrain (in), Auxiliary (), Control Out (V), Stress (psi)
0.0, 14.0357, 0.0, NaN, NaN, NaN, -0.007935055, "- N/A -   "
0.01, 14.0357, 0.0, NaN, NaN, NaN, -6.103888E-4, "- N/A -   "
0.02, 14.0357, 0.0, NaN, NaN, NaN, 0.007935055, "- N/A -   "
0.03, 14.0357, 2.776752E-6, NaN, NaN, NaN, 0.0262467, "- N/A -   "
0.04, 14.0357, 8.330256E-6, NaN, NaN, NaN, 0.0445584, "- N/A -   "
0.05, 14.1537, 1.94373e-05, NaN, NaN, NaN, 0.0579869, "- N/A -   "
0.06, 14.5075, 3.60978e-05, NaN, NaN, NaN, 0.07141549, "- N/A -   "
0.07, 14.9793, 5.83118e-05, NaN, NaN, NaN, 0.08118171, "- N/A -   "
0.08, 15.3332, 8.05258E-5, NaN, NaN, NaN, 0.0897272, "- N/A -   "
0.09, 15.805, 0.000108293, NaN, NaN, NaN, 0.09705182, "- N/A -   "
0.1, 16.3947, 1.388376E-4, NaN, NaN, NaN, 0.09949338, "- N/A -   "
0.11, 17.1024, 0.000172159, NaN, NaN, NaN, 0.09338949, "- N/A -   "
0.12, 17.5742, 0.000202703, NaN, NaN, NaN, 0.0872856, "- N/A -   "
0.13, 18.046, 0.000227694, NaN, NaN, NaN, 0.08240249, "- N/A -   "
0.14, 18.3998, 0.000255461, NaN, NaN, NaN, 0.07874016, "- N/A -   "
0.15, 18.8716, 2.776752E-4, NaN, NaN, NaN, 0.0750778, "- N/A -   "
0.16, 19.1075, 0.000302666, NaN, NaN, NaN, 0.07263627, "- N/A -   "
0.17, 19.4613, 3.221032E-4, NaN, NaN, NaN, 0.0701947, "- N/A -   "
0.18, 19.8152, 0.000344317, NaN, NaN, NaN, 0.06775316, "- N/A -   "
0.19, 20.169, 0.000366531, NaN, NaN, NaN, 0.06653238, "- N/A -   "
0.2, 20.4049, 0.000383192, NaN, NaN, NaN, 0.0653116, "- N/A -   "
0.21, 20.7588, 0.000402629, NaN, NaN, NaN, 0.0640908, "- N/A -   "
0.22, 20.99465, 0.000422066, NaN, NaN, NaN, 0.06287005, "- N/A -   "
0.23, 21.3485, 4.387268E-4, NaN, NaN, NaN, 0.06287005, "- N/A -   "
0.24, 21.5844, 0.000458164, NaN, NaN, NaN, 0.06287005, "- N/A -   "
0.25, 21.93823, 0.000474825, NaN, NaN, NaN, 0.06164927, "- N/A -   "
0.26, 22.1741, 4.942618E-4, NaN, NaN, NaN, 0.0604285, "- N/A -   "
0.27, 22.41, 5.136991E-4, NaN, NaN, NaN, 0.0592077, "- N/A -   "
0.28, 22.7639, 0.000533136, NaN, NaN, NaN, 0.0579869, "- N/A -   "
0.29, 23.1177, 5.525736E-4, NaN, NaN, NaN, 0.05676616, "- N/A -   "
0.3, 23.3536, 5.747876E-4, NaN, NaN, NaN, 0.0543246, "- N/A -   "
0.31, 23.7074, 5.942249E-4, NaN, NaN, NaN, 0.0531038, "- N/A -   "
0.32, 24.0613, 6.164389E-4, NaN, NaN, NaN, 0.05066227, "- N/A -   "
0.33, 24.29718, 0.000635876, NaN, NaN, NaN, 0.0494415, "- N/A -   "
0.34, 24.65102, 0.00065809, NaN, NaN, NaN, 0.0482207, "- N/A -   "
0.35, 24.8869, 0.000677527, NaN, NaN, NaN, 0.04577916, "- N/A -   "
0.36, 25.1228, 0.000694188, NaN, NaN, NaN, 0.04577916, "- N/A -   "
0.37, 25.3587, 7.108485E-4, NaN, NaN, NaN, 0.04577916, "- N/A -   "
0.38, 25.5946, 7.302857E-4, NaN, NaN, NaN, 0.0445584, "- N/A -   "
0.39, 25.8305, 0.000746946, NaN, NaN, NaN, 0.0445584, "- N/A -   "
0.4, 26.0664, 0.000763607, NaN, NaN, NaN, 0.04577916, "- N/A -   "
0.41, 26.4202, 0.000780267, NaN, NaN, NaN, 0.0445584, "- N/A -   "
0.42, 26.6561, 7.997045E-4, NaN, NaN, NaN, 0.0445584, "- N/A -   "
0.43, 26.892, 8.16365E-4, NaN, NaN, NaN, 0.0433376, "- N/A -   "
0.44, 27.1279, 8.358023E-4, NaN, NaN, NaN, 0.04211683, "- N/A -   "
0.45, 27.3638, 8.524628E-4, NaN, NaN, NaN, 0.04211683, "- N/A -   "
0.46, 27.5997, 0.0008719, NaN, NaN, NaN, 0.04211683, "- N/A -   "
0.47, 27.95355, 8.885606E-4, NaN, NaN, NaN, 0.04089605, "- N/A -   "
0.48, 28.3074, 0.000907998, NaN, NaN, NaN, 0.0396753, "- N/A -   "
0.49, 28.54329, 9.274351E-4, NaN, NaN, NaN, 0.0384545, "- N/A -   "
0.5, 28.7792, 9.440956E-4, NaN, NaN, NaN, 0.0384545, "- N/A -   "
0.51, 29.0151, 9.635329E-4, NaN, NaN, NaN, 0.0372337, "- N/A -   "
0.52, 29.3689, 9.857469E-4, NaN, NaN, NaN, 0.03601294, "- N/A -   "
0.53, 29.6048, 0.00100518, NaN, NaN, NaN, 0.0347922, "- N/A -   "
0.54, 29.9587, 0.00102184, NaN, NaN, NaN, 0.0335714, "- N/A -   "
0.55, 30.0766, 0.001041282, NaN, NaN, NaN, 0.0323506, "- N/A -   "
0.56, 30.5484, 0.00105794, NaN, NaN, NaN, 0.0323506, "- N/A -   "
0.57, 30.6663, 0.001074603, NaN, NaN, NaN, 0.0323506, "- N/A -   "
0.58, 30.9022, 0.00109126, NaN, NaN, NaN, 0.0323506, "- N/A -   "
0.59, 31.2561, 0.0011107, NaN, NaN, NaN, 0.03112983, "- N/A -   "
0.6, 31.374, 0.001130138, NaN, NaN, NaN, 0.0299091, "- N/A -   "
0.61, 31.72787, 0.0011468, NaN, NaN, NaN, 0.0299091, "- N/A -   "
0.62, 31.9638, 0.001163459, NaN, NaN, NaN, 0.0299091, "- N/A -   "
0.63, 32.1997, 0.00118012, NaN, NaN, NaN, 0.03112983, "- N/A -   "
0.64, 32.4356, 0.001194, NaN, NaN, NaN, 0.03112983, "- N/A -   "
0.65, 32.67145, 0.00121066, NaN, NaN, NaN, 0.03112983, "- N/A -   "
0.66, 32.9073, 0.00122732, NaN, NaN, NaN, 0.0323506, "- N/A -   "
0.67, 33.1432, 0.00124398, NaN, NaN, NaN, 0.03112983, "- N/A -   "
0.68, 33.3791, 0.00126065, NaN, NaN, NaN, 0.03112983, "- N/A -   "
0.69, 33.61503, 0.00127731, NaN, NaN, NaN, 0.0323506, "- N/A -   "
0.7, 33.8509, 0.00129119, NaN, NaN, NaN, 0.0323506, "- N/A -   "
0.71, 34.08682, 0.00130507, NaN, NaN, NaN, 0.0335714, "- N/A -   "
0.72, 34.2048, 0.00132173, NaN, NaN, NaN, 0.0347922, "- N/A -   "
0.73, 34.55861, 0.00133562, NaN, NaN, NaN, 0.0347922, "- N/A -   "
0.74, 34.6766, 0.0013495, NaN, NaN, NaN, 0.03601294, "- N/A -   "
0.75, 34.9125, 0.00136339, NaN, NaN, NaN, 0.0372337, "- N/A -   "
0.76, 35.1483, 0.00137727, NaN, NaN, NaN, 0.0384545, "- N/A -   "
0.77, 35.2663, 0.00139393, NaN, NaN, NaN, 0.0384545, "- N/A -   "
0.78, 35.6201, 0.00141059, NaN, NaN, NaN, 0.0396753, "- N/A -   "
0.79, 35.7381, 0.00142447, NaN, NaN, NaN, 0.0396753, "- N/A -   "
0.8, 35.97398, 0.00143836, NaN, NaN, NaN, 0.04089605, "- N/A -   "
0.81, 36.2099, 0.001455018, NaN, NaN, NaN, 0.04211683, "- N/A -   "
0.82, 36.5637, 0.0014689, NaN, NaN, NaN, 0.04211683, "- N/A -   "
0.83, 36.79961, 0.00148556, NaN, NaN, NaN, 0.04211683, "- N/A -   "
0.84, 37.0355, 0.00150222, NaN, NaN, NaN, 0.04211683, "- N/A -   "
0.85, 37.15345, 0.00151611, NaN, NaN, NaN, 0.0433376, "- N/A -   "
0.86, 37.3893, 0.00152999, NaN, NaN, NaN, 0.0445584, "- N/A -   "
0.87, 37.6252, 0.00154665, NaN, NaN, NaN, 0.0445584, "- N/A -   "
0.88, 37.9791, 0.00156609, NaN, NaN, NaN, 0.0433376, "- N/A -   "
0.89, 38.3329, 0.00158275, NaN, NaN, NaN, 0.0433376, "- N/A -   "
0.9, 38.5688, 0.001599409, NaN, NaN, NaN, 0.0433376, "- N/A -   "
0.91, 38.8047, 0.00161607, NaN, NaN, NaN, 0.0433376, "- N/A -   "
0.92, 39.04061, 0.00163273, NaN, NaN, NaN, 0.0433376, "- N/A -   "
0.93, 39.3945, 0.00164939, NaN, NaN, NaN, 0.0433376, "- N/A -   "
0.94, 39.6304, 0.00166605, NaN, NaN, NaN, 0.0445584, "- N/A -   "
0.95, 39.8662, 0.00168271, NaN, NaN, NaN, 0.0445584, "- N/A -   "
0.96, 40.10214, 0.0016966, NaN, NaN, NaN, 0.0445584, "- N/A -   "
0.97, 40.456, 0.00171603, NaN, NaN, NaN, 0.0433376, "- N/A -   "
0.98, 40.69188, 0.00173269, NaN, NaN, NaN, 0.0433376, "- N/A -   "
0.99, 40.9278, 0.00174935, NaN, NaN, NaN, 0.0433376, "- N/A -   "
1, 41.2816, 0.00176879, NaN, NaN, NaN, 0.04211683, "- N/A -   "
1.01, 41.6355, 0.00178823, NaN, NaN, NaN, 0.04089605, "- N/A -   "
1.02, 41.9893, 0.00180767, NaN, NaN, NaN, 0.04089605, "- N/A -   "
1.03, 42.1072, 0.00182433, NaN, NaN, NaN, 0.0396753, "- N/A -   "
1.04, 42.579, 0.00184376, NaN, NaN, NaN, 0.0396753, "- N/A -   "
1.05, 42.8149, 0.00186042, NaN, NaN, NaN, 0.0384545, "- N/A -   "
1.06, 43.1688, 0.001879861, NaN, NaN, NaN, 0.0372337, "- N/A -   "
1.07, 43.5226, 0.0018993, NaN, NaN, NaN, 0.03601294, "- N/A -   "
1.08, 43.87646, 0.00192151, NaN, NaN, NaN, 0.0347922, "- N/A -   "
1.09, 44.1124, 0.00193817, NaN, NaN, NaN, 0.0335714, "- N/A -   "
1.1, 44.58414, 0.00196039, NaN, NaN, NaN, 0.0323506, "- N/A -   "
1.11, 44.82, 0.00197982, NaN, NaN, NaN, 0.03112983, "- N/A -   "
1.12, 45.17388, 0.00199926, NaN, NaN, NaN, 0.0286883, "- N/A -   "
1.13, 45.40978, 0.0020187, NaN, NaN, NaN, 0.0274675, "- N/A -   "
1.14, 45.76362, 0.00203536, NaN, NaN, NaN, 0.0274675, "- N/A -   "
1.15, 45.9995, 0.00204924, NaN, NaN, NaN, 0.0286883, "- N/A -   "
1.16, 46.23541, 0.00206313, NaN, NaN, NaN, 0.0299091, "- N/A -   "
1.17, 46.4713, 0.00207979, NaN, NaN, NaN, 0.0299091, "- N/A -   "
1.18, 46.8251, 0.00209645, NaN, NaN, NaN, 0.03112983, "- N/A -   "
1.19, 47.061, 0.002113108, NaN, NaN, NaN, 0.0299091, "- N/A -   "
1.2, 47.4149, 0.00212977, NaN, NaN, NaN, 0.0299091, "- N/A -   "
1.21, 47.65078, 0.00214643, NaN, NaN, NaN, 0.0299091, "- N/A -   "
1.22, 47.8867, 0.00216309, NaN, NaN, NaN, 0.0299091, "- N/A -   "
1.23, 48.2405, 0.00217975, NaN, NaN, NaN, 0.0299091, "- N/A -   "
1.24, 48.3585, 0.00219641, NaN, NaN, NaN, 0.0299091, "- N/A -   "
1.25, 48.7123, 0.002213071, NaN, NaN, NaN, 0.0299091, "- N/A -   "
1.26, 48.9482, 0.002226955, NaN, NaN, NaN, 0.03112983, "- N/A -   "
1.27, 49.30204, 0.00224362, NaN, NaN, NaN, 0.03112983, "- N/A -   "
1.28, 49.41999, 0.0022575, NaN, NaN, NaN, 0.0323506, "- N/A -   "
1.29, 49.6559, 0.002271383, NaN, NaN, NaN, 0.0335714, "- N/A -   "
1.3, 50.1277, 0.00229082, NaN, NaN, NaN, 0.0335714, "- N/A -   "
1.31, 50.3636, 0.002304704, NaN, NaN, NaN, 0.0335714, "- N/A -   "
1.32, 50.5995, 0.00232136, NaN, NaN, NaN, 0.0347922, "- N/A -   "
1.33, 50.83536, 0.002338025, NaN, NaN, NaN, 0.0347922, "- N/A -   "
1.34, 51.1892, 0.00235191, NaN, NaN, NaN, 0.0347922, "- N/A -   "
1.35, 51.4251, 0.00236857, NaN, NaN, NaN, 0.03601294, "- N/A -   "
1.36, 51.66099, 0.002382453, NaN, NaN, NaN, 0.03601294, "- N/A -   "
1.37, 51.89689, 0.00239911, NaN, NaN, NaN, 0.03601294, "- N/A -   "
1.38, 52.1328, 0.00241577, NaN, NaN, NaN, 0.03601294, "- N/A -   "
1.39, 52.48662, 0.00243243, NaN, NaN, NaN, 0.03601294, "- N/A -   "
1.4, 52.9584, 0.002449095, NaN, NaN, NaN, 0.03601294, "- N/A -   "
1.41, 53.19431, 0.00246853, NaN, NaN, NaN, 0.0347922, "- N/A -   "
1.42, 53.4302, 0.002482416, NaN, NaN, NaN, 0.03601294, "- N/A -   "
1.43, 53.6661, 0.00249908, NaN, NaN, NaN, 0.0372337, "- N/A -   "
1.44, 54.0199, 0.00251296, NaN, NaN, NaN, 0.0372337, "- N/A -   "
1.45, 54.2558, 0.00252962, NaN, NaN, NaN, 0.0372337, "- N/A -   "
1.46, 54.4917, 0.0025435, NaN, NaN, NaN, 0.0384545, "- N/A -   "
1.47, 54.8456, 0.00256017, NaN, NaN, NaN, 0.0384545, "- N/A -   "
1.48, 55.0815, 0.00257683, NaN, NaN, NaN, 0.0396753, "- N/A -   "
1.49, 55.3174, 0.00259071, NaN, NaN, NaN, 0.04089605, "- N/A -   "
1.5, 55.6712, 0.00260459, NaN, NaN, NaN, 0.04089605, "- N/A -   "
1.51, 55.9071, 0.00262125, NaN, NaN, NaN, 0.04211683, "- N/A -   "
1.52, 56.143, 0.00263514, NaN, NaN, NaN, 0.04211683, "- N/A -   "
1.53, 56.4968, 0.002651798, NaN, NaN, NaN, 0.04211683, "- N/A -   "
1.54, 56.73273, 0.00266846, NaN, NaN, NaN, 0.0433376, "- N/A -   "
1.55, 57.08658, 0.00268234, NaN, NaN, NaN, 0.0433376, "- N/A -   "
1.56, 57.32247, 0.002699, NaN, NaN, NaN, 0.0433376, "- N/A -   "
1.57, 57.5584, 0.00271289, NaN, NaN, NaN, 0.0445584, "- N/A -   "
1.58, 57.91221, 0.00272955, NaN, NaN, NaN, 0.0445584, "- N/A -   "
1.59, 58.1481, 0.00274621, NaN, NaN, NaN, 0.04577916, "- N/A -   "
1.6, 58.5019, 0.00276287, NaN, NaN, NaN, 0.0445584, "- N/A -   "
1.61, 58.8558, 0.00277953, NaN, NaN, NaN, 0.0445584, "- N/A -   "
1.62, 59.2096, 0.00279619, NaN, NaN, NaN, 0.0445584, "- N/A -   "
1.63, 59.4455, 0.00281285, NaN, NaN, NaN, 0.0445584, "- N/A -   "
1.64, 59.68142, 0.00283229, NaN, NaN, NaN, 0.0433376, "- N/A -   "
1.65, 60.15321, 0.00285172, NaN, NaN, NaN, 0.04211683, "- N/A -   "
1.66, 60.5071, 0.00287116, NaN, NaN, NaN, 0.04089605, "- N/A -   "
1.67, 60.97884, 0.00289338, NaN, NaN, NaN, 0.0396753, "- N/A -   "
1.68, 61.45063, 0.00291281, NaN, NaN, NaN, 0.0384545, "- N/A -   "
1.69, 61.8045, 0.00293225, NaN, NaN, NaN, 0.0372337, "- N/A -   "
1.7, 62.1583, 0.00295169, NaN, NaN, NaN, 0.03601294, "- N/A -   "
1.71, 62.5122, 0.00297112, NaN, NaN, NaN, 0.0335714, "- N/A -   "
1.72, 62.866, 0.00299056, NaN, NaN, NaN, 0.0335714, "- N/A -   "
1.73, 63.1019, 0.00300722, NaN, NaN, NaN, 0.0323506, "- N/A -   "
1.74, 63.5737, 0.00302388, NaN, NaN, NaN, 0.0323506, "- N/A -   "
1.75, 63.80958, 0.00304054, NaN, NaN, NaN, 0.0323506, "- N/A -   "
1.76, 64.16342, 0.003057204, NaN, NaN, NaN, 0.0323506, "- N/A -   "
1.77, 64.3993, 0.00307109, NaN, NaN, NaN, 0.0335714, "- N/A -   "
1.78, 64.75317, 0.00309052, NaN, NaN, NaN, 0.0335714, "- N/A -   "
1.79, 64.98906, 0.00310719, NaN, NaN, NaN, 0.0335714, "- N/A -   "
1.8, 65.4608, 0.003123846, NaN, NaN, NaN, 0.0323506, "- N/A -   "
1.81, 65.5788, 0.00314051, NaN, NaN, NaN, 0.0323506, "- N/A -   "
1.82, 65.93263, 0.00315439, NaN, NaN, NaN, 0.0335714, "- N/A -   "
1.83, 66.2865, 0.003168274, NaN, NaN, NaN, 0.0347922, "- N/A -   "
1.84, 66.52237, 0.00318493, NaN, NaN, NaN, 0.0347922, "- N/A -   "
1.85, 66.87622, 0.003201595, NaN, NaN, NaN, 0.0347922, "- N/A -   "
1.86, 67.1121, 0.00321826, NaN, NaN, NaN, 0.0347922, "- N/A -   "
1.87, 67.34801, 0.003234916, NaN, NaN, NaN, 0.03601294, "- N/A -   "
1.88, 67.81979, 0.00325158, NaN, NaN, NaN, 0.03601294, "- N/A -   "
1.89, 68.05569, 0.003268237, NaN, NaN, NaN, 0.03601294, "- N/A -   "
1.9, 68.40953, 0.0032849, NaN, NaN, NaN, 0.03601294, "- N/A -   "
1.91, 68.7634, 0.003301558, NaN, NaN, NaN, 0.03601294, "- N/A -   "
1.92, 69.11722, 0.00331544, NaN, NaN, NaN, 0.03601294, "- N/A -   "
1.93, 69.35311, 0.0033321, NaN, NaN, NaN, 0.03601294, "- N/A -   "
1.94, 69.8249, 0.00335154, NaN, NaN, NaN, 0.0347922, "- N/A -   "
1.95, 70.0608, 0.0033682, NaN, NaN, NaN, 0.0347922, "- N/A -   "
1.96, 70.5326, 0.00338764, NaN, NaN, NaN, 0.0347922, "- N/A -   "
1.97, 70.7685, 0.0034043, NaN, NaN, NaN, 0.0347922, "- N/A -   "
1.98, 71.12233, 0.00342096, NaN, NaN, NaN, 0.0335714, "- N/A -   "
1.99, 71.4762, 0.00343762, NaN, NaN, NaN, 0.0335714, "- N/A -   "
2, 71.94796, 0.00345428, NaN, NaN, NaN, 0.0335714, "- N/A -   "
2.01, 72.3018, 0.00347094, NaN, NaN, NaN, 0.0335714, "- N/A -   "
2.02, 72.5377, 0.0034876, NaN, NaN, NaN, 0.0335714, "- N/A -   "
2.03, 72.89154, 0.00350426, NaN, NaN, NaN, 0.0335714, "- N/A -   "
2.04, 73.2454, 0.00352092, NaN, NaN, NaN, 0.0335714, "- N/A -   "
2.05, 73.48127, 0.00353758, NaN, NaN, NaN, 0.0335714, "- N/A -   "
2.06, 73.83511, 0.00355424, NaN, NaN, NaN, 0.0335714, "- N/A -   "
2.07, 74.3069, 0.0035709, NaN, NaN, NaN, 0.0347922, "- N/A -   "
2.08, 74.5428, 0.00358479, NaN, NaN, NaN, 0.0347922, "- N/A -   "
2.09, 74.7787, 0.00360145, NaN, NaN, NaN, 0.0347922, "- N/A -   "
2.1, 75.13254, 0.003615331, NaN, NaN, NaN, 0.03601294, "- N/A -   "
2.11, 75.48638, 0.00363199, NaN, NaN, NaN, 0.03601294, "- N/A -   "
2.12, 75.7223, 0.00364865, NaN, NaN, NaN, 0.03601294, "- N/A -   "
2.13, 76.19407, 0.00366254, NaN, NaN, NaN, 0.0372337, "- N/A -   "
2.14, 76.43, 0.00367642, NaN, NaN, NaN, 0.0384545, "- N/A -   "
2.15, 76.6659, 0.00369308, NaN, NaN, NaN, 0.0396753, "- N/A -   "
2.16, 76.90175, 0.00370696, NaN, NaN, NaN, 0.04089605, "- N/A -   "
2.17, 77.25559, 0.00372085, NaN, NaN, NaN, 0.04211683, "- N/A -   "
2.18, 77.6094, 0.00373473, NaN, NaN, NaN, 0.04211683, "- N/A -   "
2.19, 77.84533, 0.00375139, NaN, NaN, NaN, 0.04211683, "- N/A -   "
2.2, 78.31712, 0.00376805, NaN, NaN, NaN, 0.04211683, "- N/A -   "
2.21, 78.55301, 0.00378749, NaN, NaN, NaN, 0.04211683, "- N/A -   "
2.22, 79.0248, 0.00380415, NaN, NaN, NaN, 0.04211683, "- N/A -   "
2.23, 79.4966, 0.00382359, NaN, NaN, NaN, 0.04089605, "- N/A -   "
2.24, 79.85043, 0.00384025, NaN, NaN, NaN, 0.0396753, "- N/A -   "
2.25, 80.20428, 0.003859685, NaN, NaN, NaN, 0.0396753, "- N/A -   "
2.26, 80.67606, 0.00387635, NaN, NaN, NaN, 0.0384545, "- N/A -   "
2.27, 81.0299, 0.00389578, NaN, NaN, NaN, 0.0384545, "- N/A -   "
2.28, 81.38376, 0.00390967, NaN, NaN, NaN, 0.0384545, "- N/A -   "
2.29, 81.7376, 0.003926327, NaN, NaN, NaN, 0.0384545, "- N/A -   "
2.3, 81.97349, 0.00394299, NaN, NaN, NaN, 0.0396753, "- N/A -   "
2.31, 82.32734, 0.00395965, NaN, NaN, NaN, 0.0396753, "- N/A -   "
2.32, 82.68118, 0.00397631, NaN, NaN, NaN, 0.0384545, "- N/A -   "
2.33, 83.03502, 0.003992969, NaN, NaN, NaN, 0.0384545, "- N/A -   "
2.34, 83.50681, 0.00401241, NaN, NaN, NaN, 0.0372337, "- N/A -   "
2.35, 83.86065, 0.00403184, NaN, NaN, NaN, 0.0372337, "- N/A -   "
2.36, 84.33244, 0.004048504, NaN, NaN, NaN, 0.03601294, "- N/A -   "
2.37, 84.68629, 0.00406794, NaN, NaN, NaN, 0.0347922, "- N/A -   "
2.38, 85.04012, 0.004084602, NaN, NaN, NaN, 0.0347922, "- N/A -   "
2.39, 85.39397, 0.00410126, NaN, NaN, NaN, 0.0347922, "- N/A -   "
2.4, 85.62987, 0.004117923, NaN, NaN, NaN, 0.0347922, "- N/A -   "
2.41, 85.9837, 0.00413458, NaN, NaN, NaN, 0.0347922, "- N/A -   "
2.42, 86.33755, 0.004151244, NaN, NaN, NaN, 0.03601294, "- N/A -   "
2.43, 86.69139, 0.0041679, NaN, NaN, NaN, 0.03601294, "- N/A -   "
2.44, 87.04523, 0.00418179, NaN, NaN, NaN, 0.03601294, "- N/A -   "
2.45, 87.39908, 0.00420123, NaN, NaN, NaN, 0.03601294, "- N/A -   "
2.46, 87.75292, 0.00421789, NaN, NaN, NaN, 0.03601294, "- N/A -   "
2.47, 88.22471, 0.004234547, NaN, NaN, NaN, 0.0347922, "- N/A -   "
2.48, 88.4606, 0.004251207, NaN, NaN, NaN, 0.03601294, "- N/A -   "
2.49, 88.9324, 0.00426787, NaN, NaN, NaN, 0.0347922, "- N/A -   "
2.5, 89.28623, 0.004284528, NaN, NaN, NaN, 0.0347922, "- N/A -   "
2.51, 89.6401, 0.00430119, NaN, NaN, NaN, 0.0347922, "- N/A -   "
2.52, 89.99392, 0.00431785, NaN, NaN, NaN, 0.0347922, "- N/A -   "
2.53, 90.4657, 0.004337286, NaN, NaN, NaN, 0.0335714, "- N/A -   "
2.54, 90.81956, 0.00435672, NaN, NaN, NaN, 0.0335714, "- N/A -   "
2.55, 91.2913, 0.004376161, NaN, NaN, NaN, 0.0323506, "- N/A -   "
2.56, 91.64519, 0.00439282, NaN, NaN, NaN, 0.0323506, "- N/A -   "
2.57, 92.117, 0.004409482, NaN, NaN, NaN, 0.0323506, "- N/A -   "
2.58, 92.35287, 0.004426142, NaN, NaN, NaN, 0.0323506, "- N/A -   "
2.59, 92.70671, 0.004442803, NaN, NaN, NaN, 0.03112983, "- N/A -   "
2.6, 93.1785, 0.00445946, NaN, NaN, NaN, 0.03112983, "- N/A -   "
2.61, 93.53234, 0.004476124, NaN, NaN, NaN, 0.03112983, "- N/A -   "
2.62, 93.76824, 0.00449278, NaN, NaN, NaN, 0.03112983, "- N/A -   "
2.63, 94.1221, 0.004509445, NaN, NaN, NaN, 0.03112983, "- N/A -   "
2.64, 94.47592, 0.00452611, NaN, NaN, NaN, 0.0323506, "- N/A -   "
2.65, 94.9477, 0.00453999, NaN, NaN, NaN, 0.0323506, "- N/A -   "
2.66, 95.18361, 0.00455665, NaN, NaN, NaN, 0.0323506, "- N/A -   "
2.67, 95.6554, 0.00457331, NaN, NaN, NaN, 0.0323506, "- N/A -   "
2.68, 96.00924, 0.00458997, NaN, NaN, NaN, 0.0323506, "- N/A -   "
2.69, 96.481, 0.00460663, NaN, NaN, NaN, 0.0323506, "- N/A -   "
2.7, 96.83487, 0.004623292, NaN, NaN, NaN, 0.0323506, "- N/A -   "
2.71, 97.07077, 0.00463718, NaN, NaN, NaN, 0.0335714, "- N/A -   "
2.72, 97.4246, 0.004653836, NaN, NaN, NaN, 0.0335714, "- N/A -   "
2.73, 97.8964, 0.0046705, NaN, NaN, NaN, 0.0347922, "- N/A -   "
2.74, 98.2502, 0.004687157, NaN, NaN, NaN, 0.0347922, "- N/A -   "
2.75, 98.4861, 0.00470382, NaN, NaN, NaN, 0.0347922, "- N/A -   "
2.76, 98.83998, 0.004720478, NaN, NaN, NaN, 0.0335714, "- N/A -   "
2.77, 99.3118, 0.00473714, NaN, NaN, NaN, 0.0335714, "- N/A -   "
2.78, 99.66561, 0.004753799, NaN, NaN, NaN, 0.0335714, "- N/A -   "
2.79, 100.019, 0.00477046, NaN, NaN, NaN, 0.0335714, "- N/A -   "
2.8, 100.3733, 0.00478434, NaN, NaN, NaN, 0.0347922, "- N/A -   "
2.81, 100.727, 0.004801004, NaN, NaN, NaN, 0.0347922, "- N/A -   "
2.82, 101.081, 0.00481766, NaN, NaN, NaN, 0.0347922, "- N/A -   "
2.83, 101.435, 0.00483155, NaN, NaN, NaN, 0.03601294, "- N/A -   "
2.84, 101.789, 0.00484821, NaN, NaN, NaN, 0.03601294, "- N/A -   "
2.85, 102.025, 0.004862093, NaN, NaN, NaN, 0.0372337, "- N/A -   "
2.86, 102.496, 0.004878753, NaN, NaN, NaN, 0.0384545, "- N/A -   "
2.87, 102.85, 0.004892637, NaN, NaN, NaN, 0.0384545, "- N/A -   "
2.88, 103.204, 0.004909297, NaN, NaN, NaN, 0.0384545, "- N/A -   "
2.89, 103.44, 0.004923181, NaN, NaN, NaN, 0.0396753, "- N/A -   "
2.9, 103.912, 0.004939841, NaN, NaN, NaN, 0.0396753, "- N/A -   "
2.91, 104.266, 0.00495373, NaN, NaN, NaN, 0.04089605, "- N/A -   "
2.92, 104.501, 0.004970386, NaN, NaN, NaN, 0.04089605, "- N/A -   "
2.93, 104.973, 0.004987046, NaN, NaN, NaN, 0.04211683, "- N/A -   "
2.94, 105.327, 0.005003707, NaN, NaN, NaN, 0.04089605, "- N/A -   "
2.95, 105.799, 0.00502037, NaN, NaN, NaN, 0.04089605, "- N/A -   "
2.96, 106.271, 0.005037028, NaN, NaN, NaN, 0.04089605, "- N/A -   "
2.97, 106.507, 0.00505369, NaN, NaN, NaN, 0.04211683, "- N/A -   "
2.98, 106.86, 0.005070349, NaN, NaN, NaN, 0.04211683, "- N/A -   "
2.99, 107.214, 0.00508423, NaN, NaN, NaN, 0.04211683, "- N/A -   "
3, 107.568, 0.005098116, NaN, NaN, NaN, 0.0433376, "- N/A -   "
3.01, 108.04, 0.005114777, NaN, NaN, NaN, 0.0433376, "- N/A -   "
3.02, 108.394, 0.00513144, NaN, NaN, NaN, 0.0433376, "- N/A -   "
3.03, 108.748, 0.0051481, NaN, NaN, NaN, 0.0445584, "- N/A -   "
3.04, 108.983, 0.00516476, NaN, NaN, NaN, 0.0433376, "- N/A -   "
3.05, 109.455, 0.005181419, NaN, NaN, NaN, 0.0445584, "- N/A -   "
3.06, 109.8091, 0.005198079, NaN, NaN, NaN, 0.0433376, "- N/A -   "
3.07, 110.163, 0.00521474, NaN, NaN, NaN, 0.0433376, "- N/A -   "
3.08, 110.753, 0.005234177, NaN, NaN, NaN, 0.0433376, "- N/A -   "
3.09, 111.107, 0.00525361, NaN, NaN, NaN, 0.04089605, "- N/A -   "
3.1, 111.578, 0.00527305, NaN, NaN, NaN, 0.04089605, "- N/A -   "
3.11, 112.168, 0.005292489, NaN, NaN, NaN, 0.0384545, "- N/A -   "
3.12, 112.758, 0.00531193, NaN, NaN, NaN, 0.0372337, "- N/A -   "
3.13, 113.23, 0.00533136, NaN, NaN, NaN, 0.03601294, "- N/A -   "
3.14, 113.465, 0.0053508, NaN, NaN, NaN, 0.0347922, "- N/A -   "
3.15, 114.055, 0.00537024, NaN, NaN, NaN, 0.0335714, "- N/A -   "
3.16, 114.409, 0.0053869, NaN, NaN, NaN, 0.0335714, "- N/A -   "
3.17, 114.881, 0.005403559, NaN, NaN, NaN, 0.0335714, "- N/A -   "
3.18, 115.117, 0.00542022, NaN, NaN, NaN, 0.0335714, "- N/A -   "
3.19, 115.589, 0.0054341, NaN, NaN, NaN, 0.0347922, "- N/A -   "
3.2, 115.824, 0.00545076, NaN, NaN, NaN, 0.0347922, "- N/A -   "
3.21, 116.296, 0.00546742, NaN, NaN, NaN, 0.0347922, "- N/A -   "
3.22, 116.65, 0.00548408, NaN, NaN, NaN, 0.03601294, "- N/A -   "
3.23, 117.004, 0.00549797, NaN, NaN, NaN, 0.03601294, "- N/A -   "
3.24, 117.476, 0.005517406, NaN, NaN, NaN, 0.03601294, "- N/A -   "
3.25, 117.83, 0.00553407, NaN, NaN, NaN, 0.03601294, "- N/A -   "
3.26, 118.301, 0.005550727, NaN, NaN, NaN, 0.03601294, "- N/A -   "
3.27, 118.537, 0.00556739, NaN, NaN, NaN, 0.0347922, "- N/A -   "
3.28, 119.127, 0.00558405, NaN, NaN, NaN, 0.0347922, "- N/A -   "
3.29, 119.599, 0.00560349, NaN, NaN, NaN, 0.0347922, "- N/A -   "
3.3, 119.953, 0.00562015, NaN, NaN, NaN, 0.0335714, "- N/A -   "
3.31, 120.306, 0.00563681, NaN, NaN, NaN, 0.0335714, "- N/A -   "
3.32, 120.66, 0.00565347, NaN, NaN, NaN, 0.0335714, "- N/A -   "
3.33, 121.132, 0.00567013, NaN, NaN, NaN, 0.0347922, "- N/A -   "
3.34, 121.486, 0.005686788, NaN, NaN, NaN, 0.0335714, "- N/A -   "
3.35, 121.958, 0.005706225, NaN, NaN, NaN, 0.0335714, "- N/A -   "
3.36, 122.429, 0.00572289, NaN, NaN, NaN, 0.0323506, "- N/A -   "
3.37, 122.901, 0.00574232, NaN, NaN, NaN, 0.03112983, "- N/A -   "
3.38, 123.373, 0.00576176, NaN, NaN, NaN, 0.0299091, "- N/A -   "
3.39, 123.845, 0.00577842, NaN, NaN, NaN, 0.0299091, "- N/A -   "
3.4, 124.199, 0.00579508, NaN, NaN, NaN, 0.0299091, "- N/A -   "
3.41, 124.67, 0.005814519, NaN, NaN, NaN, 0.0299091, "- N/A -   "
3.42, 125.024, 0.00583118, NaN, NaN, NaN, 0.0286883, "- N/A -   "
3.43, 125.378, 0.00584784, NaN, NaN, NaN, 0.0286883, "- N/A -   "
3.44, 125.732, 0.0058645, NaN, NaN, NaN, 0.0286883, "- N/A -   "
3.45, 126.204, 0.00588116, NaN, NaN, NaN, 0.0299091, "- N/A -   "
3.46, 126.558, 0.00589504, NaN, NaN, NaN, 0.0299091, "- N/A -   "
3.47, 126.911, 0.005908928, NaN, NaN, NaN, 0.03112983, "- N/A -   "
3.48, 127.147, 0.005925589, NaN, NaN, NaN, 0.0323506, "- N/A -   "
3.49, 127.383, 0.005939472, NaN, NaN, NaN, 0.0323506, "- N/A -   "
3.5, 127.855, 0.00595336, NaN, NaN, NaN, 0.0335714, "- N/A -   "
3.51, 128.209, 0.00596724, NaN, NaN, NaN, 0.0347922, "- N/A -   "
3.52, 128.563, 0.00598112, NaN, NaN, NaN, 0.03601294, "- N/A -   "
3.53, 128.917, 0.005997784, NaN, NaN, NaN, 0.0372337, "- N/A -   "
3.54, 129.27, 0.00601167, NaN, NaN, NaN, 0.0372337, "- N/A -   "
3.55, 129.506, 0.006025552, NaN, NaN, NaN, 0.0384545, "- N/A -   "
3.56, 129.86, 0.006039435, NaN, NaN, NaN, 0.0396753, "- N/A -   "
3.57, 130.214, 0.006056096, NaN, NaN, NaN, 0.0396753, "- N/A -   "
3.58, 130.568, 0.00606998, NaN, NaN, NaN, 0.04089605, "- N/A -   "
3.59, 131.04, 0.00608664, NaN, NaN, NaN, 0.04089605, "- N/A -   "
3.6, 131.276, 0.00610052, NaN, NaN, NaN, 0.04211683, "- N/A -   "
3.61, 131.629, 0.006114408, NaN, NaN, NaN, 0.0433376, "- N/A -   "
3.62, 131.865, 0.006128291, NaN, NaN, NaN, 0.04577916, "- N/A -   "
3.63, 132.337, 0.006144952, NaN, NaN, NaN, 0.04699994, "- N/A -   "
3.64, 132.573, 0.00615884, NaN, NaN, NaN, 0.04699994, "- N/A -   "
3.65, 133.045, 0.006175496, NaN, NaN, NaN, 0.04699994, "- N/A -   "
3.66, 133.517, 0.00618938, NaN, NaN, NaN, 0.0482207, "- N/A -   "
3.67, 133.752, 0.006208817, NaN, NaN, NaN, 0.0482207, "- N/A -   "
3.68, 134.342, 0.006225478, NaN, NaN, NaN, 0.04699994, "- N/A -   "
3.69, 134.696, 0.006244915, NaN, NaN, NaN, 0.04699994, "- N/A -   "
3.7, 135.1678, 0.006261575, NaN, NaN, NaN, 0.04577916, "- N/A -   "
3.71, 135.64, 0.00628101, NaN, NaN, NaN, 0.0445584, "- N/A -   "
3.72, 136.111, 0.00630045, NaN, NaN, NaN, 0.0433376, "- N/A -   "
3.73, 136.583, 0.006319887, NaN, NaN, NaN, 0.04211683, "- N/A -   "
3.74, 137.055, 0.006339324, NaN, NaN, NaN, 0.04089605, "- N/A -   "
3.75, 137.6447, 0.006358762, NaN, NaN, NaN, 0.04089605, "- N/A -   "
3.76, 138.116, 0.00637542, NaN, NaN, NaN, 0.0396753, "- N/A -   "
3.77, 138.352, 0.00639486, NaN, NaN, NaN, 0.0396753, "- N/A -   "
3.78, 138.824, 0.00641152, NaN, NaN, NaN, 0.0384545, "- N/A -   "
3.79, 139.296, 0.006430957, NaN, NaN, NaN, 0.0384545, "- N/A -   "
3.8, 139.768, 0.006447618, NaN, NaN, NaN, 0.0372337, "- N/A -   "
3.81, 140.24, 0.006467055, NaN, NaN, NaN, 0.03601294, "- N/A -   "
3.82, 140.593, 0.006486492, NaN, NaN, NaN, 0.0347922, "- N/A -   "
3.83, 141.065, 0.006503153, NaN, NaN, NaN, 0.0347922, "- N/A -   "
3.84, 141.419, 0.006519813, NaN, NaN, NaN, 0.0347922, "- N/A -   "
3.85, 141.891, 0.006536474, NaN, NaN, NaN, 0.03601294, "- N/A -   "
3.86, 142.1267, 0.006550357, NaN, NaN, NaN, 0.03601294, "- N/A -   "
3.87, 142.481, 0.006569795, NaN, NaN, NaN, 0.03601294, "- N/A -   "
3.88, 142.952, 0.00658646, NaN, NaN, NaN, 0.0347922, "- N/A -   "
3.89, 143.424, 0.00660589, NaN, NaN, NaN, 0.0347922, "- N/A -   "
3.9, 143.896, 0.00662533, NaN, NaN, NaN, 0.0335714, "- N/A -   "
3.91, 144.486, 0.00664477, NaN, NaN, NaN, 0.0323506, "- N/A -   "
3.92, 144.8395, 0.0066642, NaN, NaN, NaN, 0.03112983, "- N/A -   "
3.93, 145.311, 0.006683642, NaN, NaN, NaN, 0.0286883, "- N/A -   "
3.94, 145.783, 0.0067003, NaN, NaN, NaN, 0.0286883, "- N/A -   "
3.95, 146.3728, 0.006719739, NaN, NaN, NaN, 0.0274675, "- N/A -   "
3.96, 146.6087, 0.0067364, NaN, NaN, NaN, 0.0274675, "- N/A -   "
3.97, 147.198, 0.00675584, NaN, NaN, NaN, 0.0274675, "- N/A -   "
3.98, 147.552, 0.00676972, NaN, NaN, NaN, 0.0274675, "- N/A -   "
3.99, 147.906, 0.00678638, NaN, NaN, NaN, 0.0274675, "- N/A -   "
4, 148.26, 0.00680304, NaN, NaN, NaN, 0.0274675, "- N/A -   "
4.01, 148.6138, 0.006819702, NaN, NaN, NaN, 0.0274675, "- N/A -   "
4.02, 148.968, 0.006836363, NaN, NaN, NaN, 0.0286883, "- N/A -   "
4.03, 149.439, 0.00685302, NaN, NaN, NaN, 0.0286883, "- N/A -   "
4.04, 149.793, 0.00686691, NaN, NaN, NaN, 0.0286883, "- N/A -   "
4.05, 150.029, 0.006883568, NaN, NaN, NaN, 0.0286883, "- N/A -   "
4.06, 150.383, 0.00689745, NaN, NaN, NaN, 0.0299091, "- N/A -   "
4.07, 150.737, 0.00691411, NaN, NaN, NaN, 0.03112983, "- N/A -   "
4.08, 151.209, 0.006928, NaN, NaN, NaN, 0.03112983, "- N/A -   "
4.09, 151.5625, 0.00694466, NaN, NaN, NaN, 0.03112983, "- N/A -   "
4.1, 151.916, 0.00695854, NaN, NaN, NaN, 0.0323506, "- N/A -   "
4.11, 152.152, 0.006972424, NaN, NaN, NaN, 0.0335714, "- N/A -   "
4.12, 152.506, 0.00698631, NaN, NaN, NaN, 0.0347922, "- N/A -   "
4.13, 152.86, 0.00700019, NaN, NaN, NaN, 0.03601294, "- N/A -   "
4.14, 153.214, 0.007016852, NaN, NaN, NaN, 0.03601294, "- N/A -   "
4.15, 153.686, 0.00703074, NaN, NaN, NaN, 0.0372337, "- N/A -   "
4.16, 153.921, 0.00704462, NaN, NaN, NaN, 0.0384545, "- N/A -   "
4.17, 154.2753, 0.0070585, NaN, NaN, NaN, 0.0396753, "- N/A -   "
4.18, 154.629, 0.00707516, NaN, NaN, NaN, 0.04089605, "- N/A -   "
4.19, 154.865, 0.00708905, NaN, NaN, NaN, 0.04211683, "- N/A -   "
4.2, 155.219, 0.00710293, NaN, NaN, NaN, 0.04211683, "- N/A -   "
4.21, 155.573, 0.00711682, NaN, NaN, NaN, 0.0433376, "- N/A -   "
4.22, 155.927, 0.00713348, NaN, NaN, NaN, 0.0445584, "- N/A -   "
4.23, 156.398, 0.00714736, NaN, NaN, NaN, 0.0445584, "- N/A -   "
4.24, 156.752, 0.00716402, NaN, NaN, NaN, 0.0445584, "- N/A -   "
4.25, 157.224, 0.00718068, NaN, NaN, NaN, 0.0445584, "- N/A -   "
4.26, 157.578, 0.00719734, NaN, NaN, NaN, 0.0445584, "- N/A -   "
4.27, 157.932, 0.007214, NaN, NaN, NaN, 0.04577916, "- N/A -   "
4.28, 158.2855, 0.007230662, NaN, NaN, NaN, 0.04577916, "- N/A -   "
4.29, 158.7573, 0.00724732, NaN, NaN, NaN, 0.0445584, "- N/A -   "
4.3, 159.229, 0.00726398, NaN, NaN, NaN, 0.0445584, "- N/A -   "
4.31, 159.583, 0.00728064, NaN, NaN, NaN, 0.0445584, "- N/A -   "
4.32, 160.055, 0.0072973, NaN, NaN, NaN, 0.0445584, "- N/A -   "
4.33, 160.409, 0.00731396, NaN, NaN, NaN, 0.0445584, "- N/A -   "
4.34, 160.7624, 0.00732785, NaN, NaN, NaN, 0.04577916, "- N/A -   "
4.35, 161.234, 0.00734451, NaN, NaN, NaN, 0.04577916, "- N/A -   "
4.36, 161.588, 0.00736395, NaN, NaN, NaN, 0.04577916, "- N/A -   "
4.37, 162.06, 0.00738061, NaN, NaN, NaN, 0.0445584, "- N/A -   "
4.38, 162.414, 0.007397267, NaN, NaN, NaN, 0.0445584, "- N/A -   "
4.39, 162.768, 0.00741393, NaN, NaN, NaN, 0.0445584, "- N/A -   "
4.4, 163.2393, 0.00743336, NaN, NaN, NaN, 0.0433376, "- N/A -   "
4.41, 163.593, 0.00745003, NaN, NaN, NaN, 0.0433376, "- N/A -   "
4.42, 164.065, 0.007466686, NaN, NaN, NaN, 0.0433376, "- N/A -   "
4.43, 164.537, 0.00748612, NaN, NaN, NaN, 0.04211683, "- N/A -   "
4.44, 165.009, 0.00750556, NaN, NaN, NaN, 0.04211683, "- N/A -   "
4.45, 165.598, 0.007525, NaN, NaN, NaN, 0.0396753, "- N/A -   "
4.46, 165.952, 0.00754443, NaN, NaN, NaN, 0.0396753, "- N/A -   "
4.47, 166.424, 0.0075611, NaN, NaN, NaN, 0.0384545, "- N/A -   "
4.48, 166.896, 0.00758053, NaN, NaN, NaN, 0.0372337, "- N/A -   "
4.49, 167.25, 0.00759997, NaN, NaN, NaN, 0.0372337, "- N/A -   "
4.5, 167.839, 0.007619407, NaN, NaN, NaN, 0.03601294, "- N/A -   "
4.51, 168.193, 0.007636068, NaN, NaN, NaN, 0.0347922, "- N/A -   "
4.52, 168.783, 0.007658282, NaN, NaN, NaN, 0.0323506, "- N/A -   "
4.53, 169.137, 0.007677719, NaN, NaN, NaN, 0.0323506, "- N/A -   "
4.54, 169.608, 0.00769438, NaN, NaN, NaN, 0.03112983, "- N/A -   "
4.55, 170.08, 0.00771382, NaN, NaN, NaN, 0.0299091, "- N/A -   "
4.56, 170.4341, 0.007730477, NaN, NaN, NaN, 0.03112983, "- N/A -   "
4.57, 170.906, 0.007747138, NaN, NaN, NaN, 0.0299091, "- N/A -   "
4.58, 171.142, 0.00776102, NaN, NaN, NaN, 0.03112983, "- N/A -   "
4.59, 171.496, 0.007777682, NaN, NaN, NaN, 0.03112983, "- N/A -   "
4.6, 171.849, 0.007794343, NaN, NaN, NaN, 0.0323506, "- N/A -   "
4.61, 172.321, 0.007811003, NaN, NaN, NaN, 0.0323506, "- N/A -   "
4.62, 172.793, 0.007827664, NaN, NaN, NaN, 0.03112983, "- N/A -   "
4.63, 173.1469, 0.0078471, NaN, NaN, NaN, 0.03112983, "- N/A -   "
4.64, 173.619, 0.007860985, NaN, NaN, NaN, 0.03112983, "- N/A -   "
4.65, 173.973, 0.007877645, NaN, NaN, NaN, 0.0323506, "- N/A -   "
4.66, 174.326, 0.007891529, NaN, NaN, NaN, 0.0323506, "- N/A -   "
4.67, 174.6802, 0.007908189, NaN, NaN, NaN, 0.0335714, "- N/A -   "
4.68, 175.034, 0.00792485, NaN, NaN, NaN, 0.0335714, "- N/A -   "
4.69, 175.506, 0.007938734, NaN, NaN, NaN, 0.0335714, "- N/A -   "
4.7, 175.86, 0.007955394, NaN, NaN, NaN, 0.0335714, "- N/A -   "
4.71, 176.214, 0.007969278, NaN, NaN, NaN, 0.0347922, "- N/A -   "
4.72, 176.567, 0.007985938, NaN, NaN, NaN, 0.0347922, "- N/A -   "
4.73, 176.9212, 0.008002599, NaN, NaN, NaN, 0.03601294, "- N/A -   "
4.74, 177.393, 0.008016483, NaN, NaN, NaN, 0.03601294, "- N/A -   "
4.75, 177.747, 0.008033143, NaN, NaN, NaN, 0.03601294, "- N/A -   "
4.76, 178.1007, 0.008049804, NaN, NaN, NaN, 0.0372337, "- N/A -   "
4.77, 178.455, 0.008063687, NaN, NaN, NaN, 0.0384545, "- N/A -   "
4.78, 178.926, 0.008077571, NaN, NaN, NaN, 0.0384545, "- N/A -   "
4.79, 179.162, 0.008094232, NaN, NaN, NaN, 0.0384545, "- N/A -   "
4.8, 179.634, 0.008110892, NaN, NaN, NaN, 0.0384545, "- N/A -   "
4.81, 180.106, 0.00813033, NaN, NaN, NaN, 0.0384545, "- N/A -   "
4.82, 180.342, 0.008144213, NaN, NaN, NaN, 0.0384545, "- N/A -   "
4.83, 180.813, 0.008160874, NaN, NaN, NaN, 0.0384545, "- N/A -   "
4.84, 181.285, 0.008177535, NaN, NaN, NaN, 0.0384545, "- N/A -   "
4.85, 181.639, 0.008194195, NaN, NaN, NaN, 0.0384545, "- N/A -   "
4.86, 181.993, 0.008213632, NaN, NaN, NaN, 0.0384545, "- N/A -   "
4.87, 182.465, 0.008227516, NaN, NaN, NaN, 0.0384545, "- N/A -   "
4.88, 182.819, 0.008241399, NaN, NaN, NaN, 0.0396753, "- N/A -   "
4.89, 183.172, 0.008258061, NaN, NaN, NaN, 0.0396753, "- N/A -   "
4.9, 183.526, 0.008271944, NaN, NaN, NaN, 0.04089605, "- N/A -   "
4.91, 183.8801, 0.008288604, NaN, NaN, NaN, 0.04089605, "- N/A -   "
4.92, 184.234, 0.008302488, NaN, NaN, NaN, 0.04211683, "- N/A -   "
4.93, 184.5878, 0.008319149, NaN, NaN, NaN, 0.04211683, "- N/A -   "
4.94, 184.942, 0.008335809, NaN, NaN, NaN, 0.04211683, "- N/A -   "
4.95, 185.295, 0.00835247, NaN, NaN, NaN, 0.0433376, "- N/A -   "
4.96, 185.767, 0.00836913, NaN, NaN, NaN, 0.0433376, "- N/A -   "
4.97, 186.121, 0.00838579, NaN, NaN, NaN, 0.0433376, "- N/A -   "
4.98, 186.475, 0.008399675, NaN, NaN, NaN, 0.0433376, "- N/A -   "
4.99, 186.947, 0.008416335, NaN, NaN, NaN, 0.0433376, "- N/A -   "
5, 187.301, 0.008433, NaN, NaN, NaN, 0.0433376, "- N/A -   "
5.01, 187.772, 0.008449656, NaN, NaN, NaN, 0.0433376, "- N/A -   "
5.02, 188.008, 0.008466316, NaN, NaN, NaN, 0.0433376, "- N/A -   "
5.03, 188.48, 0.008482977, NaN, NaN, NaN, 0.0433376, "- N/A -   "
5.04, 188.952, 0.008502414, NaN, NaN, NaN, 0.0433376, "- N/A -   "
5.05, 189.424, 0.008519075, NaN, NaN, NaN, 0.04211683, "- N/A -   "
5.06, 189.777, 0.00853851, NaN, NaN, NaN, 0.04089605, "- N/A -   "
5.07, 190.367, 0.008557949, NaN, NaN, NaN, 0.0396753, "- N/A -   "
5.08, 190.721, 0.008577387, NaN, NaN, NaN, 0.0384545, "- N/A -   "
5.09, 191.311, 0.008596824, NaN, NaN, NaN, 0.0372337, "- N/A -   "
5.1, 191.7826, 0.008619037, NaN, NaN, NaN, 0.0347922, "- N/A -   "
5.11, 192.254, 0.008635699, NaN, NaN, NaN, 0.0347922, "- N/A -   "
5.12, 192.608, 0.00865514, NaN, NaN, NaN, 0.0347922, "- N/A -   "
5.13, 193.08, 0.008671796, NaN, NaN, NaN, 0.0335714, "- N/A -   "
5.14, 193.5518, 0.008691234, NaN, NaN, NaN, 0.0335714, "- N/A -   "
5.15, 194.024, 0.008707894, NaN, NaN, NaN, 0.0323506, "- N/A -   "
5.16, 194.495, 0.008727332, NaN, NaN, NaN, 0.03112983, "- N/A -   "
5.17, 194.731, 0.008743991, NaN, NaN, NaN, 0.03112983, "- N/A -   "
5.18, 195.203, 0.008763429, NaN, NaN, NaN, 0.0299091, "- N/A -   "
5.19, 195.675, 0.008780089, NaN, NaN, NaN, 0.0299091, "- N/A -   "
5.2, 196.0287, 0.008799527, NaN, NaN, NaN, 0.0299091, "- N/A -   "
5.21, 196.383, 0.008816187, NaN, NaN, NaN, 0.0286883, "- N/A -   "
5.22, 196.854, 0.00883007, NaN, NaN, NaN, 0.0299091, "- N/A -   "
5.23, 197.09, 0.008846732, NaN, NaN, NaN, 0.03112983, "- N/A -   "
5.24, 197.562, 0.008860615, NaN, NaN, NaN, 0.03112983, "- N/A -   "
5.25, 197.916, 0.00887728, NaN, NaN, NaN, 0.0323506, "- N/A -   "
5.26, 198.152, 0.00889116, NaN, NaN, NaN, 0.0323506, "- N/A -   "
5.27, 198.624, 0.00890782, NaN, NaN, NaN, 0.0323506, "- N/A -   "
5.28, 198.977, 0.008921703, NaN, NaN, NaN, 0.0335714, "- N/A -   "
5.29, 199.213, 0.008938365, NaN, NaN, NaN, 0.0347922, "- N/A -   "
5.3, 199.685, 0.008952248, NaN, NaN, NaN, 0.0347922, "- N/A -   "
5.31, 200.039, 0.008968908, NaN, NaN, NaN, 0.0347922, "- N/A -   "
5.32, 200.393, 0.008985569, NaN, NaN, NaN, 0.0347922, "- N/A -   "
5.33, 200.629, 0.009002229, NaN, NaN, NaN, 0.03601294, "- N/A -   "
5.34, 201.1, 0.009016113, NaN, NaN, NaN, 0.03601294, "- N/A -   "
5.35, 201.572, 0.009035551, NaN, NaN, NaN, 0.03601294, "- N/A -   "
5.36, 201.926, 0.00905221, NaN, NaN, NaN, 0.0347922, "- N/A -   "
5.37, 202.398, 0.009068872, NaN, NaN, NaN, 0.0347922, "- N/A -   "
5.38, 202.7517, 0.009088309, NaN, NaN, NaN, 0.0335714, "- N/A -   "
5.39, 203.341, 0.00910497, NaN, NaN, NaN, 0.0335714, "- N/A -   "
5.4, 203.695, 0.009124407, NaN, NaN, NaN, 0.0335714, "- N/A -   "
5.41, 204.167, 0.009141067, NaN, NaN, NaN, 0.0323506, "- N/A -   "
5.42, 204.521, 0.00915773, NaN, NaN, NaN, 0.0323506, "- N/A -   "
5.43, 204.875, 0.009177165, NaN, NaN, NaN, 0.0323506, "- N/A -   "
5.44, 205.111, 0.009191048, NaN, NaN, NaN, 0.0323506, "- N/A -   "
5.45, 205.582, 0.009207709, NaN, NaN, NaN, 0.0323506, "- N/A -   "
5.46, 205.936, 0.009221593, NaN, NaN, NaN, 0.0335714, "- N/A -   "
5.47, 206.29, 0.009238253, NaN, NaN, NaN, 0.0335714, "- N/A -   "
5.48, 206.526, 0.009252137, NaN, NaN, NaN, 0.0347922, "- N/A -   "
5.49, 206.9978, 0.009268798, NaN, NaN, NaN, 0.0347922, "- N/A -   "
5.5, 207.2337, 0.009285458, NaN, NaN, NaN, 0.0347922, "- N/A -   "
5.51, 207.705, 0.009299342, NaN, NaN, NaN, 0.03601294, "- N/A -   "
5.52, 208.059, 0.009316003, NaN, NaN, NaN, 0.03601294, "- N/A -   "
5.53, 208.4132, 0.009329886, NaN, NaN, NaN, 0.0372337, "- N/A -   "
5.54, 208.649, 0.009346547, NaN, NaN, NaN, 0.0372337, "- N/A -   "
5.55, 209.121, 0.009360431, NaN, NaN, NaN, 0.0384545, "- N/A -   "
5.56, 209.475, 0.009377091, NaN, NaN, NaN, 0.0384545, "- N/A -   "
5.57, 209.711, 0.009390975, NaN, NaN, NaN, 0.0396753, "- N/A -   "
5.58, 210.064, 0.009404859, NaN, NaN, NaN, 0.04089605, "- N/A -   "
5.59, 210.418, 0.009421519, NaN, NaN, NaN, 0.04089605, "- N/A -   "
5.6, 210.772, 0.009435403, NaN, NaN, NaN, 0.04211683, "- N/A -   "
5.61, 211.126, 0.009452064, NaN, NaN, NaN, 0.0433376, "- N/A -   "
5.62, 211.362, 0.009468724, NaN, NaN, NaN, 0.0433376, "- N/A -   "
5.63, 211.834, 0.009485384, NaN, NaN, NaN, 0.04211683, "- N/A -   "
5.64, 212.4234, 0.009502045, NaN, NaN, NaN, 0.04211683, "- N/A -   "
5.65, 212.777, 0.00952148, NaN, NaN, NaN, 0.04089605, "- N/A -   "
5.66, 213.131, 0.009538143, NaN, NaN, NaN, 0.04089605, "- N/A -   "
5.67, 213.485, 0.009554803, NaN, NaN, NaN, 0.04089605, "- N/A -   "
5.68, 213.957, 0.009571464, NaN, NaN, NaN, 0.04089605, "- N/A -   "
5.69, 214.311, 0.009585347, NaN, NaN, NaN, 0.04211683, "- N/A -   "
5.7, 214.546, 0.009602008, NaN, NaN, NaN, 0.04211683, "- N/A -   "
5.71, 215.018, 0.009618668, NaN, NaN, NaN, 0.04211683, "- N/A -   "
5.72, 215.372, 0.009635329, NaN, NaN, NaN, 0.04211683, "- N/A -   "
5.73, 215.726, 0.00965199, NaN, NaN, NaN, 0.04211683, "- N/A -   "
5.74, 216.08, 0.00966865, NaN, NaN, NaN, 0.04211683, "- N/A -   "
5.75, 216.552, 0.009685311, NaN, NaN, NaN, 0.04211683, "- N/A -   "
5.76, 217.023, 0.009704748, NaN, NaN, NaN, 0.04089605, "- N/A -   "
5.77, 217.377, 0.009721409, NaN, NaN, NaN, 0.04089605, "- N/A -   "
5.78, 217.731, 0.009740846, NaN, NaN, NaN, 0.04089605, "- N/A -   "
5.79, 218.085, 0.009757506, NaN, NaN, NaN, 0.04089605, "- N/A -   "
5.8, 218.557, 0.009774166, NaN, NaN, NaN, 0.0396753, "- N/A -   "
5.81, 219.028, 0.009793604, NaN, NaN, NaN, 0.0396753, "- N/A -   "
5.82, 219.3823, 0.009810264, NaN, NaN, NaN, 0.0384545, "- N/A -   "
5.83, 219.736, 0.009826925, NaN, NaN, NaN, 0.0384545, "- N/A -   "
5.84, 220.208, 0.009846362, NaN, NaN, NaN, 0.0372337, "- N/A -   "
5.85, 220.562, 0.009863023, NaN, NaN, NaN, 0.0372337, "- N/A -   "
5.86, 220.916, 0.009879682, NaN, NaN, NaN, 0.0372337, "- N/A -   "
5.87, 221.269, 0.009896343, NaN, NaN, NaN, 0.0372337, "- N/A -   "
5.88, 221.741, 0.009913003, NaN, NaN, NaN, 0.0372337, "- N/A -   "
5.89, 222.095, 0.009929665, NaN, NaN, NaN, 0.0372337, "- N/A -   "
5.9, 222.331, 0.009946326, NaN, NaN, NaN, 0.0384545, "- N/A -   "
5.91, 222.685, 0.009962986, NaN, NaN, NaN, 0.0384545, "- N/A -   "
5.92, 223.157, 0.009979647, NaN, NaN, NaN, 0.0372337, "- N/A -   "
5.93, 223.6284, 0.009996306, NaN, NaN, NaN, 0.0372337, "- N/A -   "
5.94, 223.982, 0.0100157, NaN, NaN, NaN, 0.0372337, "- N/A -   "
5.95, 224.454, 0.0100324, NaN, NaN, NaN, 0.03601294, "- N/A -   "
5.96, 224.808, 0.0100491, NaN, NaN, NaN, 0.03601294, "- N/A -   "
[...]
46.83, -1.65126, 0.07817946, NaN, NaN, NaN, 0.0347922, "- N/A -   "
46.84, -1.65126, 0.07819611, NaN, NaN, NaN, 0.0335714, "- N/A -   "
46.85, -1.76921, 0.0782128, NaN, NaN, NaN, 0.0335714, "- N/A -   "
46.86, -1.65126, 0.07822665, NaN, NaN, NaN, 0.0347922, "- N/A -   "
46.87, -1.65126, 0.0782461, NaN, NaN, NaN, 0.0335714, "- N/A -   "
46.88, -1.65126, 0.0782655, NaN, NaN, NaN, 0.0335714, "- N/A -   "
46.89, -1.65126, 0.07828219, NaN, NaN, NaN, 0.0323506, "- N/A -   "
46.9, -1.65126, 0.0782988, NaN, NaN, NaN, 0.0323506, "- N/A -   "
46.91, -1.65126, 0.07831551, NaN, NaN, NaN, 0.0323506, "- N/A -   "
46.92, -1.65126, 0.07833217, NaN, NaN, NaN, 0.0323506, "- N/A -   "
46.93, -1.65126, 0.07835161, NaN, NaN, NaN, 0.0323506, "- N/A -   "
46.94, -1.65126, 0.07836827, NaN, NaN, NaN, 0.03112983, "- N/A -   "
46.95, -1.65126, 0.07838771, NaN, NaN, NaN, 0.0299091, "- N/A -   "
46.96, -1.65126, 0.07840437, NaN, NaN, NaN, 0.0299091, "- N/A -   "
46.97, -1.76921, 0.07842103, NaN, NaN, NaN, 0.0299091, "- N/A -   "
46.98, -1.65126, 0.0784377, NaN, NaN, NaN, 0.03112983, "- N/A -   "
46.99, -1.65126, 0.0784516, NaN, NaN, NaN, 0.03112983, "- N/A -   "
47, -1.65126, 0.07846823, NaN, NaN, NaN, 0.03112983, "- N/A -   "
47.01, -1.65126, 0.07848489, NaN, NaN, NaN, 0.0323506, "- N/A -   "
47.02, -1.65126, 0.07850156, NaN, NaN, NaN, 0.0323506, "- N/A -   "
47.03, -1.65126, 0.07851543, NaN, NaN, NaN, 0.0323506, "- N/A -   "
47.04, -1.65126, 0.0785321, NaN, NaN, NaN, 0.0323506, "- N/A -   "
47.05, -1.65126, 0.07854875, NaN, NaN, NaN, 0.0335714, "- N/A -   "
47.06, -1.65126, 0.07856542, NaN, NaN, NaN, 0.0323506, "- N/A -   "
47.07, -1.65126, 0.07857931, NaN, NaN, NaN, 0.0335714, "- N/A -   "
47.08, -1.53332, 0.078596, NaN, NaN, NaN, 0.0335714, "- N/A -   "
47.09, -1.65126, 0.0786154, NaN, NaN, NaN, 0.0335714, "- N/A -   "
47.1, -1.65126, 0.0786321, NaN, NaN, NaN, 0.0323506, "- N/A -   "
47.11, -1.65126, 0.07864872, NaN, NaN, NaN, 0.0323506, "- N/A -   "
47.12, -1.65126, 0.07866538, NaN, NaN, NaN, 0.0323506, "- N/A -   "
47.13, -1.65126, 0.07868204, NaN, NaN, NaN, 0.0323506, "- N/A -   "
47.14, -1.65126, 0.0786987, NaN, NaN, NaN, 0.0323506, "- N/A -   "
47.15, -1.65126, 0.07871537, NaN, NaN, NaN, 0.0323506, "- N/A -   "
47.16, -1.65126, 0.07873202, NaN, NaN, NaN, 0.0335714, "- N/A -   "
47.17, -1.65126, 0.07874869, NaN, NaN, NaN, 0.0335714, "- N/A -   "
47.18, -1.65126, 0.07876257, NaN, NaN, NaN, 0.0335714, "- N/A -   "
47.19, -1.65126, 0.07877645, NaN, NaN, NaN, 0.0347922, "- N/A -   "
47.2, -1.65126, 0.07879311, NaN, NaN, NaN, 0.03601294, "- N/A -   "
47.21, -1.65126, 0.078807, NaN, NaN, NaN, 0.03601294, "- N/A -   "
47.22, -1.65126, 0.0788209, NaN, NaN, NaN, 0.0372337, "- N/A -   "
47.23, -1.53332, 0.0788348, NaN, NaN, NaN, 0.0384545, "- N/A -   "
47.24, -1.65126, 0.0788486, NaN, NaN, NaN, 0.0396753, "- N/A -   "
47.25, -1.65126, 0.07886808, NaN, NaN, NaN, 0.0384545, "- N/A -   "
47.26, -1.65126, 0.07888474, NaN, NaN, NaN, 0.0396753, "- N/A -   "
47.27, -1.53332, 0.0789014, NaN, NaN, NaN, 0.0384545, "- N/A -   "
47.28, -1.65126, 0.07891807, NaN, NaN, NaN, 0.0396753, "- N/A -   "
47.29, -1.53332, 0.07893473, NaN, NaN, NaN, 0.0396753, "- N/A -   "
47.3, -1.65126, 0.07894861, NaN, NaN, NaN, 0.0396753, "- N/A -   "
47.31, -1.65126, 0.07896528, NaN, NaN, NaN, 0.04089605, "- N/A -   "
47.32, -1.65126, 0.07897915, NaN, NaN, NaN, 0.04089605, "- N/A -   "
47.33, -1.65126, 0.07899304, NaN, NaN, NaN, 0.04211683, "- N/A -   "
47.34, -1.65126, 0.0790097, NaN, NaN, NaN, 0.04211683, "- N/A -   "
47.35, -1.65126, 0.0790236, NaN, NaN, NaN, 0.0433376, "- N/A -   "
47.36, -1.65126, 0.07903747, NaN, NaN, NaN, 0.0445584, "- N/A -   "
47.37, -1.65126, 0.0790569, NaN, NaN, NaN, 0.0445584, "- N/A -   "
47.38, -1.65126, 0.07907079, NaN, NaN, NaN, 0.0445584, "- N/A -   "
47.39, -1.65126, 0.07909022, NaN, NaN, NaN, 0.0445584, "- N/A -   "
47.4, -1.65126, 0.07910411, NaN, NaN, NaN, 0.0445584, "- N/A -   "
47.41, -1.65126, 0.07912354, NaN, NaN, NaN, 0.0433376, "- N/A -   "
47.42, -1.65126, 0.07914021, NaN, NaN, NaN, 0.0433376, "- N/A -   "
47.43, -1.53332, 0.07915964, NaN, NaN, NaN, 0.04211683, "- N/A -   "
47.44, -1.65126, 0.07917631, NaN, NaN, NaN, 0.04211683, "- N/A -   "
47.45, -1.65126, 0.07919574, NaN, NaN, NaN, 0.04089605, "- N/A -   "
47.46, -1.53332, 0.0792152, NaN, NaN, NaN, 0.0396753, "- N/A -   "
47.47, -1.65126, 0.0792346, NaN, NaN, NaN, 0.0384545, "- N/A -   "
47.48, -1.65126, 0.0792596, NaN, NaN, NaN, 0.03601294, "- N/A -   "
47.49, -1.65126, 0.07927627, NaN, NaN, NaN, 0.0347922, "- N/A -   "
47.5, -1.53332, 0.0792957, NaN, NaN, NaN, 0.0335714, "- N/A -   "
47.51, -1.76921, 0.07931237, NaN, NaN, NaN, 0.0335714, "- N/A -   "
47.52, -1.65126, 0.0793318, NaN, NaN, NaN, 0.0323506, "- N/A -   "
47.53, -1.65126, 0.07934847, NaN, NaN, NaN, 0.0323506, "- N/A -   "
47.54, -1.65126, 0.0793679, NaN, NaN, NaN, 0.03112983, "- N/A -   "
47.55, -1.65126, 0.0793846, NaN, NaN, NaN, 0.03112983, "- N/A -   "
47.56, -1.76921, 0.07939844, NaN, NaN, NaN, 0.0323506, "- N/A -   "
47.57, -1.65126, 0.0794179, NaN, NaN, NaN, 0.0323506, "- N/A -   "
47.58, -1.65126, 0.07943177, NaN, NaN, NaN, 0.0323506, "- N/A -   "
47.59, -1.65126, 0.0794484, NaN, NaN, NaN, 0.0323506, "- N/A -   "
47.6, -1.65126, 0.07946787, NaN, NaN, NaN, 0.03112983, "- N/A -   "
47.61, -1.65126, 0.07948452, NaN, NaN, NaN, 0.03112983, "- N/A -   "
47.62, -1.65126, 0.07950119, NaN, NaN, NaN, 0.03112983, "- N/A -   "
47.63, -1.65126, 0.07951784, NaN, NaN, NaN, 0.03112983, "- N/A -   "
47.64, -1.65126, 0.07953729, NaN, NaN, NaN, 0.0299091, "- N/A -   "
47.65, -1.65126, 0.07955394, NaN, NaN, NaN, 0.0299091, "- N/A -   "
47.66, -1.65126, 0.0795734, NaN, NaN, NaN, 0.0299091, "- N/A -   "
47.67, -1.65126, 0.07959004, NaN, NaN, NaN, 0.0286883, "- N/A -   "
47.68, -1.53332, 0.0796067, NaN, NaN, NaN, 0.0286883, "- N/A -   "
47.69, -1.65126, 0.0796234, NaN, NaN, NaN, 0.0286883, "- N/A -   "
47.7, -1.65126, 0.07964002, NaN, NaN, NaN, 0.0286883, "- N/A -   "
47.71, -1.65126, 0.07965668, NaN, NaN, NaN, 0.0286883, "- N/A -   "
47.72, -1.65126, 0.07967612, NaN, NaN, NaN, 0.0274675, "- N/A -   "
47.73, -1.76921, 0.07969278, NaN, NaN, NaN, 0.0274675, "- N/A -   "
47.74, -1.65126, 0.07970667, NaN, NaN, NaN, 0.0286883, "- N/A -   "
47.75, -1.65126, 0.07972332, NaN, NaN, NaN, 0.0286883, "- N/A -   "
47.76, -1.65126, 0.07973999, NaN, NaN, NaN, 0.0286883, "- N/A -   "
47.77, -1.65126, 0.07975942, NaN, NaN, NaN, 0.0286883, "- N/A -   "
47.78, -1.65126, 0.07977331, NaN, NaN, NaN, 0.0286883, "- N/A -   "
47.79, -1.65126, 0.07979274, NaN, NaN, NaN, 0.0274675, "- N/A -   "
47.8, -1.65126, 0.0798066, NaN, NaN, NaN, 0.0286883, "- N/A -   "
47.81, -1.65126, 0.07982051, NaN, NaN, NaN, 0.0299091, "- N/A -   "
47.82, -1.65126, 0.07983717, NaN, NaN, NaN, 0.0299091, "- N/A -   "
47.83, -1.65126, 0.07985383, NaN, NaN, NaN, 0.0299091, "- N/A -   "
47.84, -1.65126, 0.07986771, NaN, NaN, NaN, 0.03112983, "- N/A -   "
47.85, -1.65126, 0.0798816, NaN, NaN, NaN, 0.0335714, "- N/A -   "
47.86, -1.65126, 0.07989548, NaN, NaN, NaN, 0.0335714, "- N/A -   "
47.87, -1.65126, 0.07990659, NaN, NaN, NaN, 0.03601294, "- N/A -   "
47.88, -1.53332, 0.07992048, NaN, NaN, NaN, 0.0372337, "- N/A -   "
47.89, -1.65126, 0.07993713, NaN, NaN, NaN, 0.0384545, "- N/A -   "
47.9, -1.65126, 0.07994824, NaN, NaN, NaN, 0.0396753, "- N/A -   "
47.91, -1.65126, 0.0799649, NaN, NaN, NaN, 0.0396753, "- N/A -   "
47.92, -1.65126, 0.07997879, NaN, NaN, NaN, 0.04089605, "- N/A -   "
47.93, -1.65126, 0.0799927, NaN, NaN, NaN, 0.04211683, "- N/A -   "
47.94, -1.65126, 0.08000655, NaN, NaN, NaN, 0.0433376, "- N/A -   "
47.95, -1.53332, 0.0800204, NaN, NaN, NaN, 0.04577916, "- N/A -   "
47.96, -1.53332, 0.0800371, NaN, NaN, NaN, 0.04577916, "- N/A -   "
47.97, -1.65126, 0.08005098, NaN, NaN, NaN, 0.04577916, "- N/A -   "
47.98, -1.65126, 0.08006764, NaN, NaN, NaN, 0.04699994, "- N/A -   "
47.99, -1.65126, 0.0800843, NaN, NaN, NaN, 0.04577916, "- N/A -   "
48, -1.65126, 0.08010097, NaN, NaN, NaN, 0.04577916, "- N/A -   "
48.01, -1.65126, 0.08011762, NaN, NaN, NaN, 0.04577916, "- N/A -   "
48.02, -1.65126, 0.08013429, NaN, NaN, NaN, 0.04577916, "- N/A -   "
48.03, -1.65126, 0.08015094, NaN, NaN, NaN, 0.04577916, "- N/A -   "
48.04, -1.65126, 0.0801704, NaN, NaN, NaN, 0.0445584, "- N/A -   "
48.05, -1.65126, 0.08018982, NaN, NaN, NaN, 0.0445584, "- N/A -   "
48.06, -1.53332, 0.08020648, NaN, NaN, NaN, 0.0433376, "- N/A -   "
48.07, -1.65126, 0.0802287, NaN, NaN, NaN, 0.04211683, "- N/A -   "
48.08, -1.65126, 0.08024813, NaN, NaN, NaN, 0.04089605, "- N/A -   "
48.09, -1.65126, 0.08026479, NaN, NaN, NaN, 0.0396753, "- N/A -   "
48.1, -1.65126, 0.08028423, NaN, NaN, NaN, 0.0384545, "- N/A -   "
48.11, -1.65126, 0.08030089, NaN, NaN, NaN, 0.0384545, "- N/A -   "
48.12, -1.65126, 0.08032033, NaN, NaN, NaN, 0.0372337, "- N/A -   "
48.13, -1.53332, 0.08033977, NaN, NaN, NaN, 0.03601294, "- N/A -   "
48.14, -1.65126, 0.08035643, NaN, NaN, NaN, 0.03601294, "- N/A -   "
48.15, -1.65126, 0.0803759, NaN, NaN, NaN, 0.03601294, "- N/A -   "
48.16, -1.65126, 0.0803925, NaN, NaN, NaN, 0.0347922, "- N/A -   "
48.17, -1.65126, 0.0804092, NaN, NaN, NaN, 0.0347922, "- N/A -   "
48.18, -1.65126, 0.08042584, NaN, NaN, NaN, 0.0347922, "- N/A -   "
48.19, -1.65126, 0.0804425, NaN, NaN, NaN, 0.0347922, "- N/A -   "
48.2, -1.53332, 0.08045917, NaN, NaN, NaN, 0.0347922, "- N/A -   "
48.21, -1.65126, 0.08047582, NaN, NaN, NaN, 0.0347922, "- N/A -   "
48.22, -1.53332, 0.08049249, NaN, NaN, NaN, 0.03601294, "- N/A -   "
48.23, -1.53332, 0.08050914, NaN, NaN, NaN, 0.0347922, "- N/A -   "
48.24, -1.65126, 0.08052859, NaN, NaN, NaN, 0.0347922, "- N/A -   "
48.25, -1.53332, 0.08054524, NaN, NaN, NaN, 0.0335714, "- N/A -   "
48.26, -1.65126, 0.0805647, NaN, NaN, NaN, 0.0323506, "- N/A -   "
48.27, -1.65126, 0.08058412, NaN, NaN, NaN, 0.0323506, "- N/A -   "
48.28, -1.65126, 0.08060078, NaN, NaN, NaN, 0.03112983, "- N/A -   "
48.29, -1.53332, 0.0806202, NaN, NaN, NaN, 0.0299091, "- N/A -   "
48.3, -1.53332, 0.08063688, NaN, NaN, NaN, 0.0299091, "- N/A -   "
48.31, -1.53332, 0.0806508, NaN, NaN, NaN, 0.03112983, "- N/A -   "
48.32, -1.53332, 0.0806702, NaN, NaN, NaN, 0.0299091, "- N/A -   "
48.33, -1.53332, 0.08068685, NaN, NaN, NaN, 0.0299091, "- N/A -   "
48.34, -1.53332, 0.0807063, NaN, NaN, NaN, 0.0299091, "- N/A -   "
48.35, -1.53332, 0.08072295, NaN, NaN, NaN, 0.0286883, "- N/A -   "
48.36, -1.53332, 0.0807424, NaN, NaN, NaN, 0.0286883, "- N/A -   "
48.37, -1.53332, 0.08075905, NaN, NaN, NaN, 0.0286883, "- N/A -   "
48.38, -1.53332, 0.0807757, NaN, NaN, NaN, 0.0274675, "- N/A -   "
48.39, -1.65126, 0.0807924, NaN, NaN, NaN, 0.0274675, "- N/A -   "
48.4, -1.65126, 0.08081181, NaN, NaN, NaN, 0.0262467, "- N/A -   "
48.41, -1.65126, 0.0808257, NaN, NaN, NaN, 0.0274675, "- N/A -   "
48.42, -1.65126, 0.08084235, NaN, NaN, NaN, 0.0286883, "- N/A -   "
48.43, -1.53332, 0.0808562, NaN, NaN, NaN, 0.0286883, "- N/A -   "
48.44, -1.65126, 0.0808729, NaN, NaN, NaN, 0.0286883, "- N/A -   "
48.45, -1.53332, 0.08088957, NaN, NaN, NaN, 0.0286883, "- N/A -   "
48.46, -1.65126, 0.08090344, NaN, NaN, NaN, 0.0299091, "- N/A -   "
48.47, -1.53332, 0.08092011, NaN, NaN, NaN, 0.0299091, "- N/A -   "
48.48, -1.65126, 0.08093399, NaN, NaN, NaN, 0.03112983, "- N/A -   "
48.49, -1.53332, 0.08095065, NaN, NaN, NaN, 0.03112983, "- N/A -   "
48.5, -1.65126, 0.08096453, NaN, NaN, NaN, 0.0323506, "- N/A -   "
48.51, -1.65126, 0.0809812, NaN, NaN, NaN, 0.0335714, "- N/A -   "
48.52, -1.53332, 0.08099508, NaN, NaN, NaN, 0.0335714, "- N/A -   "
48.53, -1.65126, 0.081009, NaN, NaN, NaN, 0.03601294, "- N/A -   "
48.54, -1.53332, 0.08102284, NaN, NaN, NaN, 0.03601294, "- N/A -   "
48.55, -1.65126, 0.0810367, NaN, NaN, NaN, 0.0372337, "- N/A -   "
48.56, -1.53332, 0.08105061, NaN, NaN, NaN, 0.0384545, "- N/A -   "
48.57, -1.65126, 0.0810645, NaN, NaN, NaN, 0.0396753, "- N/A -   "
48.58, -1.53332, 0.08108115, NaN, NaN, NaN, 0.0396753, "- N/A -   "
48.59, -1.53332, 0.08109504, NaN, NaN, NaN, 0.04089605, "- N/A -   "
48.6, -1.53332, 0.0811117, NaN, NaN, NaN, 0.04089605, "- N/A -   "
48.61, -1.65126, 0.08112837, NaN, NaN, NaN, 0.04211683, "- N/A -   "
48.62, -1.53332, 0.08114224, NaN, NaN, NaN, 0.04211683, "- N/A -   "
48.63, -1.65126, 0.0811617, NaN, NaN, NaN, 0.04211683, "- N/A -   "
48.64, -1.53332, 0.08117834, NaN, NaN, NaN, 0.04211683, "- N/A -   "
48.65, -1.53332, 0.0811922, NaN, NaN, NaN, 0.04211683, "- N/A -   "
48.66, -1.65126, 0.08120889, NaN, NaN, NaN, 0.04211683, "- N/A -   "
48.67, -1.53332, 0.0812255, NaN, NaN, NaN, 0.04211683, "- N/A -   "
48.68, -1.65126, 0.08124221, NaN, NaN, NaN, 0.04211683, "- N/A -   "
48.69, -1.65126, 0.08125887, NaN, NaN, NaN, 0.04211683, "- N/A -   "
48.7, -1.65126, 0.08127275, NaN, NaN, NaN, 0.0433376, "- N/A -   "
48.71, -1.53332, 0.08129219, NaN, NaN, NaN, 0.0433376, "- N/A -   "
48.72, -1.65126, 0.08130885, NaN, NaN, NaN, 0.0433376, "- N/A -   "
48.73, -1.53332, 0.08132551, NaN, NaN, NaN, 0.04211683, "- N/A -   "
48.74, -1.65126, 0.0813422, NaN, NaN, NaN, 0.04211683, "- N/A -   "
48.75, -1.65126, 0.08136161, NaN, NaN, NaN, 0.04211683, "- N/A -   "
48.76, -1.65126, 0.08137827, NaN, NaN, NaN, 0.04089605, "- N/A -   "
48.77, -1.53332, 0.0813977, NaN, NaN, NaN, 0.0396753, "- N/A -   "
48.78, -1.53332, 0.08141437, NaN, NaN, NaN, 0.0396753, "- N/A -   "
48.79, -1.53332, 0.081431, NaN, NaN, NaN, 0.0396753, "- N/A -   "
48.8, -1.53332, 0.08145047, NaN, NaN, NaN, 0.0396753, "- N/A -   "
48.81, -1.53332, 0.0814699, NaN, NaN, NaN, 0.0384545, "- N/A -   "
48.82, -1.53332, 0.08148657, NaN, NaN, NaN, 0.0372337, "- N/A -   "
48.83, -1.53332, 0.081506, NaN, NaN, NaN, 0.0372337, "- N/A -   "
48.84, -1.65126, 0.08152544, NaN, NaN, NaN, 0.03601294, "- N/A -   "
48.85, -1.53332, 0.0815449, NaN, NaN, NaN, 0.0347922, "- N/A -   "
48.86, -1.53332, 0.0815643, NaN, NaN, NaN, 0.0323506, "- N/A -   "
48.87, -1.65126, 0.081581, NaN, NaN, NaN, 0.0335714, "- N/A -   "
48.88, -1.65126, 0.08160041, NaN, NaN, NaN, 0.0323506, "- N/A -   "
48.89, -1.65126, 0.0816198, NaN, NaN, NaN, 0.0323506, "- N/A -   "
48.9, -1.65126, 0.08163651, NaN, NaN, NaN, 0.03112983, "- N/A -   "
48.91, -1.53332, 0.08165317, NaN, NaN, NaN, 0.03112983, "- N/A -   "
48.92, -1.65126, 0.08166983, NaN, NaN, NaN, 0.03112983, "- N/A -   "
48.93, -1.53332, 0.08168649, NaN, NaN, NaN, 0.03112983, "- N/A -   "
48.94, -1.65126, 0.08170315, NaN, NaN, NaN, 0.0323506, "- N/A -   "
48.95, -1.65126, 0.08171703, NaN, NaN, NaN, 0.0323506, "- N/A -   "
48.96, -1.53332, 0.0817337, NaN, NaN, NaN, 0.0323506, "- N/A -   "
48.97, -1.53332, 0.08175035, NaN, NaN, NaN, 0.0323506, "- N/A -   "
48.98, -1.53332, 0.081767, NaN, NaN, NaN, 0.0323506, "- N/A -   "
48.99, -1.53332, 0.0817837, NaN, NaN, NaN, 0.0323506, "- N/A -   "
49, -1.65126, 0.0818003, NaN, NaN, NaN, 0.0323506, "- N/A -   "
49.01, -1.53332, 0.08181699, NaN, NaN, NaN, 0.0323506, "- N/A -   "
49.02, -1.65126, 0.08183365, NaN, NaN, NaN, 0.0323506, "- N/A -   "
49.03, -1.65126, 0.08185309, NaN, NaN, NaN, 0.03112983, "- N/A -   "
49.04, -1.53332, 0.08186975, NaN, NaN, NaN, 0.03112983, "- N/A -   "
49.05, -1.65126, 0.08188364, NaN, NaN, NaN, 0.0323506, "- N/A -   "
49.06, -1.65126, 0.0819003, NaN, NaN, NaN, 0.0323506, "- N/A -   "
49.07, -1.65126, 0.081917, NaN, NaN, NaN, 0.0323506, "- N/A -   "
49.08, -1.53332, 0.08193084, NaN, NaN, NaN, 0.0335714, "- N/A -   "
49.09, -1.53332, 0.0819475, NaN, NaN, NaN, 0.0347922, "- N/A -   "
49.1, -1.53332, 0.0819614, NaN, NaN, NaN, 0.0347922, "- N/A -   "
49.11, -1.65126, 0.081978, NaN, NaN, NaN, 0.0347922, "- N/A -   "
49.12, -1.53332, 0.08199193, NaN, NaN, NaN, 0.03601294, "- N/A -   "
49.13, -1.65126, 0.08200859, NaN, NaN, NaN, 0.03601294, "- N/A -   "
49.14, -1.53332, 0.08202525, NaN, NaN, NaN, 0.03601294, "- N/A -   "
49.15, -1.65126, 0.08204191, NaN, NaN, NaN, 0.03601294, "- N/A -   "
49.16, -1.53332, 0.0820558, NaN, NaN, NaN, 0.0372337, "- N/A -   "
49.17, -1.53332, 0.08207523, NaN, NaN, NaN, 0.03601294, "- N/A -   "
49.18, -1.53332, 0.0820919, NaN, NaN, NaN, 0.03601294, "- N/A -   "
49.19, -1.65126, 0.08211133, NaN, NaN, NaN, 0.03601294, "- N/A -   "
49.2, -1.53332, 0.08212522, NaN, NaN, NaN, 0.03601294, "- N/A -   "
49.21, -1.65126, 0.0821419, NaN, NaN, NaN, 0.03601294, "- N/A -   "
49.22, -1.53332, 0.0821585, NaN, NaN, NaN, 0.03601294, "- N/A -   "
49.23, -1.65126, 0.0821752, NaN, NaN, NaN, 0.0372337, "- N/A -   "
49.24, -1.53332, 0.08218908, NaN, NaN, NaN, 0.0372337, "- N/A -   "
49.25, -1.65126, 0.08220297, NaN, NaN, NaN, 0.0384545, "- N/A -   "
49.26, -1.65126, 0.0822168, NaN, NaN, NaN, 0.0396753, "- N/A -   "
49.27, -1.53332, 0.08223351, NaN, NaN, NaN, 0.0396753, "- N/A -   "
49.28, -1.65126, 0.08225016, NaN, NaN, NaN, 0.04089605, "- N/A -   "
49.29, -1.53332, 0.08226405, NaN, NaN, NaN, 0.04089605, "- N/A -   "
49.3, -1.53332, 0.08227793, NaN, NaN, NaN, 0.04211683, "- N/A -   "
49.31, -1.53332, 0.0822946, NaN, NaN, NaN, 0.04211683, "- N/A -   "
49.32, -1.65126, 0.0823113, NaN, NaN, NaN, 0.0433376, "- N/A -   "
49.33, -1.53332, 0.08232514, NaN, NaN, NaN, 0.0433376, "- N/A -   "
49.34, -1.53332, 0.082339, NaN, NaN, NaN, 0.0445584, "- N/A -   "
49.35, -1.53332, 0.0823557, NaN, NaN, NaN, 0.0445584, "- N/A -   "
49.36, -1.65126, 0.0823723, NaN, NaN, NaN, 0.0445584, "- N/A -   "
49.37, -1.53332, 0.082389, NaN, NaN, NaN, 0.0445584, "- N/A -   "
49.38, -1.53332, 0.08240567, NaN, NaN, NaN, 0.04577916, "- N/A -   "
49.39, -1.65126, 0.08242232, NaN, NaN, NaN, 0.0445584, "- N/A -   "
49.4, -1.65126, 0.08243899, NaN, NaN, NaN, 0.0445584, "- N/A -   "
49.41, -1.53332, 0.0824612, NaN, NaN, NaN, 0.0433376, "- N/A -   "
49.42, -1.53332, 0.08248064, NaN, NaN, NaN, 0.04211683, "- N/A -   "
49.43, -1.53332, 0.08250008, NaN, NaN, NaN, 0.0396753, "- N/A -   "
49.44, -1.65126, 0.08251952, NaN, NaN, NaN, 0.0384545, "- N/A -   "
49.45, -1.65126, 0.08253895, NaN, NaN, NaN, 0.0372337, "- N/A -   "
49.46, -1.65126, 0.08256116, NaN, NaN, NaN, 0.03601294, "- N/A -   "
49.47, -1.53332, 0.0825806, NaN, NaN, NaN, 0.0335714, "- N/A -   "
49.48, -1.65126, 0.0825973, NaN, NaN, NaN, 0.0335714, "- N/A -   "
49.49, -1.53332, 0.0826167, NaN, NaN, NaN, 0.0335714, "- N/A -   "
49.5, -1.65126, 0.0826334, NaN, NaN, NaN, 0.0323506, "- N/A -   "
49.51, -1.53332, 0.0826528, NaN, NaN, NaN, 0.0323506, "- N/A -   "
49.52, -1.53332, 0.08266945, NaN, NaN, NaN, 0.03112983, "- N/A -   "
49.53, -1.53332, 0.0826889, NaN, NaN, NaN, 0.03112983, "- N/A -   "
49.54, -1.53332, 0.08270555, NaN, NaN, NaN, 0.0299091, "- N/A -   "
49.55, -1.53332, 0.082725, NaN, NaN, NaN, 0.0286883, "- N/A -   "
49.56, -1.53332, 0.08274165, NaN, NaN, NaN, 0.0286883, "- N/A -   "
49.57, -1.65126, 0.0827583, NaN, NaN, NaN, 0.0286883, "- N/A -   "
49.58, -1.65126, 0.0827722, NaN, NaN, NaN, 0.03112983, "- N/A -   "
49.59, -1.53332, 0.08278608, NaN, NaN, NaN, 0.03112983, "- N/A -   "
49.6, -1.65126, 0.08279997, NaN, NaN, NaN, 0.0335714, "- N/A -   "
49.61, -1.53332, 0.0828138, NaN, NaN, NaN, 0.0335714, "- N/A -   "
49.62, -1.65126, 0.08283051, NaN, NaN, NaN, 0.0347922, "- N/A -   "
49.63, -1.53332, 0.0828444, NaN, NaN, NaN, 0.0347922, "- N/A -   "
49.64, -1.53332, 0.08286105, NaN, NaN, NaN, 0.0347922, "- N/A -   "
49.65, -1.65126, 0.08287494, NaN, NaN, NaN, 0.03601294, "- N/A -   "
49.66, -1.53332, 0.0828916, NaN, NaN, NaN, 0.03601294, "- N/A -   "
49.67, -1.53332, 0.0829083, NaN, NaN, NaN, 0.0372337, "- N/A -   "
49.68, -1.53332, 0.08292214, NaN, NaN, NaN, 0.0384545, "- N/A -   "
49.69, -1.65126, 0.082936, NaN, NaN, NaN, 0.0384545, "- N/A -   "
49.7, -1.53332, 0.0829527, NaN, NaN, NaN, 0.0384545, "- N/A -   "
49.71, -1.53332, 0.0829693, NaN, NaN, NaN, 0.0384545, "- N/A -   "
49.72, -1.65126, 0.08298878, NaN, NaN, NaN, 0.0384545, "- N/A -   "
49.73, -1.53332, 0.08300544, NaN, NaN, NaN, 0.0372337, "- N/A -   "
49.74, -1.65126, 0.08302488, NaN, NaN, NaN, 0.03601294, "- N/A -   "
49.75, -1.65126, 0.08304432, NaN, NaN, NaN, 0.0347922, "- N/A -   "
49.76, -1.65126, 0.08306375, NaN, NaN, NaN, 0.0335714, "- N/A -   "
49.768, -1.53332, 0.08307764, NaN, NaN, NaN, 0.0335714, "- N/A -   "