File: 2_Tensile_Data/Hamel_ForceTest_Bolt6_Test6.csv
Time, Load (lb), Position (in), AxialStrain (in), TransverseStrain (in), Auxiliary (), Control Out (V), Stress (psi)
0.0, 1.06153, 0.0, NaN, NaN, NaN, 0.09949338, "- N/A -   "
0.01, 1.06153, 2.77675e-05, NaN, NaN, NaN, 0.105597, "- N/A -   "
0.02, 1.17947, 6.108854E-5, NaN, NaN, NaN, 0.105597, "- N/A -   "
0.03, 1.41537, 9.16328e-05, NaN, NaN, NaN, 0.0982726, "- N/A -   "
0.04, 1.53332, 0.000122177, NaN, NaN, NaN, 0.09216871, "- N/A -   "
0.05, 1.53332, 1.499446E-4, NaN, NaN, NaN, 0.0872856, "- N/A -   "
0.06, 1.65126, 0.000174935, NaN, NaN, NaN, 0.08362327, "- N/A -   "
0.07, 1.76921, 0.000199926, NaN, NaN, NaN, 0.08118171, "- N/A -   "
0.08, 1.76921, 0.00022214, NaN, NaN, NaN, 0.07751938, "- N/A -   "
0.09, 1.88716, 2.471309E-4, NaN, NaN, NaN, 0.0750778, "- N/A -   "
0.1, 2.005107, 0.000266568, NaN, NaN, NaN, 0.07263627, "- N/A -   "
0.11, 2.12305, 0.000288782, NaN, NaN, NaN, 0.07141549, "- N/A -   "
0.12, 2.241, 3.109962E-4, NaN, NaN, NaN, 0.0689739, "- N/A -   "
0.13, 2.12305, 0.000327657, NaN, NaN, NaN, 0.06775316, "- N/A -   "
0.14, 2.241, 0.000352647, NaN, NaN, NaN, 0.0640908, "- N/A -   "
0.15, 2.35895, 3.748615E-4, NaN, NaN, NaN, 0.06164927, "- N/A -   "
0.16, 2.476897, 0.000394299, NaN, NaN, NaN, 0.0604285, "- N/A -   "
0.17, 2.59484, 4.13736E-4, NaN, NaN, NaN, 0.0592077, "- N/A -   "
0.18, 2.59484, 0.00043595, NaN, NaN, NaN, 0.05676616, "- N/A -   "
0.19, 2.59484, 0.000458164, NaN, NaN, NaN, 0.0543246, "- N/A -   "
0.2, 2.712792, 4.776013E-4, NaN, NaN, NaN, 0.0531038, "- N/A -   "
0.21, 2.83074, 0.000499815, NaN, NaN, NaN, 0.05188305, "- N/A -   "
0.22, 2.83074, 5.192526E-4, NaN, NaN, NaN, 0.05066227, "- N/A -   "
0.23, 2.94869, 5.414666E-4, NaN, NaN, NaN, 0.0482207, "- N/A -   "
0.24, 2.94869, 5.636806E-4, NaN, NaN, NaN, 0.04577916, "- N/A -   "
0.25, 2.94869, 5.831179E-4, NaN, NaN, NaN, 0.0433376, "- N/A -   "
0.26, 3.06663, 5.997784E-4, NaN, NaN, NaN, 0.0433376, "- N/A -   "
0.27, 3.18458, 6.219924E-4, NaN, NaN, NaN, 0.04211683, "- N/A -   "
0.28, 3.18458, 6.414297E-4, NaN, NaN, NaN, 0.04089605, "- N/A -   "
0.29, 3.30253, 6.608669E-4, NaN, NaN, NaN, 0.0396753, "- N/A -   "
0.3, 3.30253, 0.000677527, NaN, NaN, NaN, 0.0384545, "- N/A -   "
0.31, 3.42048, 0.000694188, NaN, NaN, NaN, 0.0384545, "- N/A -   "
0.32, 3.42048, 7.136252E-4, NaN, NaN, NaN, 0.0384545, "- N/A -   "
0.33, 3.53842, 7.302857E-4, NaN, NaN, NaN, 0.0384545, "- N/A -   "
0.34, 3.65637, 0.000746946, NaN, NaN, NaN, 0.0372337, "- N/A -   "
0.35, 3.65637, 0.000763607, NaN, NaN, NaN, 0.0372337, "- N/A -   "
0.36, 3.774319, 0.000783044, NaN, NaN, NaN, 0.0372337, "- N/A -   "
0.37, 3.89227, 7.997045E-4, NaN, NaN, NaN, 0.03601294, "- N/A -   "
0.38, 3.89227, 8.16365E-4, NaN, NaN, NaN, 0.03601294, "- N/A -   "
0.39, 4.010214, 0.000833026, NaN, NaN, NaN, 0.03601294, "- N/A -   "
0.4, 4.010214, 0.000849686, NaN, NaN, NaN, 0.03601294, "- N/A -   "
0.41, 4.12816, 8.663466E-4, NaN, NaN, NaN, 0.03601294, "- N/A -   "
0.42, 4.246109, 8.830071E-4, NaN, NaN, NaN, 0.03601294, "- N/A -   "
0.43, 4.246109, 0.000902444, NaN, NaN, NaN, 0.0347922, "- N/A -   "
0.44, 4.36406, 9.218816E-4, NaN, NaN, NaN, 0.0335714, "- N/A -   "
0.45, 4.36406, 0.000941319, NaN, NaN, NaN, 0.0323506, "- N/A -   "
0.46, 4.482, 9.635329E-4, NaN, NaN, NaN, 0.03112983, "- N/A -   "
0.47, 4.59995, 9.801934E-4, NaN, NaN, NaN, 0.0299091, "- N/A -   "
0.48, 4.59995, 9.996307E-4, NaN, NaN, NaN, 0.0299091, "- N/A -   "
0.49, 4.717899, 0.00101629, NaN, NaN, NaN, 0.0299091, "- N/A -   "
0.5, 4.83585, 0.00103295, NaN, NaN, NaN, 0.0286883, "- N/A -   "
0.51, 4.953794, 0.00104961, NaN, NaN, NaN, 0.0286883, "- N/A -   "
0.52, 5.071741, 0.00106627, NaN, NaN, NaN, 0.0286883, "- N/A -   "
0.53, 5.071741, 0.00108293, NaN, NaN, NaN, 0.0286883, "- N/A -   "
0.54, 5.071741, 0.001096817, NaN, NaN, NaN, 0.0299091, "- N/A -   "
0.55, 5.18969, 0.00111348, NaN, NaN, NaN, 0.0299091, "- N/A -   "
0.56, 5.18969, 0.001130138, NaN, NaN, NaN, 0.03112983, "- N/A -   "
0.57, 5.307636, 0.00114402, NaN, NaN, NaN, 0.03112983, "- N/A -   "
0.58, 5.307636, 0.00116068, NaN, NaN, NaN, 0.0323506, "- N/A -   "
0.59, 5.425584, 0.001174566, NaN, NaN, NaN, 0.0323506, "- N/A -   "
0.6, 5.425584, 0.00118845, NaN, NaN, NaN, 0.0335714, "- N/A -   "
0.61, 5.54353, 0.00120233, NaN, NaN, NaN, 0.0347922, "- N/A -   "
0.62, 5.66148, 0.00121622, NaN, NaN, NaN, 0.03601294, "- N/A -   "
0.63, 5.779426, 0.0012301, NaN, NaN, NaN, 0.0384545, "- N/A -   "
0.64, 5.779426, 0.001241208, NaN, NaN, NaN, 0.0396753, "- N/A -   "
0.65, 5.897373, 0.00125787, NaN, NaN, NaN, 0.0396753, "- N/A -   "
0.66, 6.01532, 0.00127175, NaN, NaN, NaN, 0.04089605, "- N/A -   "
0.67, 6.13327, 0.00128564, NaN, NaN, NaN, 0.04211683, "- N/A -   "
0.68, 6.13327, 0.00129952, NaN, NaN, NaN, 0.0433376, "- N/A -   "
0.69, 6.13327, 0.0013134, NaN, NaN, NaN, 0.0445584, "- N/A -   "
0.7, 6.251216, 0.00133006, NaN, NaN, NaN, 0.0445584, "- N/A -   "
0.71, 6.369163, 0.00134395, NaN, NaN, NaN, 0.04577916, "- N/A -   "
0.72, 6.487111, 0.00136061, NaN, NaN, NaN, 0.04577916, "- N/A -   "
0.73, 6.60506, 0.00137449, NaN, NaN, NaN, 0.04699994, "- N/A -   "
0.74, 6.723006, 0.00139115, NaN, NaN, NaN, 0.04699994, "- N/A -   "
0.75, 6.723006, 0.00140781, NaN, NaN, NaN, 0.04699994, "- N/A -   "
0.76, 6.723006, 0.00142447, NaN, NaN, NaN, 0.04699994, "- N/A -   "
0.77, 6.84095, 0.001443911, NaN, NaN, NaN, 0.04699994, "- N/A -   "
0.78, 7.07685, 0.00146335, NaN, NaN, NaN, 0.04577916, "- N/A -   "
0.79, 7.07685, 0.00148001, NaN, NaN, NaN, 0.0445584, "- N/A -   "
0.8, 7.1948, 0.001499446, NaN, NaN, NaN, 0.0433376, "- N/A -   "
0.81, 7.312743, 0.00151888, NaN, NaN, NaN, 0.0433376, "- N/A -   "
0.82, 7.548638, 0.00153554, NaN, NaN, NaN, 0.04211683, "- N/A -   "
0.83, 7.548638, 0.001554981, NaN, NaN, NaN, 0.04089605, "- N/A -   "
0.84, 7.666586, 0.00157442, NaN, NaN, NaN, 0.0396753, "- N/A -   "
0.85, 7.784533, 0.00159386, NaN, NaN, NaN, 0.0384545, "- N/A -   "
0.86, 7.90248, 0.00161329, NaN, NaN, NaN, 0.0372337, "- N/A -   "
0.87, 7.90248, 0.00162995, NaN, NaN, NaN, 0.0384545, "- N/A -   "
0.88, 8.020428, 0.00164661, NaN, NaN, NaN, 0.0372337, "- N/A -   "
0.89, 8.138375, 0.00166327, NaN, NaN, NaN, 0.0372337, "- N/A -   "
0.9, 8.256323, 0.00168271, NaN, NaN, NaN, 0.0372337, "- N/A -   "
0.91, 8.37427, 0.00169937, NaN, NaN, NaN, 0.0372337, "- N/A -   "
0.92, 8.492218, 0.00171603, NaN, NaN, NaN, 0.03601294, "- N/A -   "
0.93, 8.610166, 0.00173547, NaN, NaN, NaN, 0.0347922, "- N/A -   "
0.94, 8.728113, 0.00175213, NaN, NaN, NaN, 0.0347922, "- N/A -   "
0.95, 8.846061, 0.00177157, NaN, NaN, NaN, 0.0335714, "- N/A -   "
0.96, 8.964007, 0.00178823, NaN, NaN, NaN, 0.0335714, "- N/A -   "
0.97, 9.081955, 0.00180489, NaN, NaN, NaN, 0.0335714, "- N/A -   "
0.98, 9.199903, 0.00182155, NaN, NaN, NaN, 0.0335714, "- N/A -   "
0.99, 9.31785, 0.00184099, NaN, NaN, NaN, 0.0323506, "- N/A -   "
1, 9.435798, 0.00186042, NaN, NaN, NaN, 0.0323506, "- N/A -   "
1.01, 9.553744, 0.00187708, NaN, NaN, NaN, 0.03112983, "- N/A -   "
1.02, 9.553744, 0.00189652, NaN, NaN, NaN, 0.0299091, "- N/A -   "
1.03, 9.78964, 0.00191596, NaN, NaN, NaN, 0.0299091, "- N/A -   "
1.04, 9.907588, 0.001935396, NaN, NaN, NaN, 0.0286883, "- N/A -   "
1.05, 10.0255, 0.00195206, NaN, NaN, NaN, 0.0274675, "- N/A -   "
1.06, 10.1435, 0.001968717, NaN, NaN, NaN, 0.0274675, "- N/A -   "
1.07, 10.26143, 0.00198538, NaN, NaN, NaN, 0.0286883, "- N/A -   "
1.08, 10.3794, 0.00199926, NaN, NaN, NaN, 0.0286883, "- N/A -   "
1.09, 10.3794, 0.00201592, NaN, NaN, NaN, 0.0286883, "- N/A -   "
1.1, 10.4973, 0.00203258, NaN, NaN, NaN, 0.0286883, "- N/A -   "
1.11, 10.4973, 0.00204924, NaN, NaN, NaN, 0.0286883, "- N/A -   "
1.12, 10.73322, 0.00206868, NaN, NaN, NaN, 0.0286883, "- N/A -   "
1.13, 10.73322, 0.002082564, NaN, NaN, NaN, 0.0286883, "- N/A -   "
1.14, 10.8512, 0.00209922, NaN, NaN, NaN, 0.0286883, "- N/A -   "
1.15, 10.9691, 0.00211588, NaN, NaN, NaN, 0.0286883, "- N/A -   "
1.16, 11.0871, 0.00213255, NaN, NaN, NaN, 0.0286883, "- N/A -   "
1.17, 11.205, 0.002149206, NaN, NaN, NaN, 0.0286883, "- N/A -   "
1.18, 11.323, 0.00216309, NaN, NaN, NaN, 0.0299091, "- N/A -   "
1.19, 11.323, 0.00217697, NaN, NaN, NaN, 0.03112983, "- N/A -   "
1.2, 11.4409, 0.00219086, NaN, NaN, NaN, 0.0323506, "- N/A -   "
1.21, 11.5589, 0.002204741, NaN, NaN, NaN, 0.0335714, "- N/A -   "
1.22, 11.5589, 0.00221862, NaN, NaN, NaN, 0.0347922, "- N/A -   "
1.23, 11.6768, 0.00223251, NaN, NaN, NaN, 0.03601294, "- N/A -   "
1.24, 11.9127, 0.002249169, NaN, NaN, NaN, 0.03601294, "- N/A -   "
1.25, 11.9127, 0.00226305, NaN, NaN, NaN, 0.0372337, "- N/A -   "
1.26, 12.0306, 0.00227694, NaN, NaN, NaN, 0.0384545, "- N/A -   "
1.27, 12.14859, 0.00229082, NaN, NaN, NaN, 0.0396753, "- N/A -   "
1.28, 12.14859, 0.002304704, NaN, NaN, NaN, 0.04089605, "- N/A -   "
1.29, 12.3845, 0.00231859, NaN, NaN, NaN, 0.04211683, "- N/A -   "
1.3, 12.5024, 0.00233247, NaN, NaN, NaN, 0.0433376, "- N/A -   "
1.31, 12.6204, 0.00234636, NaN, NaN, NaN, 0.0445584, "- N/A -   "
1.32, 12.7383, 0.002363016, NaN, NaN, NaN, 0.0445584, "- N/A -   "
1.33, 12.7383, 0.00237968, NaN, NaN, NaN, 0.0445584, "- N/A -   "
1.34, 12.9742, 0.00239356, NaN, NaN, NaN, 0.04577916, "- N/A -   "
1.35, 12.9742, 0.00241022, NaN, NaN, NaN, 0.04577916, "- N/A -   "
1.36, 13.09217, 0.002426881, NaN, NaN, NaN, 0.04577916, "- N/A -   "
1.37, 13.3281, 0.00244354, NaN, NaN, NaN, 0.04577916, "- N/A -   "
1.38, 13.446, 0.0024602, NaN, NaN, NaN, 0.04577916, "- N/A -   "
1.39, 13.6819, 0.00247686, NaN, NaN, NaN, 0.04577916, "- N/A -   "
1.4, 13.7999, 0.0024963, NaN, NaN, NaN, 0.0445584, "- N/A -   "
1.41, 13.9178, 0.00251296, NaN, NaN, NaN, 0.0445584, "- N/A -   "
1.42, 13.9178, 0.00252962, NaN, NaN, NaN, 0.0445584, "- N/A -   "
1.43, 14.1537, 0.00254628, NaN, NaN, NaN, 0.0445584, "- N/A -   "
1.44, 14.1537, 0.002562942, NaN, NaN, NaN, 0.0445584, "- N/A -   "
1.45, 14.3896, 0.00258238, NaN, NaN, NaN, 0.0445584, "- N/A -   "
1.46, 14.5075, 0.00259904, NaN, NaN, NaN, 0.0433376, "- N/A -   "
1.47, 14.6255, 0.0026157, NaN, NaN, NaN, 0.0433376, "- N/A -   "
1.48, 14.8614, 0.00263514, NaN, NaN, NaN, 0.0433376, "- N/A -   "
1.49, 14.8614, 0.002651798, NaN, NaN, NaN, 0.04211683, "- N/A -   "
1.5, 14.9793, 0.00266846, NaN, NaN, NaN, 0.04211683, "- N/A -   "
1.51, 15.0973, 0.00268512, NaN, NaN, NaN, 0.04211683, "- N/A -   "
1.52, 15.2152, 0.00270456, NaN, NaN, NaN, 0.04089605, "- N/A -   "
1.53, 15.4511, 0.00272399, NaN, NaN, NaN, 0.04089605, "- N/A -   "
1.54, 15.5691, 0.00274065, NaN, NaN, NaN, 0.04089605, "- N/A -   "
1.55, 15.687, 0.00276009, NaN, NaN, NaN, 0.0384545, "- N/A -   "
1.56, 15.9229, 0.00277953, NaN, NaN, NaN, 0.0384545, "- N/A -   "
1.57, 16.0409, 0.002798966, NaN, NaN, NaN, 0.0372337, "- N/A -   "
1.58, 16.27675, 0.0028184, NaN, NaN, NaN, 0.0347922, "- N/A -   "
1.59, 16.3947, 0.00283784, NaN, NaN, NaN, 0.0335714, "- N/A -   "
1.6, 16.5126, 0.00285728, NaN, NaN, NaN, 0.0323506, "- N/A -   "
1.61, 16.6306, 0.00287671, NaN, NaN, NaN, 0.0323506, "- N/A -   "
1.62, 16.74854, 0.00289338, NaN, NaN, NaN, 0.03112983, "- N/A -   "
1.63, 16.86649, 0.00291281, NaN, NaN, NaN, 0.03112983, "- N/A -   "
1.64, 17.1024, 0.00292947, NaN, NaN, NaN, 0.0299091, "- N/A -   "
1.65, 17.2203, 0.00294891, NaN, NaN, NaN, 0.0299091, "- N/A -   "
1.66, 17.4562, 0.00296279, NaN, NaN, NaN, 0.0299091, "- N/A -   "
1.67, 17.4562, 0.00297945, NaN, NaN, NaN, 0.0299091, "- N/A -   "
1.68, 17.5742, 0.002998892, NaN, NaN, NaN, 0.0299091, "- N/A -   "
1.69, 17.6921, 0.00301555, NaN, NaN, NaN, 0.0299091, "- N/A -   "
1.7, 17.928, 0.003032213, NaN, NaN, NaN, 0.0299091, "- N/A -   "
1.71, 17.928, 0.0030461, NaN, NaN, NaN, 0.0299091, "- N/A -   "
1.72, 18.046, 0.00306276, NaN, NaN, NaN, 0.03112983, "- N/A -   "
1.73, 18.16391, 0.00307942, NaN, NaN, NaN, 0.03112983, "- N/A -   "
1.74, 18.2819, 0.0030933, NaN, NaN, NaN, 0.03112983, "- N/A -   "
1.75, 18.5178, 0.003109962, NaN, NaN, NaN, 0.03112983, "- N/A -   "
1.76, 18.6357, 0.00312662, NaN, NaN, NaN, 0.0323506, "- N/A -   "
1.77, 18.7536, 0.00314051, NaN, NaN, NaN, 0.0323506, "- N/A -   "
1.78, 18.9895, 0.00315994, NaN, NaN, NaN, 0.0323506, "- N/A -   "
1.79, 18.9895, 0.00317383, NaN, NaN, NaN, 0.0323506, "- N/A -   "
1.8, 19.2254, 0.003190488, NaN, NaN, NaN, 0.0323506, "- N/A -   "
1.81, 19.2254, 0.00320715, NaN, NaN, NaN, 0.0335714, "- N/A -   "
1.82, 19.4613, 0.00322103, NaN, NaN, NaN, 0.0335714, "- N/A -   "
1.83, 19.4613, 0.00323769, NaN, NaN, NaN, 0.0347922, "- N/A -   "
1.84, 19.6972, 0.00325158, NaN, NaN, NaN, 0.0347922, "- N/A -   "
1.85, 19.6972, 0.003268237, NaN, NaN, NaN, 0.0347922, "- N/A -   "
1.86, 19.8152, 0.0032849, NaN, NaN, NaN, 0.0347922, "- N/A -   "
1.87, 19.9331, 0.003298781, NaN, NaN, NaN, 0.03601294, "- N/A -   "
1.88, 20.169, 0.00331544, NaN, NaN, NaN, 0.03601294, "- N/A -   "
1.89, 20.287, 0.0033321, NaN, NaN, NaN, 0.03601294, "- N/A -   "
1.9, 20.4049, 0.00334876, NaN, NaN, NaN, 0.03601294, "- N/A -   "
1.91, 20.52286, 0.00336265, NaN, NaN, NaN, 0.0372337, "- N/A -   "
1.92, 20.6408, 0.00338208, NaN, NaN, NaN, 0.0372337, "- N/A -   "
1.93, 20.7588, 0.00339874, NaN, NaN, NaN, 0.03601294, "- N/A -   "
1.94, 21.1126, 0.0034154, NaN, NaN, NaN, 0.03601294, "- N/A -   "
1.95, 20.99465, 0.00343207, NaN, NaN, NaN, 0.03601294, "- N/A -   "
1.96, 21.2305, 0.0034515, NaN, NaN, NaN, 0.03601294, "- N/A -   "
1.97, 21.3485, 0.00346539, NaN, NaN, NaN, 0.03601294, "- N/A -   "
1.98, 21.3485, 0.00347927, NaN, NaN, NaN, 0.0372337, "- N/A -   "
1.99, 21.46644, 0.00349593, NaN, NaN, NaN, 0.0372337, "- N/A -   "
2, 21.5844, 0.00350981, NaN, NaN, NaN, 0.0384545, "- N/A -   "
2.01, 21.7023, 0.00352647, NaN, NaN, NaN, 0.0384545, "- N/A -   "
2.02, 21.93823, 0.00354036, NaN, NaN, NaN, 0.0396753, "- N/A -   "
2.03, 21.93823, 0.00355424, NaN, NaN, NaN, 0.04089605, "- N/A -   "
2.04, 22.0562, 0.0035709, NaN, NaN, NaN, 0.04089605, "- N/A -   "
2.05, 22.1741, 0.00358756, NaN, NaN, NaN, 0.04211683, "- N/A -   "
2.06, 22.29207, 0.00360145, NaN, NaN, NaN, 0.04211683, "- N/A -   "
2.07, 22.41, 0.003615331, NaN, NaN, NaN, 0.0433376, "- N/A -   "
2.08, 22.6459, 0.00362921, NaN, NaN, NaN, 0.0445584, "- N/A -   "
2.09, 22.6459, 0.00364588, NaN, NaN, NaN, 0.0445584, "- N/A -   "
2.1, 22.7639, 0.003659759, NaN, NaN, NaN, 0.04577916, "- N/A -   "
2.11, 22.88181, 0.00367642, NaN, NaN, NaN, 0.04699994, "- N/A -   "
2.12, 23.1177, 0.00369308, NaN, NaN, NaN, 0.04577916, "- N/A -   "
2.13, 23.2357, 0.00370974, NaN, NaN, NaN, 0.04577916, "- N/A -   "
2.14, 23.3536, 0.00372918, NaN, NaN, NaN, 0.0445584, "- N/A -   "
2.15, 23.5895, 0.003748615, NaN, NaN, NaN, 0.0433376, "- N/A -   "
2.16, 23.82539, 0.00376805, NaN, NaN, NaN, 0.04211683, "- N/A -   "
2.17, 24.0613, 0.00378749, NaN, NaN, NaN, 0.04089605, "- N/A -   "
2.18, 24.1792, 0.0038097, NaN, NaN, NaN, 0.0384545, "- N/A -   "
2.19, 24.5331, 0.00383192, NaN, NaN, NaN, 0.03601294, "- N/A -   "
2.2, 24.65102, 0.00385413, NaN, NaN, NaN, 0.0347922, "- N/A -   "
2.21, 24.769, 0.003870792, NaN, NaN, NaN, 0.0335714, "- N/A -   "
2.22, 25.0049, 0.00389023, NaN, NaN, NaN, 0.0323506, "- N/A -   "
2.23, 25.1228, 0.00390967, NaN, NaN, NaN, 0.03112983, "- N/A -   "
2.24, 25.2408, 0.003926327, NaN, NaN, NaN, 0.03112983, "- N/A -   "
2.25, 25.4767, 0.00394576, NaN, NaN, NaN, 0.0299091, "- N/A -   "
2.26, 25.5946, 0.003962425, NaN, NaN, NaN, 0.0299091, "- N/A -   "
2.27, 25.7125, 0.00397909, NaN, NaN, NaN, 0.0299091, "- N/A -   "
2.28, 25.9484, 0.003995746, NaN, NaN, NaN, 0.0299091, "- N/A -   "
2.29, 26.0664, 0.00401241, NaN, NaN, NaN, 0.0299091, "- N/A -   "
2.3, 26.3023, 0.00403184, NaN, NaN, NaN, 0.0299091, "- N/A -   "
2.31, 26.4202, 0.00404573, NaN, NaN, NaN, 0.0299091, "- N/A -   "
2.32, 26.5382, 0.004062388, NaN, NaN, NaN, 0.0299091, "- N/A -   "
2.33, 26.6561, 0.00407905, NaN, NaN, NaN, 0.03112983, "- N/A -   "
2.34, 26.892, 0.004092932, NaN, NaN, NaN, 0.03112983, "- N/A -   "
2.35, 27.01, 0.00410959, NaN, NaN, NaN, 0.0323506, "- N/A -   "
2.36, 27.1279, 0.004123477, NaN, NaN, NaN, 0.0323506, "- N/A -   "
2.37, 27.3638, 0.004140137, NaN, NaN, NaN, 0.0323506, "- N/A -   "
2.38, 27.4818, 0.0041568, NaN, NaN, NaN, 0.0335714, "- N/A -   "
2.39, 27.5997, 0.00417068, NaN, NaN, NaN, 0.0335714, "- N/A -   "
2.4, 27.8356, 0.004187342, NaN, NaN, NaN, 0.0335714, "- N/A -   "
2.41, 27.95355, 0.004204002, NaN, NaN, NaN, 0.0335714, "- N/A -   "
2.42, 28.0715, 0.00421789, NaN, NaN, NaN, 0.0347922, "- N/A -   "
2.43, 28.1894, 0.004234547, NaN, NaN, NaN, 0.0347922, "- N/A -   "
2.44, 28.54329, 0.004251207, NaN, NaN, NaN, 0.0347922, "- N/A -   "
2.45, 28.6612, 0.00426787, NaN, NaN, NaN, 0.0347922, "- N/A -   "
2.46, 28.7792, 0.004284528, NaN, NaN, NaN, 0.0347922, "- N/A -   "
2.47, 29.0151, 0.00430397, NaN, NaN, NaN, 0.0335714, "- N/A -   "
2.48, 29.251, 0.00432063, NaN, NaN, NaN, 0.0335714, "- N/A -   "
2.49, 29.4869, 0.00434006, NaN, NaN, NaN, 0.0335714, "- N/A -   "
2.5, 29.6048, 0.00435672, NaN, NaN, NaN, 0.0323506, "- N/A -   "
2.51, 29.84071, 0.004376161, NaN, NaN, NaN, 0.03112983, "- N/A -   "
2.52, 29.9587, 0.00439282, NaN, NaN, NaN, 0.03112983, "- N/A -   "
2.53, 30.1946, 0.004409482, NaN, NaN, NaN, 0.03112983, "- N/A -   "
2.54, 30.3125, 0.004426142, NaN, NaN, NaN, 0.03112983, "- N/A -   "
2.55, 30.4304, 0.00444003, NaN, NaN, NaN, 0.0323506, "- N/A -   "
2.56, 30.6663, 0.004456687, NaN, NaN, NaN, 0.0335714, "- N/A -   "
2.57, 30.6663, 0.00447057, NaN, NaN, NaN, 0.0335714, "- N/A -   "
2.58, 30.78429, 0.004484454, NaN, NaN, NaN, 0.0347922, "- N/A -   "
2.59, 31.0202, 0.00450111, NaN, NaN, NaN, 0.03601294, "- N/A -   "
2.6, 31.2561, 0.00451778, NaN, NaN, NaN, 0.03601294, "- N/A -   "
2.61, 31.374, 0.004531659, NaN, NaN, NaN, 0.03601294, "- N/A -   "
2.62, 31.492, 0.00454832, NaN, NaN, NaN, 0.0372337, "- N/A -   "
2.63, 31.6099, 0.0045622, NaN, NaN, NaN, 0.0384545, "- N/A -   "
2.64, 31.8458, 0.004576087, NaN, NaN, NaN, 0.0384545, "- N/A -   "
2.65, 31.8458, 0.00458997, NaN, NaN, NaN, 0.0396753, "- N/A -   "
2.66, 31.9638, 0.00460385, NaN, NaN, NaN, 0.04089605, "- N/A -   "
2.67, 32.08171, 0.00461774, NaN, NaN, NaN, 0.04211683, "- N/A -   "
2.68, 32.3176, 0.004631622, NaN, NaN, NaN, 0.0433376, "- N/A -   "
2.69, 32.4356, 0.00464828, NaN, NaN, NaN, 0.0433376, "- N/A -   "
2.7, 32.5535, 0.00466217, NaN, NaN, NaN, 0.0445584, "- N/A -   "
2.71, 32.9073, 0.004678827, NaN, NaN, NaN, 0.0445584, "- N/A -   "
2.72, 33.02529, 0.004698264, NaN, NaN, NaN, 0.0445584, "- N/A -   "
2.73, 33.1432, 0.00471492, NaN, NaN, NaN, 0.0433376, "- N/A -   "
2.74, 33.3791, 0.00473159, NaN, NaN, NaN, 0.0433376, "- N/A -   "
2.75, 33.49708, 0.00475102, NaN, NaN, NaN, 0.04211683, "- N/A -   "
2.76, 33.73298, 0.004767683, NaN, NaN, NaN, 0.04211683, "- N/A -   "
2.77, 33.9689, 0.00478712, NaN, NaN, NaN, 0.04089605, "- N/A -   "
2.78, 34.2048, 0.004803781, NaN, NaN, NaN, 0.04089605, "- N/A -   "
2.79, 34.4407, 0.004823218, NaN, NaN, NaN, 0.04089605, "- N/A -   "
2.8, 34.55861, 0.004837102, NaN, NaN, NaN, 0.04089605, "- N/A -   "
2.81, 34.7945, 0.004856539, NaN, NaN, NaN, 0.04089605, "- N/A -   "
2.82, 35.0304, 0.0048732, NaN, NaN, NaN, 0.04089605, "- N/A -   "
2.83, 35.2663, 0.00488986, NaN, NaN, NaN, 0.0396753, "- N/A -   "
2.84, 35.3842, 0.004909297, NaN, NaN, NaN, 0.0384545, "- N/A -   "
2.85, 35.7381, 0.004928734, NaN, NaN, NaN, 0.0372337, "- N/A -   "
2.86, 35.97398, 0.004948172, NaN, NaN, NaN, 0.0372337, "- N/A -   "
2.87, 36.32782, 0.004964832, NaN, NaN, NaN, 0.03601294, "- N/A -   "
2.88, 36.5637, 0.004981493, NaN, NaN, NaN, 0.0372337, "- N/A -   "
2.89, 36.6817, 0.004998153, NaN, NaN, NaN, 0.03601294, "- N/A -   "
2.9, 36.9176, 0.005014814, NaN, NaN, NaN, 0.03601294, "- N/A -   "
2.91, 37.15345, 0.00503147, NaN, NaN, NaN, 0.03601294, "- N/A -   "
2.92, 37.3893, 0.00504814, NaN, NaN, NaN, 0.03601294, "- N/A -   "
2.93, 37.5073, 0.0050648, NaN, NaN, NaN, 0.03601294, "- N/A -   "
2.94, 37.74319, 0.005081456, NaN, NaN, NaN, 0.03601294, "- N/A -   "
2.95, 38.097, 0.005098116, NaN, NaN, NaN, 0.03601294, "- N/A -   "
2.96, 38.215, 0.005114777, NaN, NaN, NaN, 0.03601294, "- N/A -   "
2.97, 38.5688, 0.00513144, NaN, NaN, NaN, 0.03601294, "- N/A -   "
2.98, 38.68677, 0.00515087, NaN, NaN, NaN, 0.03601294, "- N/A -   "
2.99, 38.9227, 0.00516476, NaN, NaN, NaN, 0.03601294, "- N/A -   "
3, 39.15856, 0.005181419, NaN, NaN, NaN, 0.03601294, "- N/A -   "
3.01, 39.3945, 0.005198079, NaN, NaN, NaN, 0.03601294, "- N/A -   "
3.02, 39.6304, 0.00521474, NaN, NaN, NaN, 0.03601294, "- N/A -   "
3.03, 39.8662, 0.005234177, NaN, NaN, NaN, 0.0347922, "- N/A -   "
3.04, 40.22009, 0.00525361, NaN, NaN, NaN, 0.0347922, "- N/A -   "
3.05, 40.456, 0.00527028, NaN, NaN, NaN, 0.0335714, "- N/A -   "
3.06, 40.69188, 0.00528694, NaN, NaN, NaN, 0.0335714, "- N/A -   "
3.07, 41.04572, 0.00530637, NaN, NaN, NaN, 0.0323506, "- N/A -   "
3.08, 41.39956, 0.00532581, NaN, NaN, NaN, 0.0323506, "- N/A -   "
3.09, 41.51751, 0.00534247, NaN, NaN, NaN, 0.03112983, "- N/A -   "
3.1, 41.8714, 0.00535913, NaN, NaN, NaN, 0.03112983, "- N/A -   "
3.11, 41.9893, 0.00537579, NaN, NaN, NaN, 0.03112983, "- N/A -   "
3.12, 42.2252, 0.00539245, NaN, NaN, NaN, 0.03112983, "- N/A -   "
3.13, 42.4611, 0.00540634, NaN, NaN, NaN, 0.0323506, "- N/A -   "
3.14, 42.697, 0.005423, NaN, NaN, NaN, 0.0323506, "- N/A -   "
3.15, 42.93288, 0.005439657, NaN, NaN, NaN, 0.0323506, "- N/A -   "
3.16, 43.2867, 0.00545632, NaN, NaN, NaN, 0.0323506, "- N/A -   "
3.17, 43.5226, 0.00547575, NaN, NaN, NaN, 0.0323506, "- N/A -   "
3.18, 43.75851, 0.00548964, NaN, NaN, NaN, 0.0323506, "- N/A -   "
3.19, 43.9944, 0.005503522, NaN, NaN, NaN, 0.0335714, "- N/A -   "
3.2, 44.2303, 0.005517406, NaN, NaN, NaN, 0.0347922, "- N/A -   "
3.21, 44.34825, 0.00553407, NaN, NaN, NaN, 0.0347922, "- N/A -   "
3.22, 44.58414, 0.005550727, NaN, NaN, NaN, 0.03601294, "- N/A -   "
3.23, 44.93799, 0.00556739, NaN, NaN, NaN, 0.03601294, "- N/A -   "
3.24, 45.17388, 0.00558405, NaN, NaN, NaN, 0.0347922, "- N/A -   "
3.25, 45.29183, 0.00560071, NaN, NaN, NaN, 0.03601294, "- N/A -   "
3.26, 45.76362, 0.005617369, NaN, NaN, NaN, 0.03601294, "- N/A -   "
3.27, 45.9995, 0.00563403, NaN, NaN, NaN, 0.0347922, "- N/A -   "
3.28, 46.23541, 0.00565347, NaN, NaN, NaN, 0.0347922, "- N/A -   "
3.29, 46.4713, 0.00567013, NaN, NaN, NaN, 0.0335714, "- N/A -   "
3.3, 46.7072, 0.00568956, NaN, NaN, NaN, 0.0335714, "- N/A -   "
3.31, 47.061, 0.00570345, NaN, NaN, NaN, 0.0335714, "- N/A -   "
3.32, 47.2969, 0.005717332, NaN, NaN, NaN, 0.0347922, "- N/A -   "
3.33, 47.5328, 0.00573399, NaN, NaN, NaN, 0.0347922, "- N/A -   "
3.34, 47.7687, 0.00574788, NaN, NaN, NaN, 0.03601294, "- N/A -   "
3.35, 48.00462, 0.00576454, NaN, NaN, NaN, 0.0372337, "- N/A -   "
3.36, 48.2405, 0.00577842, NaN, NaN, NaN, 0.0372337, "- N/A -   "
3.37, 48.47641, 0.00579508, NaN, NaN, NaN, 0.0384545, "- N/A -   "
3.38, 48.59436, 0.005808965, NaN, NaN, NaN, 0.0396753, "- N/A -   "
3.39, 48.83025, 0.00582285, NaN, NaN, NaN, 0.0396753, "- N/A -   "
3.4, 49.1841, 0.005839509, NaN, NaN, NaN, 0.0396753, "- N/A -   "
3.41, 49.41999, 0.00585895, NaN, NaN, NaN, 0.0384545, "- N/A -   "
3.42, 49.6559, 0.005875607, NaN, NaN, NaN, 0.0384545, "- N/A -   "
3.43, 50.0097, 0.00588949, NaN, NaN, NaN, 0.0396753, "- N/A -   "
3.44, 50.2456, 0.005906151, NaN, NaN, NaN, 0.0396753, "- N/A -   "
3.45, 50.3636, 0.005920035, NaN, NaN, NaN, 0.04089605, "- N/A -   "
3.46, 50.5995, 0.0059367, NaN, NaN, NaN, 0.04211683, "- N/A -   "
3.47, 50.83536, 0.00595336, NaN, NaN, NaN, 0.04211683, "- N/A -   "
3.48, 51.1892, 0.00596724, NaN, NaN, NaN, 0.04211683, "- N/A -   "
3.49, 51.30715, 0.0059839, NaN, NaN, NaN, 0.04211683, "- N/A -   "
3.5, 51.66099, 0.005997784, NaN, NaN, NaN, 0.0433376, "- N/A -   "
3.51, 51.89689, 0.00601167, NaN, NaN, NaN, 0.0445584, "- N/A -   "
3.52, 52.1328, 0.006028328, NaN, NaN, NaN, 0.0445584, "- N/A -   "
3.53, 52.36868, 0.006044989, NaN, NaN, NaN, 0.04699994, "- N/A -   "
3.54, 52.72252, 0.006061649, NaN, NaN, NaN, 0.04577916, "- N/A -   "
3.55, 52.9584, 0.00607831, NaN, NaN, NaN, 0.04577916, "- N/A -   "
3.56, 53.3123, 0.006097747, NaN, NaN, NaN, 0.0445584, "- N/A -   "
3.57, 53.6661, 0.006117184, NaN, NaN, NaN, 0.0445584, "- N/A -   "
3.58, 53.902, 0.006136622, NaN, NaN, NaN, 0.04211683, "- N/A -   "
3.59, 54.2558, 0.006156059, NaN, NaN, NaN, 0.04089605, "- N/A -   "
3.6, 54.6097, 0.006175496, NaN, NaN, NaN, 0.0396753, "- N/A -   "
3.61, 54.8456, 0.00619771, NaN, NaN, NaN, 0.0372337, "- N/A -   "
3.62, 55.1994, 0.006217147, NaN, NaN, NaN, 0.03601294, "- N/A -   "
3.63, 55.55326, 0.006236585, NaN, NaN, NaN, 0.0347922, "- N/A -   "
3.64, 55.9071, 0.006256022, NaN, NaN, NaN, 0.0335714, "- N/A -   "
3.65, 56.143, 0.006278236, NaN, NaN, NaN, 0.0323506, "- N/A -   "
3.66, 56.4968, 0.0062949, NaN, NaN, NaN, 0.03112983, "- N/A -   "
3.67, 56.73273, 0.006311557, NaN, NaN, NaN, 0.03112983, "- N/A -   "
3.68, 56.9686, 0.006328217, NaN, NaN, NaN, 0.03112983, "- N/A -   "
3.69, 57.20452, 0.006342101, NaN, NaN, NaN, 0.0323506, "- N/A -   "
3.7, 57.44042, 0.006358762, NaN, NaN, NaN, 0.0323506, "- N/A -   "
3.71, 57.6763, 0.006372645, NaN, NaN, NaN, 0.0335714, "- N/A -   "
3.72, 58.0302, 0.006389306, NaN, NaN, NaN, 0.0335714, "- N/A -   "
3.73, 58.1481, 0.00640597, NaN, NaN, NaN, 0.0335714, "- N/A -   "
3.74, 58.5019, 0.00642263, NaN, NaN, NaN, 0.0335714, "- N/A -   "
3.75, 58.7378, 0.006439287, NaN, NaN, NaN, 0.0335714, "- N/A -   "
3.76, 59.0917, 0.006458725, NaN, NaN, NaN, 0.0323506, "- N/A -   "
3.77, 59.3276, 0.00647539, NaN, NaN, NaN, 0.0335714, "- N/A -   "
3.78, 59.5635, 0.006489269, NaN, NaN, NaN, 0.0335714, "- N/A -   "
3.79, 59.79937, 0.006503153, NaN, NaN, NaN, 0.0347922, "- N/A -   "
3.8, 60.0353, 0.006519813, NaN, NaN, NaN, 0.0347922, "- N/A -   "
3.81, 60.3891, 0.00653925, NaN, NaN, NaN, 0.0335714, "- N/A -   "
3.82, 60.7429, 0.006558688, NaN, NaN, NaN, 0.0335714, "- N/A -   "
3.83, 61.09679, 0.006578125, NaN, NaN, NaN, 0.0323506, "- N/A -   "
3.84, 61.2147, 0.006597562, NaN, NaN, NaN, 0.03112983, "- N/A -   "
3.85, 61.6865, 0.006614223, NaN, NaN, NaN, 0.0299091, "- N/A -   "
3.86, 61.9224, 0.00663088, NaN, NaN, NaN, 0.0299091, "- N/A -   "
3.87, 62.1583, 0.006650321, NaN, NaN, NaN, 0.0299091, "- N/A -   "
3.88, 62.5122, 0.006666981, NaN, NaN, NaN, 0.0286883, "- N/A -   "
3.89, 62.866, 0.00668642, NaN, NaN, NaN, 0.0274675, "- N/A -   "
3.9, 63.1019, 0.006703079, NaN, NaN, NaN, 0.0274675, "- N/A -   "
3.91, 63.33779, 0.006716963, NaN, NaN, NaN, 0.0286883, "- N/A -   "
3.92, 63.5737, 0.00673362, NaN, NaN, NaN, 0.0299091, "- N/A -   "
3.93, 63.80958, 0.006747507, NaN, NaN, NaN, 0.0299091, "- N/A -   "
3.94, 64.04548, 0.00676417, NaN, NaN, NaN, 0.03112983, "- N/A -   "
3.95, 64.28137, 0.006778051, NaN, NaN, NaN, 0.03112983, "- N/A -   "
3.96, 64.5173, 0.006794712, NaN, NaN, NaN, 0.0323506, "- N/A -   "
3.97, 64.75317, 0.0068086, NaN, NaN, NaN, 0.0323506, "- N/A -   "
3.98, 65.107, 0.00682248, NaN, NaN, NaN, 0.0335714, "- N/A -   "
3.99, 65.22495, 0.00683914, NaN, NaN, NaN, 0.0335714, "- N/A -   "
4, 65.4608, 0.00685302, NaN, NaN, NaN, 0.0347922, "- N/A -   "
4.01, 65.81469, 0.00686691, NaN, NaN, NaN, 0.03601294, "- N/A -   "
4.02, 65.93263, 0.00688079, NaN, NaN, NaN, 0.0372337, "- N/A -   "
4.03, 66.2865, 0.00689745, NaN, NaN, NaN, 0.0384545, "- N/A -   "
4.04, 66.40443, 0.00690856, NaN, NaN, NaN, 0.0396753, "- N/A -   "
4.05, 66.75827, 0.00692244, NaN, NaN, NaN, 0.04089605, "- N/A -   "
4.06, 66.87622, 0.006936326, NaN, NaN, NaN, 0.04211683, "- N/A -   "
4.07, 67.1121, 0.00695021, NaN, NaN, NaN, 0.0433376, "- N/A -   "
4.08, 67.34801, 0.00696409, NaN, NaN, NaN, 0.0445584, "- N/A -   "
4.09, 67.5839, 0.006977977, NaN, NaN, NaN, 0.04577916, "- N/A -   "
4.1, 67.81979, 0.006994638, NaN, NaN, NaN, 0.04577916, "- N/A -   "
4.11, 68.05569, 0.00700852, NaN, NaN, NaN, 0.04699994, "- N/A -   "
4.12, 68.40953, 0.00702518, NaN, NaN, NaN, 0.04699994, "- N/A -   "
4.13, 68.6454, 0.00704184, NaN, NaN, NaN, 0.0482207, "- N/A -   "
4.14, 68.8813, 0.0070585, NaN, NaN, NaN, 0.04699994, "- N/A -   "
4.15, 69.23517, 0.00707516, NaN, NaN, NaN, 0.0482207, "- N/A -   "
4.16, 69.47106, 0.00708905, NaN, NaN, NaN, 0.0482207, "- N/A -   "
4.17, 69.707, 0.007108485, NaN, NaN, NaN, 0.0482207, "- N/A -   "
4.18, 69.94285, 0.00712237, NaN, NaN, NaN, 0.0482207, "- N/A -   "
4.19, 70.29669, 0.00714181, NaN, NaN, NaN, 0.04699994, "- N/A -   "
4.2, 70.6505, 0.00715847, NaN, NaN, NaN, 0.04699994, "- N/A -   "
4.21, 70.88643, 0.007177904, NaN, NaN, NaN, 0.04577916, "- N/A -   "
4.22, 71.24027, 0.00719734, NaN, NaN, NaN, 0.04577916, "- N/A -   "
4.23, 71.59412, 0.00721678, NaN, NaN, NaN, 0.0445584, "- N/A -   "
4.24, 71.94796, 0.00723622, NaN, NaN, NaN, 0.0433376, "- N/A -   "
4.25, 72.1838, 0.00725288, NaN, NaN, NaN, 0.04211683, "- N/A -   "
4.26, 72.5377, 0.00727231, NaN, NaN, NaN, 0.04089605, "- N/A -   "
4.27, 72.89154, 0.00729175, NaN, NaN, NaN, 0.04089605, "- N/A -   "
4.28, 73.00948, 0.007308411, NaN, NaN, NaN, 0.0396753, "- N/A -   "
4.29, 73.36333, 0.00732507, NaN, NaN, NaN, 0.0396753, "- N/A -   "
4.3, 73.71717, 0.00734451, NaN, NaN, NaN, 0.0396753, "- N/A -   "
4.31, 73.9531, 0.00736395, NaN, NaN, NaN, 0.0384545, "- N/A -   "
4.32, 74.42485, 0.00738061, NaN, NaN, NaN, 0.0372337, "- N/A -   "
4.33, 74.66075, 0.007400044, NaN, NaN, NaN, 0.03601294, "- N/A -   "
4.34, 74.8966, 0.0074167, NaN, NaN, NaN, 0.03601294, "- N/A -   "
4.35, 75.13254, 0.007436142, NaN, NaN, NaN, 0.03601294, "- N/A -   "
4.36, 75.48638, 0.007452802, NaN, NaN, NaN, 0.0347922, "- N/A -   "
4.37, 75.7223, 0.00746946, NaN, NaN, NaN, 0.0347922, "- N/A -   "
4.38, 76.07612, 0.00748612, NaN, NaN, NaN, 0.0347922, "- N/A -   "
4.39, 76.43, 0.00750278, NaN, NaN, NaN, 0.0347922, "- N/A -   "
4.4, 76.7838, 0.00752222, NaN, NaN, NaN, 0.0335714, "- N/A -   "
4.41, 77.0197, 0.007541658, NaN, NaN, NaN, 0.0335714, "- N/A -   "
4.42, 77.37354, 0.007558319, NaN, NaN, NaN, 0.0323506, "- N/A -   "
4.43, 77.6094, 0.007577756, NaN, NaN, NaN, 0.0323506, "- N/A -   "
4.44, 77.84533, 0.007597193, NaN, NaN, NaN, 0.03112983, "- N/A -   "
4.45, 78.19917, 0.00761385, NaN, NaN, NaN, 0.0299091, "- N/A -   "
4.46, 78.55301, 0.007630514, NaN, NaN, NaN, 0.0299091, "- N/A -   "
4.47, 78.78891, 0.007647175, NaN, NaN, NaN, 0.0299091, "- N/A -   "
4.48, 79.0248, 0.007663835, NaN, NaN, NaN, 0.0299091, "- N/A -   "
4.49, 79.37865, 0.0076805, NaN, NaN, NaN, 0.0299091, "- N/A -   "
4.5, 79.61454, 0.00769438, NaN, NaN, NaN, 0.03112983, "- N/A -   "
4.51, 79.85043, 0.00771104, NaN, NaN, NaN, 0.03112983, "- N/A -   "
4.52, 80.20428, 0.007730477, NaN, NaN, NaN, 0.0299091, "- N/A -   "
4.53, 80.44018, 0.007747138, NaN, NaN, NaN, 0.0299091, "- N/A -   "
4.54, 80.794, 0.007763798, NaN, NaN, NaN, 0.0299091, "- N/A -   "
4.55, 81.14786, 0.007780459, NaN, NaN, NaN, 0.0299091, "- N/A -   "
4.56, 81.38376, 0.007794343, NaN, NaN, NaN, 0.03112983, "- N/A -   "
4.57, 81.61965, 0.007811003, NaN, NaN, NaN, 0.03112983, "- N/A -   "
4.58, 81.97349, 0.007827664, NaN, NaN, NaN, 0.03112983, "- N/A -   "
4.59, 82.20939, 0.007844324, NaN, NaN, NaN, 0.03112983, "- N/A -   "
4.6, 82.44528, 0.007860985, NaN, NaN, NaN, 0.0323506, "- N/A -   "
4.61, 82.68118, 0.007874868, NaN, NaN, NaN, 0.0323506, "- N/A -   "
4.62, 82.91707, 0.007888752, NaN, NaN, NaN, 0.0347922, "- N/A -   "
4.63, 83.15297, 0.007902636, NaN, NaN, NaN, 0.0347922, "- N/A -   "
4.64, 83.50681, 0.007919297, NaN, NaN, NaN, 0.03601294, "- N/A -   "
4.65, 83.74271, 0.00793318, NaN, NaN, NaN, 0.03601294, "- N/A -   "
4.66, 83.86065, 0.007947064, NaN, NaN, NaN, 0.0372337, "- N/A -   "
4.67, 84.09654, 0.007960948, NaN, NaN, NaN, 0.0384545, "- N/A -   "
4.68, 84.45039, 0.007977608, NaN, NaN, NaN, 0.0396753, "- N/A -   "
4.69, 84.68629, 0.007994269, NaN, NaN, NaN, 0.0396753, "- N/A -   "
4.7, 84.80424, 0.008008152, NaN, NaN, NaN, 0.0396753, "- N/A -   "
4.71, 85.15807, 0.008024813, NaN, NaN, NaN, 0.04089605, "- N/A -   "
4.72, 85.51192, 0.008041473, NaN, NaN, NaN, 0.04089605, "- N/A -   "
4.73, 85.74781, 0.00805813, NaN, NaN, NaN, 0.04089605, "- N/A -   "
4.74, 85.9837, 0.008074794, NaN, NaN, NaN, 0.0396753, "- N/A -   "
4.75, 86.2196, 0.008088678, NaN, NaN, NaN, 0.04089605, "- N/A -   "
4.76, 86.57345, 0.008105339, NaN, NaN, NaN, 0.04089605, "- N/A -   "
4.77, 86.92729, 0.008119223, NaN, NaN, NaN, 0.04211683, "- N/A -   "
4.78, 87.16318, 0.008135883, NaN, NaN, NaN, 0.04211683, "- N/A -   "
4.79, 87.39908, 0.008149767, NaN, NaN, NaN, 0.0433376, "- N/A -   "
4.8, 87.63497, 0.008169204, NaN, NaN, NaN, 0.0433376, "- N/A -   "
4.81, 87.8709, 0.008185864, NaN, NaN, NaN, 0.04211683, "- N/A -   "
4.82, 88.22471, 0.008202525, NaN, NaN, NaN, 0.04211683, "- N/A -   "
4.83, 88.4606, 0.008219185, NaN, NaN, NaN, 0.0433376, "- N/A -   "
4.84, 88.6965, 0.008235846, NaN, NaN, NaN, 0.0433376, "- N/A -   "
4.85, 89.05035, 0.00824973, NaN, NaN, NaN, 0.0433376, "- N/A -   "
4.86, 89.28623, 0.008263613, NaN, NaN, NaN, 0.0445584, "- N/A -   "
4.87, 89.52213, 0.008280274, NaN, NaN, NaN, 0.0445584, "- N/A -   "
4.88, 89.758, 0.008296934, NaN, NaN, NaN, 0.0445584, "- N/A -   "
4.89, 90.11186, 0.00831637, NaN, NaN, NaN, 0.0433376, "- N/A -   "
4.9, 90.4657, 0.008333032, NaN, NaN, NaN, 0.0445584, "- N/A -   "
4.91, 90.70161, 0.008349693, NaN, NaN, NaN, 0.0433376, "- N/A -   "
4.92, 90.9375, 0.00836913, NaN, NaN, NaN, 0.0433376, "- N/A -   "
4.93, 91.2913, 0.008383014, NaN, NaN, NaN, 0.0433376, "- N/A -   "
4.94, 91.64519, 0.008402451, NaN, NaN, NaN, 0.04211683, "- N/A -   "
4.95, 91.88108, 0.008419111, NaN, NaN, NaN, 0.04211683, "- N/A -   "
4.96, 92.35287, 0.008441325, NaN, NaN, NaN, 0.0396753, "- N/A -   "
4.97, 92.58876, 0.008460763, NaN, NaN, NaN, 0.0396753, "- N/A -   "
4.98, 92.82466, 0.008480201, NaN, NaN, NaN, 0.0384545, "- N/A -   "
4.99, 93.2965, 0.008496861, NaN, NaN, NaN, 0.0372337, "- N/A -   "
5, 93.53234, 0.008519075, NaN, NaN, NaN, 0.0347922, "- N/A -   "
5.01, 94.0041, 0.008541289, NaN, NaN, NaN, 0.0335714, "- N/A -   "
5.02, 94.35797, 0.008560726, NaN, NaN, NaN, 0.03112983, "- N/A -   "
5.03, 94.7118, 0.00858294, NaN, NaN, NaN, 0.0299091, "- N/A -   "
5.04, 95.06567, 0.008602377, NaN, NaN, NaN, 0.0274675, "- N/A -   "
5.05, 95.30156, 0.008619037, NaN, NaN, NaN, 0.0274675, "- N/A -   "
5.06, 95.6554, 0.008638475, NaN, NaN, NaN, 0.0262467, "- N/A -   "
5.07, 95.8913, 0.008652358, NaN, NaN, NaN, 0.0274675, "- N/A -   "
5.08, 96.00924, 0.00866902, NaN, NaN, NaN, 0.0286883, "- N/A -   "
5.09, 96.36309, 0.008682903, NaN, NaN, NaN, 0.0286883, "- N/A -   "
5.1, 96.599, 0.008699563, NaN, NaN, NaN, 0.0286883, "- N/A -   "
5.11, 96.83487, 0.00871345, NaN, NaN, NaN, 0.0299091, "- N/A -   "
5.12, 97.07077, 0.008730108, NaN, NaN, NaN, 0.0299091, "- N/A -   "
5.13, 97.30666, 0.008746768, NaN, NaN, NaN, 0.0299091, "- N/A -   "
5.14, 97.54256, 0.008763429, NaN, NaN, NaN, 0.0299091, "- N/A -   "
5.15, 97.77845, 0.008780089, NaN, NaN, NaN, 0.0299091, "- N/A -   "
5.16, 98.01435, 0.00879675, NaN, NaN, NaN, 0.0299091, "- N/A -   "
5.17, 98.3682, 0.008810634, NaN, NaN, NaN, 0.03112983, "- N/A -   "
5.18, 98.60408, 0.008827294, NaN, NaN, NaN, 0.0323506, "- N/A -   "
5.19, 98.83998, 0.008841177, NaN, NaN, NaN, 0.0335714, "- N/A -   "
5.2, 99.0759, 0.008855062, NaN, NaN, NaN, 0.0335714, "- N/A -   "
5.21, 99.3118, 0.008874499, NaN, NaN, NaN, 0.0335714, "- N/A -   "
5.22, 99.54767, 0.00889116, NaN, NaN, NaN, 0.0323506, "- N/A -   "
5.23, 99.9015, 0.00890782, NaN, NaN, NaN, 0.0323506, "- N/A -   "
5.24, 100.137, 0.008921703, NaN, NaN, NaN, 0.0335714, "- N/A -   "
5.25, 100.3733, 0.008938365, NaN, NaN, NaN, 0.0335714, "- N/A -   "
5.26, 100.6092, 0.008955025, NaN, NaN, NaN, 0.0335714, "- N/A -   "
5.27, 100.845, 0.008971686, NaN, NaN, NaN, 0.0335714, "- N/A -   "
5.28, 101.081, 0.008988346, NaN, NaN, NaN, 0.0335714, "- N/A -   "
5.29, 101.435, 0.009005006, NaN, NaN, NaN, 0.0335714, "- N/A -   "
5.3, 101.789, 0.009021667, NaN, NaN, NaN, 0.0335714, "- N/A -   "
5.31, 102.025, 0.009041104, NaN, NaN, NaN, 0.0323506, "- N/A -   "
5.32, 102.3784, 0.009057765, NaN, NaN, NaN, 0.0323506, "- N/A -   "
5.33, 102.496, 0.009074425, NaN, NaN, NaN, 0.0335714, "- N/A -   "
5.34, 102.85, 0.009091086, NaN, NaN, NaN, 0.0335714, "- N/A -   "
5.35, 102.968, 0.00910497, NaN, NaN, NaN, 0.0335714, "- N/A -   "
5.36, 103.204, 0.009118853, NaN, NaN, NaN, 0.0347922, "- N/A -   "
5.37, 103.44, 0.009135514, NaN, NaN, NaN, 0.0347922, "- N/A -   "
5.38, 103.676, 0.009149398, NaN, NaN, NaN, 0.03601294, "- N/A -   "
5.39, 103.912, 0.009163281, NaN, NaN, NaN, 0.0372337, "- N/A -   "
5.4, 104.148, 0.009177165, NaN, NaN, NaN, 0.0384545, "- N/A -   "
5.41, 104.384, 0.009193826, NaN, NaN, NaN, 0.0396753, "- N/A -   "
5.42, 104.619, 0.009207709, NaN, NaN, NaN, 0.0396753, "- N/A -   "
5.43, 104.855, 0.009218816, NaN, NaN, NaN, 0.04211683, "- N/A -   "
5.44, 104.973, 0.0092327, NaN, NaN, NaN, 0.0433376, "- N/A -   "
5.45, 105.209, 0.00924936, NaN, NaN, NaN, 0.0433376, "- N/A -   "
5.46, 105.445, 0.009263244, NaN, NaN, NaN, 0.0445584, "- N/A -   "
5.47, 105.681, 0.009279905, NaN, NaN, NaN, 0.04577916, "- N/A -   "
5.48, 106.035, 0.009296565, NaN, NaN, NaN, 0.0445584, "- N/A -   "
5.49, 106.389, 0.009310449, NaN, NaN, NaN, 0.04577916, "- N/A -   "
5.5, 106.507, 0.009329886, NaN, NaN, NaN, 0.04577916, "- N/A -   "
5.51, 106.86, 0.00934377, NaN, NaN, NaN, 0.04577916, "- N/A -   "
5.52, 107.0963, 0.009360431, NaN, NaN, NaN, 0.04577916, "- N/A -   "
5.53, 107.3322, 0.009377091, NaN, NaN, NaN, 0.04577916, "- N/A -   "
5.54, 107.686, 0.009393752, NaN, NaN, NaN, 0.04577916, "- N/A -   "
5.55, 107.922, 0.009410412, NaN, NaN, NaN, 0.04577916, "- N/A -   "
5.56, 108.276, 0.009429849, NaN, NaN, NaN, 0.0445584, "- N/A -   "
5.57, 108.512, 0.009449286, NaN, NaN, NaN, 0.0445584, "- N/A -   "
5.58, 108.748, 0.009468724, NaN, NaN, NaN, 0.0433376, "- N/A -   "
5.59, 109.219, 0.009488161, NaN, NaN, NaN, 0.04089605, "- N/A -   "
5.6, 109.5732, 0.009507598, NaN, NaN, NaN, 0.0396753, "- N/A -   "
5.61, 109.927, 0.009527036, NaN, NaN, NaN, 0.0384545, "- N/A -   "
5.62, 110.163, 0.009546473, NaN, NaN, NaN, 0.0384545, "- N/A -   "
5.63, 110.399, 0.009563133, NaN, NaN, NaN, 0.0372337, "- N/A -   "
5.64, 110.753, 0.009582571, NaN, NaN, NaN, 0.03601294, "- N/A -   "
5.65, 111.107, 0.009602008, NaN, NaN, NaN, 0.0347922, "- N/A -   "
5.66, 111.46, 0.009621446, NaN, NaN, NaN, 0.0347922, "- N/A -   "
5.67, 111.696, 0.00963811, NaN, NaN, NaN, 0.0335714, "- N/A -   "
5.68, 112.0501, 0.009657542, NaN, NaN, NaN, 0.0323506, "- N/A -   "
5.69, 112.404, 0.00967698, NaN, NaN, NaN, 0.0323506, "- N/A -   "
5.7, 112.64, 0.00969364, NaN, NaN, NaN, 0.03112983, "- N/A -   "
5.71, 112.876, 0.009710302, NaN, NaN, NaN, 0.03112983, "- N/A -   "
5.72, 113.112, 0.009726962, NaN, NaN, NaN, 0.03112983, "- N/A -   "
5.73, 113.348, 0.00974362, NaN, NaN, NaN, 0.03112983, "- N/A -   "
5.74, 113.583, 0.009757506, NaN, NaN, NaN, 0.0323506, "- N/A -   "
5.75, 113.819, 0.009774166, NaN, NaN, NaN, 0.0323506, "- N/A -   "
5.76, 114.173, 0.009790827, NaN, NaN, NaN, 0.0335714, "- N/A -   "
5.77, 114.409, 0.009807488, NaN, NaN, NaN, 0.0335714, "- N/A -   "
5.78, 114.645, 0.009821372, NaN, NaN, NaN, 0.0335714, "- N/A -   "
5.79, 114.881, 0.009835254, NaN, NaN, NaN, 0.0347922, "- N/A -   "
5.8, 115.235, 0.009851916, NaN, NaN, NaN, 0.0347922, "- N/A -   "
5.81, 115.471, 0.009868576, NaN, NaN, NaN, 0.0347922, "- N/A -   "
5.82, 115.706, 0.009885237, NaN, NaN, NaN, 0.0347922, "- N/A -   "
5.83, 115.942, 0.009901897, NaN, NaN, NaN, 0.0347922, "- N/A -   "
5.84, 116.178, 0.009918558, NaN, NaN, NaN, 0.03601294, "- N/A -   "
5.85, 116.5321, 0.009935218, NaN, NaN, NaN, 0.03601294, "- N/A -   "
5.86, 116.768, 0.009949102, NaN, NaN, NaN, 0.03601294, "- N/A -   "
5.87, 117.004, 0.00996576, NaN, NaN, NaN, 0.03601294, "- N/A -   "
5.88, 117.24, 0.009982423, NaN, NaN, NaN, 0.03601294, "- N/A -   "
5.89, 117.594, 0.0100019, NaN, NaN, NaN, 0.0347922, "- N/A -   "
5.9, 117.947, 0.0100213, NaN, NaN, NaN, 0.0347922, "- N/A -   "
5.91, 118.301, 0.010038, NaN, NaN, NaN, 0.0335714, "- N/A -   "
5.92, 118.655, 0.0100574, NaN, NaN, NaN, 0.0323506, "- N/A -   "
5.93, 118.891, 0.0100768, NaN, NaN, NaN, 0.03112983, "- N/A -   "
5.94, 119.245, 0.0100935, NaN, NaN, NaN, 0.03112983, "- N/A -   "
[...]
23.97, 763.191, 0.0401185, NaN, NaN, NaN, 0.04211683, "- N/A -   "
24.01, 764.965, 0.0401824, NaN, NaN, NaN, 0.0445584, "- N/A -   "
24.05, 766.858, 0.0402518, NaN, NaN, NaN, 0.04211683, "- N/A -   "
24.09, 768.868, 0.0403268, NaN, NaN, NaN, 0.0384545, "- N/A -   "
24.13, 770.997, 0.0404101, NaN, NaN, NaN, 0.0323506, "- N/A -   "
24.17, 773.0081, 0.0404823, NaN, NaN, NaN, 0.0299091, "- N/A -   "
24.21, 774.782, 0.0405489, NaN, NaN, NaN, 0.0286883, "- N/A -   "
24.25, 776.32, 0.0406128, NaN, NaN, NaN, 0.0299091, "- N/A -   "
24.29, 777.976, 0.04067386, NaN, NaN, NaN, 0.0323506, "- N/A -   "
24.33, 779.7502, 0.0407461, NaN, NaN, NaN, 0.0299091, "- N/A -   "
24.37, 781.6427, 0.0408155, NaN, NaN, NaN, 0.0299091, "- N/A -   "
24.41, 783.2986, 0.0408766, NaN, NaN, NaN, 0.03112983, "- N/A -   "
24.45, 784.9545, 0.0409432, NaN, NaN, NaN, 0.03112983, "- N/A -   "
24.49, 786.4922, 0.0410015, NaN, NaN, NaN, 0.0347922, "- N/A -   "
24.53, 787.912, 0.0410543, NaN, NaN, NaN, 0.04089605, "- N/A -   "
24.57, 789.331, 0.04111259, NaN, NaN, NaN, 0.0445584, "- N/A -   "
24.61, 790.9868, 0.0411737, NaN, NaN, NaN, 0.04699994, "- N/A -   "
24.65, 792.643, 0.04123754, NaN, NaN, NaN, 0.0482207, "- N/A -   "
24.69, 794.654, 0.04131529, NaN, NaN, NaN, 0.0445584, "- N/A -   "
24.73, 796.783, 0.0413903, NaN, NaN, NaN, 0.0396753, "- N/A -   "
24.77, 798.5568, 0.0414652, NaN, NaN, NaN, 0.0372337, "- N/A -   "
24.81, 800.449, 0.0415347, NaN, NaN, NaN, 0.0347922, "- N/A -   "
24.85, 802.2236, 0.0416013, NaN, NaN, NaN, 0.0347922, "- N/A -   "
24.89, 804.116, 0.0416707, NaN, NaN, NaN, 0.0335714, "- N/A -   "
24.93, 806.0085, 0.04174291, NaN, NaN, NaN, 0.03112983, "- N/A -   "
24.97, 807.7828, 0.0418123, NaN, NaN, NaN, 0.03112983, "- N/A -   "
25.01, 809.557, 0.0418817, NaN, NaN, NaN, 0.0299091, "- N/A -   "
25.05, 811.2129, 0.04194284, NaN, NaN, NaN, 0.03112983, "- N/A -   "
25.09, 812.869, 0.0420067, NaN, NaN, NaN, 0.0335714, "- N/A -   "
25.13, 814.5247, 0.0420678, NaN, NaN, NaN, 0.0347922, "- N/A -   "
25.17, 816.0624, 0.0421261, NaN, NaN, NaN, 0.0384545, "- N/A -   "
25.21, 817.4818, 0.04218719, NaN, NaN, NaN, 0.04211683, "- N/A -   "
25.25, 819.1377, 0.04224828, NaN, NaN, NaN, 0.0433376, "- N/A -   "
25.29, 820.9119, 0.0423177, NaN, NaN, NaN, 0.0433376, "- N/A -   "
25.33, 822.686, 0.0423816, NaN, NaN, NaN, 0.0433376, "- N/A -   "
25.37, 824.342, 0.04245098, NaN, NaN, NaN, 0.0433376, "- N/A -   "
25.41, 826.353, 0.0425204, NaN, NaN, NaN, 0.04089605, "- N/A -   "
25.45, 828.245, 0.04259537, NaN, NaN, NaN, 0.0384545, "- N/A -   "
25.49, 830.4927, 0.0426759, NaN, NaN, NaN, 0.03112983, "- N/A -   "
25.53, 832.6217, 0.04274809, NaN, NaN, NaN, 0.0286883, "- N/A -   "
25.57, 834.396, 0.0428203, NaN, NaN, NaN, 0.0274675, "- N/A -   "
25.61, 836.17, 0.0428842, NaN, NaN, NaN, 0.0274675, "- N/A -   "
25.65, 837.826, 0.04294802, NaN, NaN, NaN, 0.0286883, "- N/A -   "
25.69, 839.6003, 0.0430119, NaN, NaN, NaN, 0.0299091, "- N/A -   "
25.73, 841.138, 0.043073, NaN, NaN, NaN, 0.0323506, "- N/A -   "
25.77, 842.7938, 0.0431341, NaN, NaN, NaN, 0.03601294, "- N/A -   "
25.81, 844.4498, 0.0432007, NaN, NaN, NaN, 0.0347922, "- N/A -   "
25.85, 846.1058, 0.0432618, NaN, NaN, NaN, 0.0372337, "- N/A -   "
25.89, 847.88, 0.04332566, NaN, NaN, NaN, 0.0384545, "- N/A -   "
25.93, 849.4176, 0.04338952, NaN, NaN, NaN, 0.0396753, "- N/A -   "
25.97, 851.0735, 0.04344506, NaN, NaN, NaN, 0.0445584, "- N/A -   "
26.01, 852.729, 0.04350615, NaN, NaN, NaN, 0.04699994, "- N/A -   "
26.05, 854.622, 0.04358112, NaN, NaN, NaN, 0.0433376, "- N/A -   "
26.09, 856.8693, 0.0436616, NaN, NaN, NaN, 0.0372337, "- N/A -   "
26.13, 858.88, 0.0437366, NaN, NaN, NaN, 0.0335714, "- N/A -   "
26.17, 860.8908, 0.0438116, NaN, NaN, NaN, 0.03112983, "- N/A -   "
26.21, 862.547, 0.04387823, NaN, NaN, NaN, 0.03112983, "- N/A -   "
26.25, 864.0844, 0.0439365, NaN, NaN, NaN, 0.0347922, "- N/A -   "
26.29, 865.74, 0.0439949, NaN, NaN, NaN, 0.0384545, "- N/A -   "
26.33, 867.5146, 0.0440643, NaN, NaN, NaN, 0.0372337, "- N/A -   "
26.37, 869.407, 0.04413647, NaN, NaN, NaN, 0.0347922, "- N/A -   "
26.41, 871.3, 0.0442087, NaN, NaN, NaN, 0.0335714, "- N/A -   "
26.45, 872.9555, 0.0442698, NaN, NaN, NaN, 0.0347922, "- N/A -   "
26.49, 874.73, 0.0443336, NaN, NaN, NaN, 0.03601294, "- N/A -   "
26.53, 876.267, 0.04439471, NaN, NaN, NaN, 0.0384545, "- N/A -   "
26.57, 877.805, 0.04445302, NaN, NaN, NaN, 0.04211683, "- N/A -   "
26.61, 879.4609, 0.0445169, NaN, NaN, NaN, 0.0433376, "- N/A -   "
26.65, 881.4717, 0.04459186, NaN, NaN, NaN, 0.04089605, "- N/A -   "
26.69, 883.3642, 0.0446585, NaN, NaN, NaN, 0.04089605, "- N/A -   "
26.73, 885.1384, 0.04472514, NaN, NaN, NaN, 0.0396753, "- N/A -   "
26.77, 887.1492, 0.0448001, NaN, NaN, NaN, 0.03601294, "- N/A -   "
26.81, 888.9234, 0.0448668, NaN, NaN, NaN, 0.0372337, "- N/A -   "
26.85, 890.698, 0.0449334, NaN, NaN, NaN, 0.03601294, "- N/A -   "
26.89, 892.3535, 0.04500004, NaN, NaN, NaN, 0.0372337, "- N/A -   "
26.93, 894.246, 0.04506668, NaN, NaN, NaN, 0.03601294, "- N/A -   "
26.97, 896.257, 0.0451389, NaN, NaN, NaN, 0.0335714, "- N/A -   "
27.01, 898.1493, 0.0452111, NaN, NaN, NaN, 0.0323506, "- N/A -   "
27.05, 900.0418, 0.0452777, NaN, NaN, NaN, 0.03112983, "- N/A -   "
27.09, 901.698, 0.0453444, NaN, NaN, NaN, 0.03112983, "- N/A -   "
27.13, 903.472, 0.0454082, NaN, NaN, NaN, 0.0323506, "- N/A -   "
27.17, 905.128, 0.0454721, NaN, NaN, NaN, 0.0335714, "- N/A -   "
27.21, 906.9021, 0.045536, NaN, NaN, NaN, 0.0347922, "- N/A -   "
27.25, 908.4397, 0.0455943, NaN, NaN, NaN, 0.0384545, "- N/A -   "
27.29, 910.096, 0.04565813, NaN, NaN, NaN, 0.04089605, "- N/A -   "
27.33, 911.752, 0.045722, NaN, NaN, NaN, 0.04089605, "- N/A -   "
27.37, 913.289, 0.0457831, NaN, NaN, NaN, 0.0433376, "- N/A -   "
27.41, 915.0635, 0.04584695, NaN, NaN, NaN, 0.0445584, "- N/A -   "
27.45, 916.8377, 0.04591359, NaN, NaN, NaN, 0.04577916, "- N/A -   "
27.49, 918.848, 0.0459886, NaN, NaN, NaN, 0.04211683, "- N/A -   "
27.53, 921.096, 0.0460663, NaN, NaN, NaN, 0.03601294, "- N/A -   "
27.57, 923.225, 0.0461413, NaN, NaN, NaN, 0.0323506, "- N/A -   "
27.61, 924.8808, 0.0462024, NaN, NaN, NaN, 0.0347922, "- N/A -   "
27.65, 926.5367, 0.046269, NaN, NaN, NaN, 0.03601294, "- N/A -   "
27.69, 928.3109, 0.04633288, NaN, NaN, NaN, 0.03601294, "- N/A -   "
27.73, 930.085, 0.0464023, NaN, NaN, NaN, 0.0347922, "- N/A -   "
27.77, 932.214, 0.0464828, NaN, NaN, NaN, 0.0299091, "- N/A -   "
27.81, 933.9884, 0.04654947, NaN, NaN, NaN, 0.0286883, "- N/A -   "
27.85, 935.644, 0.0466106, NaN, NaN, NaN, 0.03112983, "- N/A -   "
27.89, 937.182, 0.0466716, NaN, NaN, NaN, 0.0347922, "- N/A -   "
27.93, 938.6014, 0.0467244, NaN, NaN, NaN, 0.0396753, "- N/A -   "
27.97, 940.139, 0.04678549, NaN, NaN, NaN, 0.04211683, "- N/A -   "
28.01, 941.9132, 0.04684658, NaN, NaN, NaN, 0.0445584, "- N/A -   "
28.05, 943.687, 0.04691322, NaN, NaN, NaN, 0.0445584, "- N/A -   "
28.09, 945.4617, 0.04698264, NaN, NaN, NaN, 0.0433376, "- N/A -   "
28.13, 947.591, 0.04706039, NaN, NaN, NaN, 0.0396753, "- N/A -   "
28.17, 949.601, 0.0471326, NaN, NaN, NaN, 0.0372337, "- N/A -   "
28.21, 951.494, 0.047202, NaN, NaN, NaN, 0.0347922, "- N/A -   "
28.25, 953.2682, 0.0472714, NaN, NaN, NaN, 0.0335714, "- N/A -   "
28.29, 955.161, 0.04734084, NaN, NaN, NaN, 0.0323506, "- N/A -   "
28.33, 957.29, 0.0474158, NaN, NaN, NaN, 0.0299091, "- N/A -   "
28.37, 959.182, 0.04748801, NaN, NaN, NaN, 0.0262467, "- N/A -   "
28.41, 960.9565, 0.04755465, NaN, NaN, NaN, 0.0274675, "- N/A -   "
28.45, 962.4941, 0.04761574, NaN, NaN, NaN, 0.0286883, "- N/A -   "
28.49, 964.15, 0.0476768, NaN, NaN, NaN, 0.03112983, "- N/A -   "
28.53, 965.6876, 0.04773514, NaN, NaN, NaN, 0.03601294, "- N/A -   "
28.57, 967.107, 0.0477879, NaN, NaN, NaN, 0.04089605, "- N/A -   "
28.61, 968.526, 0.0478462, NaN, NaN, NaN, 0.0445584, "- N/A -   "
28.65, 970.4189, 0.0479101, NaN, NaN, NaN, 0.04577916, "- N/A -   "
28.69, 972.4297, 0.04798227, NaN, NaN, NaN, 0.0433376, "- N/A -   "
28.73, 974.086, 0.0480489, NaN, NaN, NaN, 0.0445584, "- N/A -   "
28.77, 975.8598, 0.04811278, NaN, NaN, NaN, 0.04577916, "- N/A -   "
28.81, 977.7523, 0.0481822, NaN, NaN, NaN, 0.0433376, "- N/A -   "
28.85, 979.645, 0.0482544, NaN, NaN, NaN, 0.04089605, "- N/A -   "
28.89, 981.892, 0.04833492, NaN, NaN, NaN, 0.03601294, "- N/A -   "
28.93, 984.0212, 0.04841267, NaN, NaN, NaN, 0.0299091, "- N/A -   "
28.97, 985.7954, 0.0484765, NaN, NaN, NaN, 0.03112983, "- N/A -   "
29.01, 987.57, 0.0485432, NaN, NaN, NaN, 0.03112983, "- N/A -   "
29.05, 989.3438, 0.04860982, NaN, NaN, NaN, 0.03112983, "- N/A -   "
29.09, 991, 0.0486709, NaN, NaN, NaN, 0.0335714, "- N/A -   "
29.13, 992.8923, 0.0487348, NaN, NaN, NaN, 0.03601294, "- N/A -   "
29.17, 994.4299, 0.0487986, NaN, NaN, NaN, 0.0372337, "- N/A -   "
29.21, 996.4407, 0.0488653, NaN, NaN, NaN, 0.03601294, "- N/A -   "
29.25, 998.2149, 0.0489291, NaN, NaN, NaN, 0.0372337, "- N/A -   "
29.29, 999.7525, 0.04899023, NaN, NaN, NaN, 0.04089605, "- N/A -   "
29.33, 1001.41, 0.0490513, NaN, NaN, NaN, 0.04211683, "- N/A -   "
29.37, 1003.06, 0.0491152, NaN, NaN, NaN, 0.0445584, "- N/A -   "
29.41, 1004.84, 0.04917905, NaN, NaN, NaN, 0.0445584, "- N/A -   "
29.45, 1006.73, 0.0492512, NaN, NaN, NaN, 0.04211683, "- N/A -   "
29.49, 1009.215, 0.04933455, NaN, NaN, NaN, 0.0347922, "- N/A -   "
29.53, 1011.23, 0.0494095, NaN, NaN, NaN, 0.03112983, "- N/A -   "
29.57, 1013.12, 0.04948172, NaN, NaN, NaN, 0.0299091, "- N/A -   "
29.61, 1015.03, 0.04954836, NaN, NaN, NaN, 0.0286883, "- N/A -   "
29.65, 1016.82, 0.049615, NaN, NaN, NaN, 0.0286883, "- N/A -   "
29.69, 1018.6, 0.04967887, NaN, NaN, NaN, 0.0299091, "- N/A -   "
29.73, 1020.27, 0.04974, NaN, NaN, NaN, 0.0323506, "- N/A -   "
29.77, 1022.06, 0.0498066, NaN, NaN, NaN, 0.0323506, "- N/A -   "
29.81, 1023.73, 0.04987324, NaN, NaN, NaN, 0.0335714, "- N/A -   "
29.85, 1025.52, 0.0499371, NaN, NaN, NaN, 0.0335714, "- N/A -   "
29.89, 1027.07, 0.04999542, NaN, NaN, NaN, 0.0372337, "- N/A -   "
29.93, 1028.86, 0.0500565, NaN, NaN, NaN, 0.0396753, "- N/A -   "
29.97, 1030.41, 0.05011204, NaN, NaN, NaN, 0.0445584, "- N/A -   "
30.01, 1031.84, 0.05017035, NaN, NaN, NaN, 0.0482207, "- N/A -   "
30.05, 1033.99, 0.0502481, NaN, NaN, NaN, 0.0445584, "- N/A -   "
30.09, 1036.13, 0.05032585, NaN, NaN, NaN, 0.0384545, "- N/A -   "
30.13, 1038.16, 0.050398, NaN, NaN, NaN, 0.03601294, "- N/A -   "
30.17, 1039.95, 0.0504675, NaN, NaN, NaN, 0.03601294, "- N/A -   "
30.21, 1041.859, 0.05053133, NaN, NaN, NaN, 0.03601294, "- N/A -   "
30.25, 1043.767, 0.05060075, NaN, NaN, NaN, 0.0347922, "- N/A -   "
30.29, 1045.56, 0.05066739, NaN, NaN, NaN, 0.0347922, "- N/A -   "
30.33, 1047.23, 0.050734, NaN, NaN, NaN, 0.0347922, "- N/A -   "
30.37, 1049.25, 0.050809, NaN, NaN, NaN, 0.0323506, "- N/A -   "
30.41, 1051.16, 0.05087287, NaN, NaN, NaN, 0.0335714, "- N/A -   "
30.45, 1052.71, 0.0509367, NaN, NaN, NaN, 0.0335714, "- N/A -   "
30.49, 1054.62, 0.0510034, NaN, NaN, NaN, 0.0335714, "- N/A -   "
30.53, 1056.29, 0.05106724, NaN, NaN, NaN, 0.0347922, "- N/A -   "
30.57, 1058.08, 0.0511367, NaN, NaN, NaN, 0.0347922, "- N/A -   "
30.61, 1060.1, 0.0512033, NaN, NaN, NaN, 0.0335714, "- N/A -   "
30.65, 1061.65, 0.05126439, NaN, NaN, NaN, 0.03601294, "- N/A -   "
30.69, 1063.21, 0.0513227, NaN, NaN, NaN, 0.04089605, "- N/A -   "
30.73, 1064.99, 0.0513893, NaN, NaN, NaN, 0.04211683, "- N/A -   "
30.77, 1066.78, 0.0514532, NaN, NaN, NaN, 0.04211683, "- N/A -   "
30.81, 1068.57, 0.0515171, NaN, NaN, NaN, 0.0445584, "- N/A -   "
30.85, 1070.48, 0.0515865, NaN, NaN, NaN, 0.04211683, "- N/A -   "
30.89, 1072.39, 0.05165591, NaN, NaN, NaN, 0.04089605, "- N/A -   "
30.93, 1074.534, 0.0517337, NaN, NaN, NaN, 0.03601294, "- N/A -   "
30.97, 1076.68, 0.0518086, NaN, NaN, NaN, 0.0323506, "- N/A -   "
31.01, 1078.35, 0.05187528, NaN, NaN, NaN, 0.0323506, "- N/A -   "
31.05, 1080.258, 0.05194192, NaN, NaN, NaN, 0.0323506, "- N/A -   "
31.09, 1082.05, 0.0520058, NaN, NaN, NaN, 0.0335714, "- N/A -   "
31.13, 1083.84, 0.052078, NaN, NaN, NaN, 0.03112983, "- N/A -   "
31.17, 1085.863, 0.0521474, NaN, NaN, NaN, 0.0299091, "- N/A -   "
31.21, 1087.65, 0.05221404, NaN, NaN, NaN, 0.0299091, "- N/A -   "
31.25, 1089.32, 0.0522807, NaN, NaN, NaN, 0.03112983, "- N/A -   "
31.29, 1090.99, 0.052339, NaN, NaN, NaN, 0.0347922, "- N/A -   "
31.33, 1092.3, 0.0523918, NaN, NaN, NaN, 0.0396753, "- N/A -   "
31.37, 1093.73, 0.05244451, NaN, NaN, NaN, 0.04577916, "- N/A -   "
31.41, 1095.64, 0.0525112, NaN, NaN, NaN, 0.04699994, "- N/A -   "
31.45, 1097.19, 0.052575, NaN, NaN, NaN, 0.04699994, "- N/A -   "
31.49, 1099.22, 0.05264444, NaN, NaN, NaN, 0.04577916, "- N/A -   "
31.53, 1101.25, 0.0527194, NaN, NaN, NaN, 0.04211683, "- N/A -   "
31.57, 1103.04, 0.05278883, NaN, NaN, NaN, 0.04089605, "- N/A -   "
31.61, 1105.18, 0.0528638, NaN, NaN, NaN, 0.0372337, "- N/A -   "
31.65, 1107.09, 0.052936, NaN, NaN, NaN, 0.0347922, "- N/A -   "
31.69, 1109.12, 0.05300819, NaN, NaN, NaN, 0.0323506, "- N/A -   "
31.73, 1111.14, 0.05308594, NaN, NaN, NaN, 0.0286883, "- N/A -   "
31.77, 1112.814, 0.05314703, NaN, NaN, NaN, 0.0299091, "- N/A -   "
31.81, 1114.6, 0.0532109, NaN, NaN, NaN, 0.03112983, "- N/A -   "
31.85, 1116.27, 0.0532775, NaN, NaN, NaN, 0.03112983, "- N/A -   "
31.89, 1118.18, 0.0533414, NaN, NaN, NaN, 0.0323506, "- N/A -   "
31.93, 1119.49, 0.05339971, NaN, NaN, NaN, 0.03601294, "- N/A -   "
31.97, 1121.16, 0.0534608, NaN, NaN, NaN, 0.0396753, "- N/A -   "
32.01, 1122.831, 0.05351911, NaN, NaN, NaN, 0.04211683, "- N/A -   "
32.05, 1124.26, 0.0535774, NaN, NaN, NaN, 0.04577916, "- N/A -   "
32.09, 1126.17, 0.0536441, NaN, NaN, NaN, 0.04577916, "- N/A -   "
32.13, 1128.2, 0.05371904, NaN, NaN, NaN, 0.04211683, "- N/A -   "
32.17, 1129.99, 0.05378568, NaN, NaN, NaN, 0.04211683, "- N/A -   "
32.21, 1131.89, 0.0538551, NaN, NaN, NaN, 0.04089605, "- N/A -   "
32.25, 1133.8, 0.0539273, NaN, NaN, NaN, 0.0396753, "- N/A -   "
32.29, 1135.95, 0.0540023, NaN, NaN, NaN, 0.0347922, "- N/A -   "
32.33, 1138.21, 0.0540828, NaN, NaN, NaN, 0.0286883, "- N/A -   "
32.37, 1140.12, 0.0541522, NaN, NaN, NaN, 0.0274675, "- N/A -   "
32.41, 1141.79, 0.05421608, NaN, NaN, NaN, 0.0286883, "- N/A -   "
32.45, 1143.58, 0.0542827, NaN, NaN, NaN, 0.0299091, "- N/A -   "
32.49, 1145.25, 0.0543466, NaN, NaN, NaN, 0.03112983, "- N/A -   "
32.53, 1147.04, 0.0544077, NaN, NaN, NaN, 0.0335714, "- N/A -   "
32.57, 1148.59, 0.054466, NaN, NaN, NaN, 0.0372337, "- N/A -   "
32.61, 1150.5, 0.0545354, NaN, NaN, NaN, 0.0347922, "- N/A -   "
32.65, 1152.41, 0.0546048, NaN, NaN, NaN, 0.0347922, "- N/A -   "
32.69, 1153.96, 0.0546631, NaN, NaN, NaN, 0.0372337, "- N/A -   "
32.73, 1155.39, 0.0547159, NaN, NaN, NaN, 0.0433376, "- N/A -   "
32.77, 1157.06, 0.054777, NaN, NaN, NaN, 0.04577916, "- N/A -   "
32.81, 1158.726, 0.0548436, NaN, NaN, NaN, 0.04577916, "- N/A -   "
32.85, 1160.634, 0.054913, NaN, NaN, NaN, 0.04577916, "- N/A -   "
32.89, 1162.78, 0.054988, NaN, NaN, NaN, 0.04089605, "- N/A -   "
32.93, 1164.81, 0.05506299, NaN, NaN, NaN, 0.0372337, "- N/A -   "
32.97, 1166.84, 0.0551352, NaN, NaN, NaN, 0.0347922, "- N/A -   "
33.01, 1168.98, 0.0552102, NaN, NaN, NaN, 0.03112983, "- N/A -   "
33.05, 1170.53, 0.055274, NaN, NaN, NaN, 0.0335714, "- N/A -   "
33.09, 1172.32, 0.05533511, NaN, NaN, NaN, 0.0347922, "- N/A -   "
33.13, 1174.11, 0.05539898, NaN, NaN, NaN, 0.03601294, "- N/A -   "
33.17, 1175.78, 0.0554684, NaN, NaN, NaN, 0.0347922, "- N/A -   "
33.21, 1177.81, 0.05554059, NaN, NaN, NaN, 0.0323506, "- N/A -   "
33.25, 1179.71, 0.05561001, NaN, NaN, NaN, 0.03112983, "- N/A -   "
33.29, 1181.38, 0.0556711, NaN, NaN, NaN, 0.0335714, "- N/A -   "
33.33, 1183.17, 0.0557322, NaN, NaN, NaN, 0.03601294, "- N/A -   "
33.37, 1184.72, 0.05579327, NaN, NaN, NaN, 0.0384545, "- N/A -   "
33.41, 1186.27, 0.0558516, NaN, NaN, NaN, 0.04211683, "- N/A -   "
33.45, 1188.06, 0.055921, NaN, NaN, NaN, 0.04089605, "- N/A -   "
33.49, 1189.97, 0.05599042, NaN, NaN, NaN, 0.04089605, "- N/A -   "
33.53, 1191.76, 0.0560571, NaN, NaN, NaN, 0.04089605, "- N/A -   "
33.57, 1193.67, 0.0561237, NaN, NaN, NaN, 0.04089605, "- N/A -   "
33.61, 1195.694, 0.0561959, NaN, NaN, NaN, 0.0372337, "- N/A -   "
33.65, 1197.602, 0.05626532, NaN, NaN, NaN, 0.03601294, "- N/A -   "
33.69, 1199.39, 0.05633474, NaN, NaN, NaN, 0.03601294, "- N/A -   "
33.73, 1201.3, 0.0564014, NaN, NaN, NaN, 0.0347922, "- N/A -   "
33.77, 1203.21, 0.0564708, NaN, NaN, NaN, 0.0335714, "- N/A -   "
33.81, 1205.23, 0.0565402, NaN, NaN, NaN, 0.0323506, "- N/A -   "
33.85, 1206.9, 0.0566069, NaN, NaN, NaN, 0.0323506, "- N/A -   "
33.89, 1208.69, 0.0566735, NaN, NaN, NaN, 0.0323506, "- N/A -   "
33.93, 1210.6, 0.0567401, NaN, NaN, NaN, 0.0323506, "- N/A -   "
33.97, 1212.51, 0.0568123, NaN, NaN, NaN, 0.0299091, "- N/A -   "
34.01, 1214.3, 0.05688176, NaN, NaN, NaN, 0.0286883, "- N/A -   "
34.05, 1215.85, 0.05694007, NaN, NaN, NaN, 0.0323506, "- N/A -   "
34.09, 1217.52, 0.0570012, NaN, NaN, NaN, 0.03601294, "- N/A -   "
34.13, 1219.07, 0.05705947, NaN, NaN, NaN, 0.0396753, "- N/A -   "
34.17, 1220.5, 0.057115, NaN, NaN, NaN, 0.0433376, "- N/A -   "
34.21, 1222.168, 0.0571789, NaN, NaN, NaN, 0.04577916, "- N/A -   "
34.25, 1224.08, 0.05724274, NaN, NaN, NaN, 0.04577916, "- N/A -   "
34.29, 1225.86, 0.0573122, NaN, NaN, NaN, 0.0445584, "- N/A -   "
34.33, 1228.01, 0.0573871, NaN, NaN, NaN, 0.04211683, "- N/A -   "
34.37, 1230.16, 0.0574649, NaN, NaN, NaN, 0.03601294, "- N/A -   "
34.41, 1232.3, 0.05753707, NaN, NaN, NaN, 0.0335714, "- N/A -   "
34.45, 1234.09, 0.0576065, NaN, NaN, NaN, 0.0323506, "- N/A -   "
34.49, 1235.882, 0.0576759, NaN, NaN, NaN, 0.0323506, "- N/A -   "
34.53, 1237.79, 0.0577426, NaN, NaN, NaN, 0.03112983, "- N/A -   "
34.57, 1239.82, 0.05781753, NaN, NaN, NaN, 0.0274675, "- N/A -   "
34.61, 1241.96, 0.0578897, NaN, NaN, NaN, 0.0250259, "- N/A -   "
34.65, 1243.39, 0.05795081, NaN, NaN, NaN, 0.0286883, "- N/A -   "
34.69, 1244.95, 0.05800912, NaN, NaN, NaN, 0.0323506, "- N/A -   "
34.73, 1246.38, 0.05806466, NaN, NaN, NaN, 0.03601294, "- N/A -   "
34.77, 1247.81, 0.0581202, NaN, NaN, NaN, 0.04089605, "- N/A -   "
34.81, 1249.48, 0.05818128, NaN, NaN, NaN, 0.0433376, "- N/A -   "
34.85, 1251.15, 0.05824237, NaN, NaN, NaN, 0.04699994, "- N/A -   "
34.89, 1252.93, 0.05831179, NaN, NaN, NaN, 0.04577916, "- N/A -   "
34.93, 1254.96, 0.058384, NaN, NaN, NaN, 0.0433376, "- N/A -   "
34.97, 1257.228, 0.058459, NaN, NaN, NaN, 0.0384545, "- N/A -   "
35.01, 1259.26, 0.0585367, NaN, NaN, NaN, 0.0335714, "- N/A -   "
35.05, 1261.28, 0.0586089, NaN, NaN, NaN, 0.0323506, "- N/A -   "
35.09, 1263.07, 0.0586755, NaN, NaN, NaN, 0.0323506, "- N/A -   "
35.13, 1264.86, 0.0587422, NaN, NaN, NaN, 0.0323506, "- N/A -   "
35.17, 1266.77, 0.0588116, NaN, NaN, NaN, 0.0299091, "- N/A -   "
35.21, 1268.68, 0.058881, NaN, NaN, NaN, 0.0299091, "- N/A -   "
35.25, 1270.465, 0.0589504, NaN, NaN, NaN, 0.0286883, "- N/A -   "
35.29, 1272.25, 0.0590143, NaN, NaN, NaN, 0.0299091, "- N/A -   "
35.33, 1273.8, 0.0590726, NaN, NaN, NaN, 0.0347922, "- N/A -   "
35.37, 1275.24, 0.0591282, NaN, NaN, NaN, 0.0384545, "- N/A -   "
35.41, 1276.9, 0.05918924, NaN, NaN, NaN, 0.04089605, "- N/A -   "
35.45, 1278.57, 0.05925033, NaN, NaN, NaN, 0.0433376, "- N/A -   "
35.49, 1280.24, 0.05931142, NaN, NaN, NaN, 0.04577916, "- N/A -   "
35.53, 1282.03, 0.05937806, NaN, NaN, NaN, 0.04699994, "- N/A -   "
35.57, 1283.702, 0.0594419, NaN, NaN, NaN, 0.04699994, "- N/A -   "
35.61, 1285.73, 0.0595169, NaN, NaN, NaN, 0.0445584, "- N/A -   "
35.65, 1287.88, 0.05959187, NaN, NaN, NaN, 0.0396753, "- N/A -   "
35.69, 1289.903, 0.0596668, NaN, NaN, NaN, 0.03601294, "- N/A -   "
35.73, 1291.93, 0.0597418, NaN, NaN, NaN, 0.0335714, "- N/A -   "
35.77, 1293.84, 0.05981123, NaN, NaN, NaN, 0.03112983, "- N/A -   "
35.81, 1295.63, 0.0598807, NaN, NaN, NaN, 0.03112983, "- N/A -   "
35.85, 1297.3, 0.0599445, NaN, NaN, NaN, 0.0323506, "- N/A -   "
35.87, 1298.01, 0.05997506, NaN, NaN, NaN, 0.0323506, "- N/A -   "