File: 2_Tensile_Data/Hamel_ForceTest_Bolt4_Test5.csv
Time, Load (lb), Position (in), AxialStrain (in), TransverseStrain (in), Auxiliary (), Control Out (V), Stress (psi)
0.0, 1.17947, 0.0, NaN, NaN, NaN, 0.0872856, "- N/A -   "
0.01, 1.65126, 2.49908e-05, NaN, NaN, NaN, 0.095831, "- N/A -   "
0.02, 2.35895, 5.5535e-05, NaN, NaN, NaN, 0.101935, "- N/A -   "
0.03, 2.83074, 8.607931E-5, NaN, NaN, NaN, 0.09705182, "- N/A -   "
0.04, 3.42048, 0.000116624, NaN, NaN, NaN, 0.09094793, "- N/A -   "
0.05, 4.010214, 0.000147168, NaN, NaN, NaN, 0.084844, "- N/A -   "
0.06, 4.59995, 0.000177712, NaN, NaN, NaN, 0.0799609, "- N/A -   "
0.07, 5.071741, 0.000202703, NaN, NaN, NaN, 0.0750778, "- N/A -   "
0.08, 5.425584, 0.000227694, NaN, NaN, NaN, 0.07141549, "- N/A -   "
0.09, 6.01532, 2.526844E-4, NaN, NaN, NaN, 0.06775316, "- N/A -   "
0.1, 6.369163, 2.776752E-4, NaN, NaN, NaN, 0.0653116, "- N/A -   "
0.11, 6.84095, 2.998892E-4, NaN, NaN, NaN, 0.06164927, "- N/A -   "
0.12, 7.312743, 3.221032E-4, NaN, NaN, NaN, 0.0592077, "- N/A -   "
0.13, 7.666586, 0.000344317, NaN, NaN, NaN, 0.05676616, "- N/A -   "
0.14, 8.138375, 3.69308E-4, NaN, NaN, NaN, 0.0543246, "- N/A -   "
0.15, 8.492218, 0.000394299, NaN, NaN, NaN, 0.05066227, "- N/A -   "
0.16, 8.964007, 4.13736E-4, NaN, NaN, NaN, 0.0482207, "- N/A -   "
0.17, 9.435798, 0.00043595, NaN, NaN, NaN, 0.04577916, "- N/A -   "
0.18, 9.907588, 0.000458164, NaN, NaN, NaN, 0.0433376, "- N/A -   "
0.19, 10.26143, 0.000480378, NaN, NaN, NaN, 0.04089605, "- N/A -   "
0.2, 10.6153, 0.000499815, NaN, NaN, NaN, 0.0396753, "- N/A -   "
0.21, 10.9691, 5.164758E-4, NaN, NaN, NaN, 0.0396753, "- N/A -   "
0.22, 11.323, 5.359131E-4, NaN, NaN, NaN, 0.0384545, "- N/A -   "
0.23, 11.6768, 5.525736E-4, NaN, NaN, NaN, 0.0384545, "- N/A -   "
0.24, 12.0306, 5.720109E-4, NaN, NaN, NaN, 0.0372337, "- N/A -   "
0.25, 12.2665, 5.858946E-4, NaN, NaN, NaN, 0.0384545, "- N/A -   "
0.26, 12.6204, 0.000602555, NaN, NaN, NaN, 0.0384545, "- N/A -   "
0.27, 12.7383, 0.000619216, NaN, NaN, NaN, 0.0396753, "- N/A -   "
0.28, 13.09217, 6.330994E-4, NaN, NaN, NaN, 0.0396753, "- N/A -   "
0.29, 13.446, 6.497599E-4, NaN, NaN, NaN, 0.04089605, "- N/A -   "
0.3, 13.7999, 6.636437E-4, NaN, NaN, NaN, 0.04089605, "- N/A -   "
0.31, 14.0357, 0.000677527, NaN, NaN, NaN, 0.04211683, "- N/A -   "
0.32, 14.2716, 6.914112E-4, NaN, NaN, NaN, 0.0433376, "- N/A -   "
0.33, 14.5075, 7.080717E-4, NaN, NaN, NaN, 0.0445584, "- N/A -   "
0.34, 14.8614, 0.000724732, NaN, NaN, NaN, 0.0445584, "- N/A -   "
0.35, 15.0973, 7.413927E-4, NaN, NaN, NaN, 0.0433376, "- N/A -   "
0.36, 15.4511, 0.000758053, NaN, NaN, NaN, 0.0433376, "- N/A -   "
0.37, 15.687, 7.691603E-4, NaN, NaN, NaN, 0.04577916, "- N/A -   "
0.38, 16.0409, 0.000783044, NaN, NaN, NaN, 0.04699994, "- N/A -   "
0.39, 16.27675, 7.997045E-4, NaN, NaN, NaN, 0.04699994, "- N/A -   "
0.4, 16.6306, 0.000813588, NaN, NaN, NaN, 0.0482207, "- N/A -   "
0.41, 16.86649, 8.302488E-4, NaN, NaN, NaN, 0.0482207, "- N/A -   "
0.42, 17.2203, 8.469093E-4, NaN, NaN, NaN, 0.0482207, "- N/A -   "
0.43, 17.4562, 8.663466E-4, NaN, NaN, NaN, 0.0482207, "- N/A -   "
0.44, 17.8101, 8.830071E-4, NaN, NaN, NaN, 0.04699994, "- N/A -   "
0.45, 18.16391, 0.000902444, NaN, NaN, NaN, 0.04577916, "- N/A -   "
0.46, 18.5178, 0.000919105, NaN, NaN, NaN, 0.04577916, "- N/A -   "
0.47, 18.8716, 9.385421E-4, NaN, NaN, NaN, 0.04577916, "- N/A -   "
0.48, 19.2254, 0.000957979, NaN, NaN, NaN, 0.0433376, "- N/A -   "
0.49, 19.57928, 9.746399E-4, NaN, NaN, NaN, 0.0433376, "- N/A -   "
0.5, 19.9331, 9.940772E-4, NaN, NaN, NaN, 0.04211683, "- N/A -   "
0.51, 20.287, 0.00101351, NaN, NaN, NaN, 0.04089605, "- N/A -   "
0.52, 20.7588, 0.00103295, NaN, NaN, NaN, 0.0396753, "- N/A -   "
0.53, 21.1126, 0.00105239, NaN, NaN, NaN, 0.0396753, "- N/A -   "
0.54, 21.2305, 0.00106905, NaN, NaN, NaN, 0.0384545, "- N/A -   "
0.55, 21.7023, 0.00108849, NaN, NaN, NaN, 0.0384545, "- N/A -   "
0.56, 22.0562, 0.00110515, NaN, NaN, NaN, 0.0372337, "- N/A -   "
0.57, 22.41, 0.00112458, NaN, NaN, NaN, 0.03601294, "- N/A -   "
0.58, 22.6459, 0.001141245, NaN, NaN, NaN, 0.03601294, "- N/A -   "
0.59, 22.9998, 0.00115791, NaN, NaN, NaN, 0.03601294, "- N/A -   "
0.6, 23.3536, 0.00117734, NaN, NaN, NaN, 0.03601294, "- N/A -   "
0.61, 23.4715, 0.00119123, NaN, NaN, NaN, 0.03601294, "- N/A -   "
0.62, 23.82539, 0.00120789, NaN, NaN, NaN, 0.03601294, "- N/A -   "
0.63, 24.29718, 0.00122455, NaN, NaN, NaN, 0.03601294, "- N/A -   "
0.64, 24.5331, 0.00124398, NaN, NaN, NaN, 0.03601294, "- N/A -   "
0.65, 24.8869, 0.00126065, NaN, NaN, NaN, 0.0347922, "- N/A -   "
0.66, 25.3587, 0.00128008, NaN, NaN, NaN, 0.0335714, "- N/A -   "
0.67, 25.5946, 0.00129952, NaN, NaN, NaN, 0.0323506, "- N/A -   "
0.68, 25.9484, 0.00131896, NaN, NaN, NaN, 0.03112983, "- N/A -   "
0.69, 26.3023, 0.00133839, NaN, NaN, NaN, 0.0299091, "- N/A -   "
0.7, 26.6561, 0.00135783, NaN, NaN, NaN, 0.0286883, "- N/A -   "
0.71, 26.892, 0.00137449, NaN, NaN, NaN, 0.0286883, "- N/A -   "
0.72, 27.2459, 0.00139115, NaN, NaN, NaN, 0.0286883, "- N/A -   "
0.73, 27.4818, 0.00141059, NaN, NaN, NaN, 0.0286883, "- N/A -   "
0.74, 27.95355, 0.00142725, NaN, NaN, NaN, 0.0274675, "- N/A -   "
0.75, 28.1894, 0.00144113, NaN, NaN, NaN, 0.0286883, "- N/A -   "
0.76, 28.42534, 0.00145779, NaN, NaN, NaN, 0.0286883, "- N/A -   "
0.77, 28.6612, 0.00147446, NaN, NaN, NaN, 0.0299091, "- N/A -   "
0.78, 29.0151, 0.00149112, NaN, NaN, NaN, 0.0299091, "- N/A -   "
0.79, 29.251, 0.001505, NaN, NaN, NaN, 0.0299091, "- N/A -   "
0.8, 29.4869, 0.00152166, NaN, NaN, NaN, 0.0299091, "- N/A -   "
0.81, 29.7228, 0.00153832, NaN, NaN, NaN, 0.0299091, "- N/A -   "
0.82, 30.0766, 0.001554981, NaN, NaN, NaN, 0.0299091, "- N/A -   "
0.83, 30.3125, 0.00157164, NaN, NaN, NaN, 0.0299091, "- N/A -   "
0.84, 30.5484, 0.00158553, NaN, NaN, NaN, 0.03112983, "- N/A -   "
0.85, 30.78429, 0.00160219, NaN, NaN, NaN, 0.0323506, "- N/A -   "
0.86, 31.0202, 0.00161607, NaN, NaN, NaN, 0.0323506, "- N/A -   "
0.87, 31.374, 0.00163273, NaN, NaN, NaN, 0.0323506, "- N/A -   "
0.88, 31.6099, 0.00164661, NaN, NaN, NaN, 0.0335714, "- N/A -   "
0.89, 31.8458, 0.0016605, NaN, NaN, NaN, 0.0347922, "- N/A -   "
0.9, 31.9638, 0.00167438, NaN, NaN, NaN, 0.03601294, "- N/A -   "
0.91, 32.1997, 0.00168827, NaN, NaN, NaN, 0.0372337, "- N/A -   "
0.92, 32.5535, 0.00170215, NaN, NaN, NaN, 0.0384545, "- N/A -   "
0.93, 32.7894, 0.00171881, NaN, NaN, NaN, 0.0396753, "- N/A -   "
0.94, 33.02529, 0.00172992, NaN, NaN, NaN, 0.04089605, "- N/A -   "
0.95, 33.2612, 0.00174658, NaN, NaN, NaN, 0.04089605, "- N/A -   "
0.96, 33.3791, 0.00176046, NaN, NaN, NaN, 0.04211683, "- N/A -   "
0.97, 33.73298, 0.00177434, NaN, NaN, NaN, 0.0433376, "- N/A -   "
0.98, 33.8509, 0.00178823, NaN, NaN, NaN, 0.0445584, "- N/A -   "
0.99, 34.2048, 0.00180489, NaN, NaN, NaN, 0.0445584, "- N/A -   "
1, 34.4407, 0.00182155, NaN, NaN, NaN, 0.04577916, "- N/A -   "
1.01, 34.6766, 0.00183821, NaN, NaN, NaN, 0.04577916, "- N/A -   "
1.02, 35.0304, 0.00185487, NaN, NaN, NaN, 0.04577916, "- N/A -   "
1.03, 35.2663, 0.00187153, NaN, NaN, NaN, 0.0445584, "- N/A -   "
1.04, 35.50219, 0.00188819, NaN, NaN, NaN, 0.04577916, "- N/A -   "
1.05, 35.7381, 0.001902075, NaN, NaN, NaN, 0.04577916, "- N/A -   "
1.06, 36.0919, 0.00191874, NaN, NaN, NaN, 0.04577916, "- N/A -   "
1.07, 36.32782, 0.001935396, NaN, NaN, NaN, 0.04577916, "- N/A -   "
1.08, 36.6817, 0.00195206, NaN, NaN, NaN, 0.04577916, "- N/A -   "
1.09, 36.79961, 0.00197149, NaN, NaN, NaN, 0.0445584, "- N/A -   "
1.1, 37.15345, 0.00198815, NaN, NaN, NaN, 0.0445584, "- N/A -   "
1.11, 37.5073, 0.00200481, NaN, NaN, NaN, 0.0445584, "- N/A -   "
1.12, 37.74319, 0.00202148, NaN, NaN, NaN, 0.0445584, "- N/A -   "
1.13, 37.9791, 0.002038136, NaN, NaN, NaN, 0.0445584, "- N/A -   "
1.14, 38.215, 0.002057573, NaN, NaN, NaN, 0.0433376, "- N/A -   "
1.15, 38.5688, 0.00207423, NaN, NaN, NaN, 0.0433376, "- N/A -   "
1.16, 38.8047, 0.00209089, NaN, NaN, NaN, 0.0433376, "- N/A -   "
1.17, 39.04061, 0.00210755, NaN, NaN, NaN, 0.0433376, "- N/A -   "
1.18, 39.3945, 0.00212422, NaN, NaN, NaN, 0.0433376, "- N/A -   "
1.19, 39.5124, 0.00214365, NaN, NaN, NaN, 0.04211683, "- N/A -   "
1.2, 39.8662, 0.00216309, NaN, NaN, NaN, 0.04211683, "- N/A -   "
1.21, 40.22009, 0.002182527, NaN, NaN, NaN, 0.0396753, "- N/A -   "
1.22, 40.456, 0.00220196, NaN, NaN, NaN, 0.0384545, "- N/A -   "
1.23, 40.8098, 0.0022214, NaN, NaN, NaN, 0.0384545, "- N/A -   "
1.24, 41.16367, 0.00224084, NaN, NaN, NaN, 0.03601294, "- N/A -   "
1.25, 41.51751, 0.002260276, NaN, NaN, NaN, 0.0347922, "- N/A -   "
1.26, 41.7534, 0.00227971, NaN, NaN, NaN, 0.0335714, "- N/A -   "
1.27, 42.1072, 0.00229915, NaN, NaN, NaN, 0.0323506, "- N/A -   "
1.28, 42.3431, 0.00231859, NaN, NaN, NaN, 0.03112983, "- N/A -   "
1.29, 42.579, 0.002338025, NaN, NaN, NaN, 0.0299091, "- N/A -   "
1.3, 42.93288, 0.00235469, NaN, NaN, NaN, 0.0299091, "- N/A -   "
1.31, 43.0508, 0.002371346, NaN, NaN, NaN, 0.0299091, "- N/A -   "
1.32, 43.2867, 0.00238801, NaN, NaN, NaN, 0.0299091, "- N/A -   "
1.33, 43.5226, 0.002404667, NaN, NaN, NaN, 0.0299091, "- N/A -   "
1.34, 43.75851, 0.0024241, NaN, NaN, NaN, 0.0299091, "- N/A -   "
1.35, 43.9944, 0.002440765, NaN, NaN, NaN, 0.0286883, "- N/A -   "
1.36, 44.2303, 0.00245743, NaN, NaN, NaN, 0.0299091, "- N/A -   "
1.37, 44.4662, 0.002474086, NaN, NaN, NaN, 0.0286883, "- N/A -   "
1.38, 44.70209, 0.00248797, NaN, NaN, NaN, 0.0299091, "- N/A -   "
1.39, 44.93799, 0.00250463, NaN, NaN, NaN, 0.03112983, "- N/A -   "
1.4, 45.17388, 0.002518514, NaN, NaN, NaN, 0.03112983, "- N/A -   "
1.41, 45.40978, 0.00253517, NaN, NaN, NaN, 0.03112983, "- N/A -   "
1.42, 45.6457, 0.002551835, NaN, NaN, NaN, 0.03112983, "- N/A -   "
1.43, 45.8816, 0.0025685, NaN, NaN, NaN, 0.03112983, "- N/A -   "
1.44, 45.9995, 0.00258238, NaN, NaN, NaN, 0.0323506, "- N/A -   "
1.45, 46.3534, 0.00259904, NaN, NaN, NaN, 0.0323506, "- N/A -   "
1.46, 46.4713, 0.00261292, NaN, NaN, NaN, 0.0335714, "- N/A -   "
1.47, 46.9431, 0.00262958, NaN, NaN, NaN, 0.0335714, "- N/A -   "
1.48, 47.061, 0.00264624, NaN, NaN, NaN, 0.0335714, "- N/A -   "
1.49, 47.2969, 0.00266013, NaN, NaN, NaN, 0.0347922, "- N/A -   "
1.5, 47.4149, 0.00267679, NaN, NaN, NaN, 0.0347922, "- N/A -   "
1.51, 47.65078, 0.00269067, NaN, NaN, NaN, 0.03601294, "- N/A -   "
1.52, 47.8867, 0.002707333, NaN, NaN, NaN, 0.03601294, "- N/A -   "
1.53, 48.2405, 0.00272399, NaN, NaN, NaN, 0.0372337, "- N/A -   "
1.54, 48.47641, 0.00273788, NaN, NaN, NaN, 0.0372337, "- N/A -   "
1.55, 48.59436, 0.00275454, NaN, NaN, NaN, 0.0384545, "- N/A -   "
1.56, 48.9482, 0.0027712, NaN, NaN, NaN, 0.0372337, "- N/A -   "
1.57, 49.0661, 0.00278786, NaN, NaN, NaN, 0.0372337, "- N/A -   "
1.58, 49.41999, 0.00280452, NaN, NaN, NaN, 0.0372337, "- N/A -   "
1.59, 49.6559, 0.00282118, NaN, NaN, NaN, 0.0372337, "- N/A -   "
1.6, 50.0097, 0.00283784, NaN, NaN, NaN, 0.0372337, "- N/A -   "
1.61, 50.2456, 0.002854501, NaN, NaN, NaN, 0.0372337, "- N/A -   "
1.62, 50.4815, 0.00287116, NaN, NaN, NaN, 0.0372337, "- N/A -   "
1.63, 50.7174, 0.002887822, NaN, NaN, NaN, 0.0372337, "- N/A -   "
1.64, 50.9533, 0.00290171, NaN, NaN, NaN, 0.0384545, "- N/A -   "
1.65, 51.1892, 0.00291559, NaN, NaN, NaN, 0.0396753, "- N/A -   "
1.66, 51.30715, 0.00292947, NaN, NaN, NaN, 0.04089605, "- N/A -   "
1.67, 51.66099, 0.002943357, NaN, NaN, NaN, 0.04211683, "- N/A -   "
1.68, 51.7789, 0.002957241, NaN, NaN, NaN, 0.0433376, "- N/A -   "
1.69, 52.01483, 0.0029739, NaN, NaN, NaN, 0.0433376, "- N/A -   "
1.7, 52.36868, 0.00299056, NaN, NaN, NaN, 0.0433376, "- N/A -   "
1.71, 52.48662, 0.00300722, NaN, NaN, NaN, 0.0433376, "- N/A -   "
1.72, 52.84047, 0.00302388, NaN, NaN, NaN, 0.0433376, "- N/A -   "
1.73, 53.0764, 0.00304054, NaN, NaN, NaN, 0.0433376, "- N/A -   "
1.74, 53.3123, 0.003057204, NaN, NaN, NaN, 0.0433376, "- N/A -   "
1.75, 53.6661, 0.00307109, NaN, NaN, NaN, 0.0445584, "- N/A -   "
1.76, 53.902, 0.003087748, NaN, NaN, NaN, 0.0445584, "- N/A -   "
1.77, 54.13789, 0.00310441, NaN, NaN, NaN, 0.0445584, "- N/A -   "
1.78, 54.3738, 0.003121069, NaN, NaN, NaN, 0.0445584, "- N/A -   "
1.79, 54.7276, 0.00313773, NaN, NaN, NaN, 0.0445584, "- N/A -   "
1.8, 54.9635, 0.00315439, NaN, NaN, NaN, 0.04577916, "- N/A -   "
1.81, 55.3174, 0.00317383, NaN, NaN, NaN, 0.0445584, "- N/A -   "
1.82, 55.6712, 0.00319326, NaN, NaN, NaN, 0.04211683, "- N/A -   "
1.83, 56.02505, 0.00321548, NaN, NaN, NaN, 0.04089605, "- N/A -   "
1.84, 56.37889, 0.003234916, NaN, NaN, NaN, 0.0384545, "- N/A -   "
1.85, 56.73273, 0.003254353, NaN, NaN, NaN, 0.0372337, "- N/A -   "
1.86, 57.08658, 0.00327379, NaN, NaN, NaN, 0.03601294, "- N/A -   "
1.87, 57.44042, 0.00329323, NaN, NaN, NaN, 0.0347922, "- N/A -   "
1.88, 57.6763, 0.003312665, NaN, NaN, NaN, 0.0347922, "- N/A -   "
1.89, 57.91221, 0.00332933, NaN, NaN, NaN, 0.0335714, "- N/A -   "
1.9, 58.26605, 0.00334876, NaN, NaN, NaN, 0.0335714, "- N/A -   "
1.91, 58.5019, 0.00336542, NaN, NaN, NaN, 0.0323506, "- N/A -   "
1.92, 58.8558, 0.00338486, NaN, NaN, NaN, 0.03112983, "- N/A -   "
1.93, 59.2096, 0.0034043, NaN, NaN, NaN, 0.03112983, "- N/A -   "
1.94, 59.4455, 0.00342096, NaN, NaN, NaN, 0.0299091, "- N/A -   "
1.95, 59.79937, 0.0034404, NaN, NaN, NaN, 0.0299091, "- N/A -   "
1.96, 60.0353, 0.00345706, NaN, NaN, NaN, 0.0286883, "- N/A -   "
1.97, 60.3891, 0.00347372, NaN, NaN, NaN, 0.0286883, "- N/A -   "
1.98, 60.625, 0.00349038, NaN, NaN, NaN, 0.0286883, "- N/A -   "
1.99, 60.8609, 0.00350704, NaN, NaN, NaN, 0.0299091, "- N/A -   "
2, 61.2147, 0.00352092, NaN, NaN, NaN, 0.0299091, "- N/A -   "
2.01, 61.2147, 0.00353481, NaN, NaN, NaN, 0.03112983, "- N/A -   "
2.02, 61.56858, 0.00354869, NaN, NaN, NaN, 0.0323506, "- N/A -   "
2.03, 61.8045, 0.00356535, NaN, NaN, NaN, 0.0323506, "- N/A -   "
2.04, 62.0404, 0.00358201, NaN, NaN, NaN, 0.0323506, "- N/A -   "
2.05, 62.3942, 0.00359589, NaN, NaN, NaN, 0.0335714, "- N/A -   "
2.06, 62.6301, 0.003615331, NaN, NaN, NaN, 0.0335714, "- N/A -   "
2.07, 62.98395, 0.00363199, NaN, NaN, NaN, 0.0323506, "- N/A -   "
2.08, 63.1019, 0.00364588, NaN, NaN, NaN, 0.0335714, "- N/A -   "
2.09, 63.33779, 0.003659759, NaN, NaN, NaN, 0.0347922, "- N/A -   "
2.1, 63.6916, 0.00367642, NaN, NaN, NaN, 0.0347922, "- N/A -   "
2.11, 64.04548, 0.00369308, NaN, NaN, NaN, 0.0347922, "- N/A -   "
2.12, 64.16342, 0.00370974, NaN, NaN, NaN, 0.0347922, "- N/A -   "
2.13, 64.5173, 0.003726401, NaN, NaN, NaN, 0.0347922, "- N/A -   "
2.14, 64.87111, 0.00374584, NaN, NaN, NaN, 0.0335714, "- N/A -   "
2.15, 65.22495, 0.0037625, NaN, NaN, NaN, 0.0335714, "- N/A -   "
2.16, 65.4608, 0.003781936, NaN, NaN, NaN, 0.0335714, "- N/A -   "
2.17, 65.81469, 0.0037986, NaN, NaN, NaN, 0.0323506, "- N/A -   "
2.18, 66.05058, 0.003815257, NaN, NaN, NaN, 0.0323506, "- N/A -   "
2.19, 66.2865, 0.00383469, NaN, NaN, NaN, 0.0323506, "- N/A -   "
2.2, 66.75827, 0.00385135, NaN, NaN, NaN, 0.03112983, "- N/A -   "
2.21, 67.1121, 0.00386802, NaN, NaN, NaN, 0.03112983, "- N/A -   "
2.22, 67.34801, 0.003881899, NaN, NaN, NaN, 0.0323506, "- N/A -   "
2.23, 67.5839, 0.00389856, NaN, NaN, NaN, 0.0323506, "- N/A -   "
2.24, 67.81979, 0.00391522, NaN, NaN, NaN, 0.0323506, "- N/A -   "
2.25, 68.05569, 0.0039291, NaN, NaN, NaN, 0.0335714, "- N/A -   "
2.26, 68.29159, 0.00394299, NaN, NaN, NaN, 0.03601294, "- N/A -   "
2.27, 68.52748, 0.00395687, NaN, NaN, NaN, 0.03601294, "- N/A -   "
2.28, 68.8813, 0.003973532, NaN, NaN, NaN, 0.0372337, "- N/A -   "
2.29, 69.11722, 0.00398742, NaN, NaN, NaN, 0.0372337, "- N/A -   "
2.3, 69.35311, 0.0040013, NaN, NaN, NaN, 0.0384545, "- N/A -   "
2.31, 69.589, 0.004015183, NaN, NaN, NaN, 0.0396753, "- N/A -   "
2.32, 69.707, 0.00402907, NaN, NaN, NaN, 0.04089605, "- N/A -   "
2.33, 69.94285, 0.00404573, NaN, NaN, NaN, 0.04089605, "- N/A -   "
2.34, 70.17874, 0.00405961, NaN, NaN, NaN, 0.04211683, "- N/A -   "
2.35, 70.5326, 0.004073495, NaN, NaN, NaN, 0.0433376, "- N/A -   "
2.36, 70.7685, 0.00409016, NaN, NaN, NaN, 0.0433376, "- N/A -   "
2.37, 71.12233, 0.004106816, NaN, NaN, NaN, 0.0433376, "- N/A -   "
2.38, 71.4762, 0.004126253, NaN, NaN, NaN, 0.04211683, "- N/A -   "
2.39, 71.83001, 0.00414291, NaN, NaN, NaN, 0.04211683, "- N/A -   "
2.4, 72.06591, 0.004162351, NaN, NaN, NaN, 0.04089605, "- N/A -   "
2.41, 72.41975, 0.00418179, NaN, NaN, NaN, 0.04089605, "- N/A -   "
2.42, 72.65564, 0.00419845, NaN, NaN, NaN, 0.0396753, "- N/A -   "
2.43, 73.00948, 0.004215109, NaN, NaN, NaN, 0.0396753, "- N/A -   "
2.44, 73.36333, 0.00423177, NaN, NaN, NaN, 0.0396753, "- N/A -   "
2.45, 73.71717, 0.004251207, NaN, NaN, NaN, 0.0396753, "- N/A -   "
2.46, 73.9531, 0.004265091, NaN, NaN, NaN, 0.0396753, "- N/A -   "
2.47, 74.189, 0.00428175, NaN, NaN, NaN, 0.04089605, "- N/A -   "
2.48, 74.42485, 0.004295635, NaN, NaN, NaN, 0.04089605, "- N/A -   "
2.49, 74.7787, 0.004312296, NaN, NaN, NaN, 0.04089605, "- N/A -   "
2.5, 75.0146, 0.00432896, NaN, NaN, NaN, 0.04089605, "- N/A -   "
2.51, 75.36844, 0.004345617, NaN, NaN, NaN, 0.04089605, "- N/A -   "
2.52, 75.6043, 0.004365054, NaN, NaN, NaN, 0.0396753, "- N/A -   "
2.53, 75.95817, 0.00438171, NaN, NaN, NaN, 0.0396753, "- N/A -   "
2.54, 76.31202, 0.00440115, NaN, NaN, NaN, 0.0396753, "- N/A -   "
2.55, 76.5479, 0.00441781, NaN, NaN, NaN, 0.0384545, "- N/A -   "
2.56, 77.0197, 0.00443725, NaN, NaN, NaN, 0.0372337, "- N/A -   "
2.57, 77.37354, 0.004456687, NaN, NaN, NaN, 0.03601294, "- N/A -   "
2.58, 77.72738, 0.004476124, NaN, NaN, NaN, 0.03601294, "- N/A -   "
2.59, 78.08122, 0.00449278, NaN, NaN, NaN, 0.0347922, "- N/A -   "
2.6, 78.31712, 0.004509445, NaN, NaN, NaN, 0.0347922, "- N/A -   "
2.61, 78.55301, 0.00452611, NaN, NaN, NaN, 0.0347922, "- N/A -   "
2.62, 78.90686, 0.004542766, NaN, NaN, NaN, 0.0347922, "- N/A -   "
2.63, 79.14275, 0.00455943, NaN, NaN, NaN, 0.0347922, "- N/A -   "
2.64, 79.37865, 0.00457331, NaN, NaN, NaN, 0.03601294, "- N/A -   "
2.65, 79.61454, 0.00459275, NaN, NaN, NaN, 0.03601294, "- N/A -   "
2.66, 79.85043, 0.00460663, NaN, NaN, NaN, 0.0372337, "- N/A -   "
2.67, 80.20428, 0.004620515, NaN, NaN, NaN, 0.0372337, "- N/A -   "
2.68, 80.44018, 0.00463718, NaN, NaN, NaN, 0.0372337, "- N/A -   "
2.69, 80.794, 0.004653836, NaN, NaN, NaN, 0.0372337, "- N/A -   "
2.7, 81.26581, 0.0046705, NaN, NaN, NaN, 0.0372337, "- N/A -   "
2.71, 81.5017, 0.00468993, NaN, NaN, NaN, 0.03601294, "- N/A -   "
2.72, 81.8555, 0.00470659, NaN, NaN, NaN, 0.03601294, "- N/A -   "
2.73, 82.20939, 0.004726032, NaN, NaN, NaN, 0.0347922, "- N/A -   "
2.74, 82.56323, 0.004742692, NaN, NaN, NaN, 0.0347922, "- N/A -   "
2.75, 82.79912, 0.00476213, NaN, NaN, NaN, 0.0335714, "- N/A -   "
2.76, 83.15297, 0.004781567, NaN, NaN, NaN, 0.0335714, "- N/A -   "
2.77, 83.50681, 0.00479545, NaN, NaN, NaN, 0.0335714, "- N/A -   "
2.78, 83.74271, 0.004814888, NaN, NaN, NaN, 0.0323506, "- N/A -   "
2.79, 83.9786, 0.00483155, NaN, NaN, NaN, 0.0323506, "- N/A -   "
2.8, 84.33244, 0.004845432, NaN, NaN, NaN, 0.0335714, "- N/A -   "
2.81, 84.56834, 0.00486209, NaN, NaN, NaN, 0.0335714, "- N/A -   "
2.82, 84.92217, 0.00488153, NaN, NaN, NaN, 0.0323506, "- N/A -   "
2.83, 85.276, 0.00489819, NaN, NaN, NaN, 0.0323506, "- N/A -   "
2.84, 85.62987, 0.004914851, NaN, NaN, NaN, 0.0323506, "- N/A -   "
2.85, 85.86576, 0.00493151, NaN, NaN, NaN, 0.0323506, "- N/A -   "
2.86, 86.2196, 0.004948172, NaN, NaN, NaN, 0.0323506, "- N/A -   "
2.87, 86.4555, 0.00496206, NaN, NaN, NaN, 0.0335714, "- N/A -   "
2.88, 86.80934, 0.004978716, NaN, NaN, NaN, 0.0335714, "- N/A -   "
2.89, 87.04523, 0.00499538, NaN, NaN, NaN, 0.0335714, "- N/A -   "
2.9, 87.28113, 0.00500926, NaN, NaN, NaN, 0.0347922, "- N/A -   "
2.91, 87.51702, 0.005025921, NaN, NaN, NaN, 0.0347922, "- N/A -   "
2.92, 87.8709, 0.005045358, NaN, NaN, NaN, 0.0347922, "- N/A -   "
2.93, 88.10676, 0.00506202, NaN, NaN, NaN, 0.0347922, "- N/A -   "
2.94, 88.57855, 0.00507868, NaN, NaN, NaN, 0.0335714, "- N/A -   "
2.95, 88.9324, 0.00509534, NaN, NaN, NaN, 0.0335714, "- N/A -   "
2.96, 89.16828, 0.005114777, NaN, NaN, NaN, 0.0323506, "- N/A -   "
2.97, 89.52213, 0.00513144, NaN, NaN, NaN, 0.0323506, "- N/A -   "
2.98, 89.758, 0.0051481, NaN, NaN, NaN, 0.0323506, "- N/A -   "
2.99, 90.11186, 0.00516476, NaN, NaN, NaN, 0.0335714, "- N/A -   "
3, 90.34776, 0.00517864, NaN, NaN, NaN, 0.0335714, "- N/A -   "
3.01, 90.70161, 0.0051953, NaN, NaN, NaN, 0.0335714, "- N/A -   "
3.02, 90.9375, 0.00521196, NaN, NaN, NaN, 0.0347922, "- N/A -   "
3.03, 91.1734, 0.005225847, NaN, NaN, NaN, 0.0347922, "- N/A -   "
3.04, 91.52724, 0.00524251, NaN, NaN, NaN, 0.03601294, "- N/A -   "
3.05, 91.76313, 0.005256391, NaN, NaN, NaN, 0.0372337, "- N/A -   "
3.06, 91.99903, 0.00527028, NaN, NaN, NaN, 0.0372337, "- N/A -   "
3.07, 92.23492, 0.00528694, NaN, NaN, NaN, 0.0384545, "- N/A -   "
3.08, 92.58876, 0.00530082, NaN, NaN, NaN, 0.0384545, "- N/A -   "
3.09, 92.82466, 0.00531748, NaN, NaN, NaN, 0.0384545, "- N/A -   "
3.1, 93.1785, 0.00533414, NaN, NaN, NaN, 0.0384545, "- N/A -   "
3.11, 93.41439, 0.00534802, NaN, NaN, NaN, 0.0396753, "- N/A -   "
3.12, 93.8862, 0.00536468, NaN, NaN, NaN, 0.0396753, "- N/A -   "
3.13, 94.1221, 0.00538135, NaN, NaN, NaN, 0.0396753, "- N/A -   "
3.14, 94.35797, 0.00539245, NaN, NaN, NaN, 0.04211683, "- N/A -   "
3.15, 94.7118, 0.00540911, NaN, NaN, NaN, 0.04211683, "- N/A -   "
3.16, 94.8298, 0.005425773, NaN, NaN, NaN, 0.04211683, "- N/A -   "
3.17, 95.18361, 0.005439657, NaN, NaN, NaN, 0.0433376, "- N/A -   "
3.18, 95.30156, 0.00545354, NaN, NaN, NaN, 0.0445584, "- N/A -   "
3.19, 95.7733, 0.0054702, NaN, NaN, NaN, 0.0445584, "- N/A -   "
3.2, 96.12719, 0.005486862, NaN, NaN, NaN, 0.0445584, "- N/A -   "
3.21, 96.36309, 0.005503522, NaN, NaN, NaN, 0.0445584, "- N/A -   "
3.22, 96.71693, 0.00552018, NaN, NaN, NaN, 0.0445584, "- N/A -   "
3.23, 97.07077, 0.00553962, NaN, NaN, NaN, 0.0445584, "- N/A -   "
3.24, 97.4246, 0.00555628, NaN, NaN, NaN, 0.0433376, "- N/A -   "
3.25, 97.6605, 0.00557572, NaN, NaN, NaN, 0.04211683, "- N/A -   "
3.26, 98.01435, 0.00559238, NaN, NaN, NaN, 0.04211683, "- N/A -   "
3.27, 98.4861, 0.00560904, NaN, NaN, NaN, 0.04211683, "- N/A -   "
3.28, 98.72203, 0.00563125, NaN, NaN, NaN, 0.0396753, "- N/A -   "
3.29, 99.0759, 0.00565069, NaN, NaN, NaN, 0.0396753, "- N/A -   "
3.3, 99.54767, 0.00567013, NaN, NaN, NaN, 0.0372337, "- N/A -   "
3.31, 99.7836, 0.00568956, NaN, NaN, NaN, 0.03601294, "- N/A -   "
3.32, 100.255, 0.005709002, NaN, NaN, NaN, 0.0347922, "- N/A -   "
3.33, 100.6092, 0.005728439, NaN, NaN, NaN, 0.0347922, "- N/A -   "
3.34, 100.963, 0.0057451, NaN, NaN, NaN, 0.0335714, "- N/A -   "
3.35, 101.317, 0.00576454, NaN, NaN, NaN, 0.0323506, "- N/A -   "
3.36, 101.435, 0.00577842, NaN, NaN, NaN, 0.0335714, "- N/A -   "
3.37, 101.789, 0.00579508, NaN, NaN, NaN, 0.0335714, "- N/A -   "
3.38, 102.143, 0.00581174, NaN, NaN, NaN, 0.0335714, "- N/A -   "
3.39, 102.3784, 0.005828402, NaN, NaN, NaN, 0.0335714, "- N/A -   "
3.4, 102.6143, 0.00584229, NaN, NaN, NaN, 0.0347922, "- N/A -   "
3.41, 102.968, 0.00585895, NaN, NaN, NaN, 0.0347922, "- N/A -   "
3.42, 103.322, 0.00587838, NaN, NaN, NaN, 0.0335714, "- N/A -   "
3.43, 103.558, 0.00589504, NaN, NaN, NaN, 0.0335714, "- N/A -   "
3.44, 103.912, 0.0059117, NaN, NaN, NaN, 0.0335714, "- N/A -   "
3.45, 104.266, 0.005928365, NaN, NaN, NaN, 0.0335714, "- N/A -   "
3.46, 104.501, 0.005945026, NaN, NaN, NaN, 0.0335714, "- N/A -   "
3.47, 104.855, 0.005964463, NaN, NaN, NaN, 0.0323506, "- N/A -   "
3.48, 105.091, 0.00598112, NaN, NaN, NaN, 0.0323506, "- N/A -   "
3.49, 105.445, 0.00600056, NaN, NaN, NaN, 0.03112983, "- N/A -   "
3.5, 105.799, 0.006017221, NaN, NaN, NaN, 0.03112983, "- N/A -   "
3.51, 106.153, 0.006036659, NaN, NaN, NaN, 0.0299091, "- N/A -   "
3.52, 106.507, 0.006056096, NaN, NaN, NaN, 0.0286883, "- N/A -   "
3.53, 106.86, 0.006075533, NaN, NaN, NaN, 0.0274675, "- N/A -   "
3.54, 107.214, 0.00609219, NaN, NaN, NaN, 0.0286883, "- N/A -   "
3.55, 107.568, 0.006108854, NaN, NaN, NaN, 0.0286883, "- N/A -   "
3.56, 107.686, 0.006125515, NaN, NaN, NaN, 0.0286883, "- N/A -   "
3.57, 108.04, 0.006142175, NaN, NaN, NaN, 0.0286883, "- N/A -   "
3.58, 108.394, 0.006156059, NaN, NaN, NaN, 0.0299091, "- N/A -   "
3.59, 108.512, 0.00616994, NaN, NaN, NaN, 0.03112983, "- N/A -   "
3.6, 108.866, 0.006186603, NaN, NaN, NaN, 0.03112983, "- N/A -   "
3.61, 109.101, 0.006200487, NaN, NaN, NaN, 0.0323506, "- N/A -   "
3.62, 109.455, 0.006217147, NaN, NaN, NaN, 0.0323506, "- N/A -   "
3.63, 109.5732, 0.006233808, NaN, NaN, NaN, 0.0323506, "- N/A -   "
3.64, 109.8091, 0.006247692, NaN, NaN, NaN, 0.0335714, "- N/A -   "
3.65, 110.163, 0.00626435, NaN, NaN, NaN, 0.0347922, "- N/A -   "
3.66, 110.281, 0.006278236, NaN, NaN, NaN, 0.0347922, "- N/A -   "
3.67, 110.635, 0.00629212, NaN, NaN, NaN, 0.03601294, "- N/A -   "
3.68, 110.989, 0.006306, NaN, NaN, NaN, 0.0372337, "- N/A -   "
3.69, 111.224, 0.006319887, NaN, NaN, NaN, 0.0384545, "- N/A -   "
3.7, 111.46, 0.006333771, NaN, NaN, NaN, 0.0396753, "- N/A -   "
3.71, 111.578, 0.006347655, NaN, NaN, NaN, 0.04089605, "- N/A -   "
3.72, 111.932, 0.00636432, NaN, NaN, NaN, 0.04089605, "- N/A -   "
3.73, 112.168, 0.006378199, NaN, NaN, NaN, 0.0433376, "- N/A -   "
3.74, 112.404, 0.006392083, NaN, NaN, NaN, 0.0433376, "- N/A -   "
3.75, 112.64, 0.00640597, NaN, NaN, NaN, 0.0445584, "- N/A -   "
3.76, 112.876, 0.00641985, NaN, NaN, NaN, 0.04577916, "- N/A -   "
3.77, 113.23, 0.006436511, NaN, NaN, NaN, 0.04577916, "- N/A -   "
3.78, 113.465, 0.00645317, NaN, NaN, NaN, 0.04577916, "- N/A -   "
3.79, 113.819, 0.006467055, NaN, NaN, NaN, 0.04699994, "- N/A -   "
3.8, 114.055, 0.00648372, NaN, NaN, NaN, 0.0482207, "- N/A -   "
3.81, 114.2911, 0.006497599, NaN, NaN, NaN, 0.0482207, "- N/A -   "
3.82, 114.645, 0.00651426, NaN, NaN, NaN, 0.0482207, "- N/A -   "
3.83, 114.999, 0.00653092, NaN, NaN, NaN, 0.0482207, "- N/A -   "
3.84, 115.235, 0.006547581, NaN, NaN, NaN, 0.0482207, "- N/A -   "
3.85, 115.471, 0.00656424, NaN, NaN, NaN, 0.0482207, "- N/A -   "
3.86, 115.824, 0.0065809, NaN, NaN, NaN, 0.0482207, "- N/A -   "
3.87, 116.296, 0.006600339, NaN, NaN, NaN, 0.04699994, "- N/A -   "
3.88, 116.65, 0.00662255, NaN, NaN, NaN, 0.04577916, "- N/A -   "
3.89, 117.004, 0.006639214, NaN, NaN, NaN, 0.0445584, "- N/A -   "
3.9, 117.358, 0.006658651, NaN, NaN, NaN, 0.0433376, "- N/A -   "
3.91, 117.712, 0.00668087, NaN, NaN, NaN, 0.04211683, "- N/A -   "
3.92, 117.947, 0.00669753, NaN, NaN, NaN, 0.04089605, "- N/A -   "
3.93, 118.419, 0.006716963, NaN, NaN, NaN, 0.0396753, "- N/A -   "
3.94, 118.7731, 0.00673362, NaN, NaN, NaN, 0.0396753, "- N/A -   "
3.95, 119.009, 0.00675306, NaN, NaN, NaN, 0.0384545, "- N/A -   "
3.96, 119.363, 0.00676972, NaN, NaN, NaN, 0.0384545, "- N/A -   "
3.97, 119.717, 0.006789158, NaN, NaN, NaN, 0.0372337, "- N/A -   "
3.98, 120.071, 0.0068086, NaN, NaN, NaN, 0.03601294, "- N/A -   "
3.99, 120.424, 0.006828033, NaN, NaN, NaN, 0.0347922, "- N/A -   "
4, 120.778, 0.00684747, NaN, NaN, NaN, 0.0347922, "- N/A -   "
4.01, 121.132, 0.00686691, NaN, NaN, NaN, 0.0335714, "- N/A -   "
4.02, 121.368, 0.006883568, NaN, NaN, NaN, 0.0323506, "- N/A -   "
4.03, 121.604, 0.00690023, NaN, NaN, NaN, 0.0323506, "- N/A -   "
4.04, 121.958, 0.006916889, NaN, NaN, NaN, 0.0323506, "- N/A -   "
4.05, 122.194, 0.00693355, NaN, NaN, NaN, 0.0323506, "- N/A -   "
4.06, 122.547, 0.00695021, NaN, NaN, NaN, 0.0323506, "- N/A -   "
4.07, 122.901, 0.00696965, NaN, NaN, NaN, 0.03112983, "- N/A -   "
4.08, 123.137, 0.00698631, NaN, NaN, NaN, 0.03112983, "- N/A -   "
4.09, 123.373, 0.00700297, NaN, NaN, NaN, 0.03112983, "- N/A -   "
4.1, 123.845, 0.007019629, NaN, NaN, NaN, 0.03112983, "- N/A -   "
4.11, 124.081, 0.007036289, NaN, NaN, NaN, 0.03112983, "- N/A -   "
4.12, 124.435, 0.00705573, NaN, NaN, NaN, 0.0299091, "- N/A -   "
4.13, 124.67, 0.00707239, NaN, NaN, NaN, 0.0299091, "- N/A -   "
4.14, 124.906, 0.00708905, NaN, NaN, NaN, 0.0299091, "- N/A -   "
4.15, 125.26, 0.007105708, NaN, NaN, NaN, 0.0299091, "- N/A -   "
4.16, 125.614, 0.00712237, NaN, NaN, NaN, 0.0299091, "- N/A -   "
4.17, 125.85, 0.00713903, NaN, NaN, NaN, 0.0299091, "- N/A -   "
4.18, 126.086, 0.00715569, NaN, NaN, NaN, 0.0299091, "- N/A -   "
4.19, 126.322, 0.00717235, NaN, NaN, NaN, 0.0299091, "- N/A -   "
4.2, 126.676, 0.00718901, NaN, NaN, NaN, 0.0299091, "- N/A -   "
4.21, 127.029, 0.007205671, NaN, NaN, NaN, 0.0299091, "- N/A -   "
4.22, 127.265, 0.00722233, NaN, NaN, NaN, 0.0299091, "- N/A -   "
4.23, 127.619, 0.00723899, NaN, NaN, NaN, 0.0299091, "- N/A -   "
4.24, 127.855, 0.00725565, NaN, NaN, NaN, 0.0299091, "- N/A -   "
4.25, 128.091, 0.00726954, NaN, NaN, NaN, 0.03112983, "- N/A -   "
4.26, 128.327, 0.0072862, NaN, NaN, NaN, 0.03112983, "- N/A -   "
4.27, 128.563, 0.00730008, NaN, NaN, NaN, 0.0323506, "- N/A -   "
4.28, 128.799, 0.00731396, NaN, NaN, NaN, 0.0335714, "- N/A -   "
4.29, 129.035, 0.007330625, NaN, NaN, NaN, 0.0335714, "- N/A -   "
4.3, 129.27, 0.00734451, NaN, NaN, NaN, 0.0347922, "- N/A -   "
4.31, 129.506, 0.00735839, NaN, NaN, NaN, 0.03601294, "- N/A -   "
4.32, 129.742, 0.0073695, NaN, NaN, NaN, 0.0384545, "- N/A -   "
4.33, 129.978, 0.00738616, NaN, NaN, NaN, 0.0384545, "- N/A -   "
4.34, 130.214, 0.007400044, NaN, NaN, NaN, 0.0396753, "- N/A -   "
4.35, 130.568, 0.0074167, NaN, NaN, NaN, 0.0396753, "- N/A -   "
4.36, 130.804, 0.007430588, NaN, NaN, NaN, 0.04089605, "- N/A -   "
4.37, 131.04, 0.00744447, NaN, NaN, NaN, 0.04211683, "- N/A -   "
4.38, 131.276, 0.00746113, NaN, NaN, NaN, 0.04211683, "- N/A -   "
4.39, 131.511, 0.007477793, NaN, NaN, NaN, 0.0433376, "- N/A -   "
4.4, 131.865, 0.00749168, NaN, NaN, NaN, 0.0433376, "- N/A -   "
4.41, 132.101, 0.007511114, NaN, NaN, NaN, 0.0433376, "- N/A -   "
4.42, 132.455, 0.007525, NaN, NaN, NaN, 0.0433376, "- N/A -   "
4.43, 132.6909, 0.007541658, NaN, NaN, NaN, 0.0433376, "- N/A -   "
4.44, 132.9268, 0.007558319, NaN, NaN, NaN, 0.0433376, "- N/A -   "
4.45, 133.281, 0.00757498, NaN, NaN, NaN, 0.0433376, "- N/A -   "
4.46, 133.517, 0.007594417, NaN, NaN, NaN, 0.0433376, "- N/A -   "
4.47, 133.988, 0.0076083, NaN, NaN, NaN, 0.0433376, "- N/A -   "
4.48, 134.224, 0.00762774, NaN, NaN, NaN, 0.0433376, "- N/A -   "
4.49, 134.46, 0.007641621, NaN, NaN, NaN, 0.0433376, "- N/A -   "
4.5, 134.696, 0.007658282, NaN, NaN, NaN, 0.0433376, "- N/A -   "
4.51, 135.1678, 0.007674942, NaN, NaN, NaN, 0.0433376, "- N/A -   "
4.52, 135.1678, 0.0076916, NaN, NaN, NaN, 0.0433376, "- N/A -   "
4.53, 135.64, 0.007708263, NaN, NaN, NaN, 0.0433376, "- N/A -   "
4.54, 135.875, 0.007724924, NaN, NaN, NaN, 0.0433376, "- N/A -   "
4.55, 136.229, 0.007741584, NaN, NaN, NaN, 0.0433376, "- N/A -   "
4.56, 136.465, 0.007758245, NaN, NaN, NaN, 0.0433376, "- N/A -   "
4.57, 136.701, 0.007777682, NaN, NaN, NaN, 0.0433376, "- N/A -   "
4.58, 137.173, 0.007794343, NaN, NaN, NaN, 0.0433376, "- N/A -   "
4.59, 137.527, 0.007811003, NaN, NaN, NaN, 0.04211683, "- N/A -   "
4.6, 137.763, 0.007827664, NaN, NaN, NaN, 0.04211683, "- N/A -   "
4.61, 137.999, 0.0078471, NaN, NaN, NaN, 0.04211683, "- N/A -   "
4.62, 138.352, 0.007863761, NaN, NaN, NaN, 0.04089605, "- N/A -   "
4.63, 138.706, 0.007883199, NaN, NaN, NaN, 0.0396753, "- N/A -   "
4.64, 138.942, 0.007902636, NaN, NaN, NaN, 0.0384545, "- N/A -   "
4.65, 139.414, 0.007922073, NaN, NaN, NaN, 0.0372337, "- N/A -   "
4.66, 139.768, 0.00794151, NaN, NaN, NaN, 0.03601294, "- N/A -   "
4.67, 140.1216, 0.007958171, NaN, NaN, NaN, 0.03601294, "- N/A -   "
4.68, 140.475, 0.007980385, NaN, NaN, NaN, 0.0335714, "- N/A -   "
4.69, 140.829, 0.00799982, NaN, NaN, NaN, 0.0323506, "- N/A -   "
4.7, 141.183, 0.008019259, NaN, NaN, NaN, 0.03112983, "- N/A -   "
4.71, 141.419, 0.00803592, NaN, NaN, NaN, 0.03112983, "- N/A -   "
4.72, 141.773, 0.00805258, NaN, NaN, NaN, 0.03112983, "- N/A -   "
4.73, 142.009, 0.008069241, NaN, NaN, NaN, 0.03112983, "- N/A -   "
4.74, 142.3626, 0.008085901, NaN, NaN, NaN, 0.03112983, "- N/A -   "
4.75, 142.5985, 0.008105339, NaN, NaN, NaN, 0.0299091, "- N/A -   "
4.76, 142.952, 0.008121999, NaN, NaN, NaN, 0.0299091, "- N/A -   "
4.77, 143.306, 0.00813866, NaN, NaN, NaN, 0.0299091, "- N/A -   "
4.78, 143.542, 0.008158097, NaN, NaN, NaN, 0.0286883, "- N/A -   "
4.79, 143.778, 0.008171981, NaN, NaN, NaN, 0.0299091, "- N/A -   "
4.8, 144.132, 0.008188642, NaN, NaN, NaN, 0.0299091, "- N/A -   "
4.81, 144.368, 0.008205302, NaN, NaN, NaN, 0.0299091, "- N/A -   "
4.82, 144.604, 0.00822196, NaN, NaN, NaN, 0.0299091, "- N/A -   "
4.83, 144.722, 0.008238623, NaN, NaN, NaN, 0.0299091, "- N/A -   "
4.84, 145.0754, 0.008252506, NaN, NaN, NaN, 0.03112983, "- N/A -   "
4.85, 145.311, 0.00826917, NaN, NaN, NaN, 0.03112983, "- N/A -   "
4.86, 145.665, 0.008285827, NaN, NaN, NaN, 0.03112983, "- N/A -   "
4.87, 145.901, 0.008299711, NaN, NaN, NaN, 0.0335714, "- N/A -   "
4.88, 146.255, 0.008313595, NaN, NaN, NaN, 0.0335714, "- N/A -   "
4.89, 146.491, 0.008330256, NaN, NaN, NaN, 0.0335714, "- N/A -   "
4.9, 146.727, 0.008346916, NaN, NaN, NaN, 0.0335714, "- N/A -   "
4.91, 146.963, 0.0083608, NaN, NaN, NaN, 0.0347922, "- N/A -   "
4.92, 147.316, 0.008377461, NaN, NaN, NaN, 0.0347922, "- N/A -   "
4.93, 147.552, 0.008394121, NaN, NaN, NaN, 0.0347922, "- N/A -   "
4.94, 147.788, 0.008410782, NaN, NaN, NaN, 0.0347922, "- N/A -   "
4.95, 148.024, 0.008424665, NaN, NaN, NaN, 0.03601294, "- N/A -   "
4.96, 148.378, 0.008441325, NaN, NaN, NaN, 0.03601294, "- N/A -   "
4.97, 148.6138, 0.008455209, NaN, NaN, NaN, 0.0372337, "- N/A -   "
4.98, 148.968, 0.008474646, NaN, NaN, NaN, 0.0372337, "- N/A -   "
4.99, 149.3215, 0.00849131, NaN, NaN, NaN, 0.03601294, "- N/A -   "
5, 149.557, 0.008507968, NaN, NaN, NaN, 0.03601294, "- N/A -   "
5.01, 149.793, 0.008524628, NaN, NaN, NaN, 0.03601294, "- N/A -   "
5.02, 150.265, 0.008541289, NaN, NaN, NaN, 0.03601294, "- N/A -   "
5.03, 150.501, 0.008557949, NaN, NaN, NaN, 0.03601294, "- N/A -   "
5.04, 150.737, 0.00857461, NaN, NaN, NaN, 0.0372337, "- N/A -   "
5.05, 150.973, 0.008588494, NaN, NaN, NaN, 0.0372337, "- N/A -   "
5.06, 151.209, 0.008602377, NaN, NaN, NaN, 0.0384545, "- N/A -   "
5.07, 151.445, 0.008616261, NaN, NaN, NaN, 0.0396753, "- N/A -   "
5.08, 151.68, 0.008632922, NaN, NaN, NaN, 0.0396753, "- N/A -   "
5.09, 151.916, 0.008646806, NaN, NaN, NaN, 0.04089605, "- N/A -   "
5.1, 152.152, 0.008663465, NaN, NaN, NaN, 0.04089605, "- N/A -   "
5.11, 152.506, 0.008677349, NaN, NaN, NaN, 0.04211683, "- N/A -   "
5.12, 152.742, 0.008694011, NaN, NaN, NaN, 0.04211683, "- N/A -   "
5.13, 153.096, 0.008707894, NaN, NaN, NaN, 0.0433376, "- N/A -   "
5.14, 153.332, 0.008727332, NaN, NaN, NaN, 0.0433376, "- N/A -   "
5.15, 153.686, 0.008741215, NaN, NaN, NaN, 0.0433376, "- N/A -   "
5.16, 153.8035, 0.008757875, NaN, NaN, NaN, 0.0445584, "- N/A -   "
5.17, 154.157, 0.008771759, NaN, NaN, NaN, 0.0445584, "- N/A -   "
5.18, 154.393, 0.008785643, NaN, NaN, NaN, 0.04577916, "- N/A -   "
5.19, 154.747, 0.008802303, NaN, NaN, NaN, 0.04577916, "- N/A -   "
5.2, 154.983, 0.008818964, NaN, NaN, NaN, 0.04577916, "- N/A -   "
5.21, 155.219, 0.008835625, NaN, NaN, NaN, 0.04577916, "- N/A -   "
5.22, 155.573, 0.008852284, NaN, NaN, NaN, 0.04577916, "- N/A -   "
5.23, 155.927, 0.008868946, NaN, NaN, NaN, 0.04577916, "- N/A -   "
5.24, 156.2804, 0.008888382, NaN, NaN, NaN, 0.0445584, "- N/A -   "
5.25, 156.752, 0.008910596, NaN, NaN, NaN, 0.0433376, "- N/A -   "
5.26, 157.106, 0.00893281, NaN, NaN, NaN, 0.04089605, "- N/A -   "
5.27, 157.578, 0.008952248, NaN, NaN, NaN, 0.0384545, "- N/A -   "
5.28, 158.0496, 0.008974462, NaN, NaN, NaN, 0.03601294, "- N/A -   "
5.29, 158.2855, 0.008993899, NaN, NaN, NaN, 0.03601294, "- N/A -   "
5.3, 158.639, 0.00901056, NaN, NaN, NaN, 0.0347922, "- N/A -   "
5.31, 158.875, 0.009029997, NaN, NaN, NaN, 0.0335714, "- N/A -   "
5.32, 159.347, 0.009046658, NaN, NaN, NaN, 0.0335714, "- N/A -   "
5.33, 159.583, 0.009063318, NaN, NaN, NaN, 0.0335714, "- N/A -   "
5.34, 159.819, 0.009082756, NaN, NaN, NaN, 0.0323506, "- N/A -   "
5.35, 160.173, 0.009102193, NaN, NaN, NaN, 0.0323506, "- N/A -   "
5.36, 160.409, 0.009118853, NaN, NaN, NaN, 0.03112983, "- N/A -   "
5.37, 160.88, 0.009135514, NaN, NaN, NaN, 0.03112983, "- N/A -   "
5.38, 161.116, 0.009154951, NaN, NaN, NaN, 0.0299091, "- N/A -   "
5.39, 161.352, 0.009174388, NaN, NaN, NaN, 0.0286883, "- N/A -   "
5.4, 161.824, 0.009191048, NaN, NaN, NaN, 0.0286883, "- N/A -   "
5.41, 162.06, 0.009207709, NaN, NaN, NaN, 0.0286883, "- N/A -   "
5.42, 162.296, 0.009221593, NaN, NaN, NaN, 0.0299091, "- N/A -   "
5.43, 162.532, 0.009235477, NaN, NaN, NaN, 0.03112983, "- N/A -   "
5.44, 162.768, 0.00924936, NaN, NaN, NaN, 0.0323506, "- N/A -   "
5.45, 163.0034, 0.009263244, NaN, NaN, NaN, 0.0335714, "- N/A -   "
5.46, 163.357, 0.009279905, NaN, NaN, NaN, 0.0335714, "- N/A -   "
5.47, 163.593, 0.009293789, NaN, NaN, NaN, 0.0347922, "- N/A -   "
5.48, 163.829, 0.009307672, NaN, NaN, NaN, 0.03601294, "- N/A -   "
5.49, 163.947, 0.009321556, NaN, NaN, NaN, 0.0372337, "- N/A -   "
5.5, 164.301, 0.00933544, NaN, NaN, NaN, 0.0384545, "- N/A -   "
5.51, 164.537, 0.0093521, NaN, NaN, NaN, 0.0384545, "- N/A -   "
5.52, 164.891, 0.009371538, NaN, NaN, NaN, 0.0384545, "- N/A -   "
5.53, 165.126, 0.009388198, NaN, NaN, NaN, 0.0384545, "- N/A -   "
5.54, 165.4803, 0.009404859, NaN, NaN, NaN, 0.0372337, "- N/A -   "
5.55, 165.7162, 0.009421519, NaN, NaN, NaN, 0.0372337, "- N/A -   "
5.56, 166.07, 0.009440956, NaN, NaN, NaN, 0.03601294, "- N/A -   "
5.57, 166.542, 0.009457617, NaN, NaN, NaN, 0.03601294, "- N/A -   "
5.58, 166.66, 0.009477054, NaN, NaN, NaN, 0.0347922, "- N/A -   "
5.59, 167.132, 0.009496491, NaN, NaN, NaN, 0.0335714, "- N/A -   "
5.6, 167.485, 0.009513152, NaN, NaN, NaN, 0.0335714, "- N/A -   "
5.61, 167.839, 0.009532589, NaN, NaN, NaN, 0.0323506, "- N/A -   "
5.62, 168.193, 0.009552026, NaN, NaN, NaN, 0.03112983, "- N/A -   "
5.63, 168.429, 0.009568687, NaN, NaN, NaN, 0.03112983, "- N/A -   "
5.64, 168.901, 0.009585348, NaN, NaN, NaN, 0.03112983, "- N/A -   "
5.65, 169.137, 0.009602008, NaN, NaN, NaN, 0.03112983, "- N/A -   "
5.66, 169.373, 0.009615892, NaN, NaN, NaN, 0.0323506, "- N/A -   "
5.67, 169.608, 0.009629776, NaN, NaN, NaN, 0.0335714, "- N/A -   "
5.68, 169.844, 0.00964366, NaN, NaN, NaN, 0.0347922, "- N/A -   "
5.69, 169.962, 0.009657542, NaN, NaN, NaN, 0.03601294, "- N/A -   "
5.7, 170.316, 0.009671426, NaN, NaN, NaN, 0.0372337, "- N/A -   "
5.71, 170.552, 0.009688088, NaN, NaN, NaN, 0.0372337, "- N/A -   "
5.72, 170.788, 0.009701971, NaN, NaN, NaN, 0.0384545, "- N/A -   "
5.73, 171.142, 0.009718632, NaN, NaN, NaN, 0.0384545, "- N/A -   "
5.74, 171.378, 0.009732516, NaN, NaN, NaN, 0.0396753, "- N/A -   "
5.75, 171.614, 0.009749176, NaN, NaN, NaN, 0.0396753, "- N/A -   "
5.76, 171.9674, 0.009765836, NaN, NaN, NaN, 0.0396753, "- N/A -   "
5.77, 172.321, 0.009782497, NaN, NaN, NaN, 0.0396753, "- N/A -   "
5.78, 172.557, 0.009799158, NaN, NaN, NaN, 0.0396753, "- N/A -   "
5.79, 172.911, 0.009815818, NaN, NaN, NaN, 0.0396753, "- N/A -   "
5.8, 173.1469, 0.009829702, NaN, NaN, NaN, 0.04089605, "- N/A -   "
5.81, 173.383, 0.009846362, NaN, NaN, NaN, 0.04089605, "- N/A -   "
5.82, 173.737, 0.0098658, NaN, NaN, NaN, 0.04089605, "- N/A -   "
5.83, 174.09, 0.00988246, NaN, NaN, NaN, 0.0396753, "- N/A -   "
5.84, 174.326, 0.009896344, NaN, NaN, NaN, 0.04089605, "- N/A -   "
5.85, 174.6802, 0.00991578, NaN, NaN, NaN, 0.0396753, "- N/A -   "
5.86, 175.034, 0.009932442, NaN, NaN, NaN, 0.0396753, "- N/A -   "
5.87, 175.388, 0.009951878, NaN, NaN, NaN, 0.0384545, "- N/A -   "
5.88, 175.742, 0.009968539, NaN, NaN, NaN, 0.0384545, "- N/A -   "
5.89, 175.978, 0.009982423, NaN, NaN, NaN, 0.0396753, "- N/A -   "
5.9, 176.331, 0.009999084, NaN, NaN, NaN, 0.0396753, "- N/A -   "
5.91, 176.449, 0.0100157, NaN, NaN, NaN, 0.0396753, "- N/A -   "
5.92, 176.9212, 0.0100352, NaN, NaN, NaN, 0.0384545, "- N/A -   "
5.93, 177.1571, 0.0100546, NaN, NaN, NaN, 0.0384545, "- N/A -   "
5.94, 177.511, 0.0100713, NaN, NaN, NaN, 0.0372337, "- N/A -   "
5.95, 177.983, 0.01008794, NaN, NaN, NaN, 0.0372337, "- N/A -   "
5.96, 178.1007, 0.0101074, NaN, NaN, NaN, 0.03601294, "- N/A -   "
[...]
26.86, 1002.35, 0.04495006, NaN, NaN, NaN, 0.0335714, "- N/A -   "
26.88, 1003.18, 0.04497783, NaN, NaN, NaN, 0.0347922, "- N/A -   "
26.9, 1004.01, 0.0450084, NaN, NaN, NaN, 0.03601294, "- N/A -   "
26.92, 1004.6, 0.0450389, NaN, NaN, NaN, 0.0372337, "- N/A -   "
26.94, 1005.43, 0.0450667, NaN, NaN, NaN, 0.0396753, "- N/A -   "
26.96, 1006.14, 0.04509723, NaN, NaN, NaN, 0.04089605, "- N/A -   "
26.98, 1007.09, 0.04513055, NaN, NaN, NaN, 0.04089605, "- N/A -   "
27, 1007.91, 0.04516109, NaN, NaN, NaN, 0.04211683, "- N/A -   "
27.02, 1008.74, 0.0451916, NaN, NaN, NaN, 0.0433376, "- N/A -   "
27.04, 1009.57, 0.04522218, NaN, NaN, NaN, 0.0445584, "- N/A -   "
27.06, 1010.28, 0.0452527, NaN, NaN, NaN, 0.04577916, "- N/A -   "
27.08, 1011.23, 0.04528605, NaN, NaN, NaN, 0.04577916, "- N/A -   "
27.1, 1012.05, 0.0453194, NaN, NaN, NaN, 0.04577916, "- N/A -   "
27.12, 1013.12, 0.0453555, NaN, NaN, NaN, 0.0445584, "- N/A -   "
27.14, 1014.07, 0.0453916, NaN, NaN, NaN, 0.0433376, "- N/A -   "
27.16, 1015.15, 0.0454304, NaN, NaN, NaN, 0.04089605, "- N/A -   "
27.18, 1016.22, 0.0454665, NaN, NaN, NaN, 0.0396753, "- N/A -   "
27.2, 1017.17, 0.0455054, NaN, NaN, NaN, 0.0372337, "- N/A -   "
27.22, 1018.25, 0.0455443, NaN, NaN, NaN, 0.03601294, "- N/A -   "
27.24, 1019.2, 0.0455776, NaN, NaN, NaN, 0.0347922, "- N/A -   "
27.26, 1020.16, 0.0456109, NaN, NaN, NaN, 0.0347922, "- N/A -   "
27.28, 1020.87, 0.04564425, NaN, NaN, NaN, 0.0347922, "- N/A -   "
27.3, 1021.82, 0.04567757, NaN, NaN, NaN, 0.0347922, "- N/A -   "
27.32, 1022.66, 0.0457109, NaN, NaN, NaN, 0.0347922, "- N/A -   "
27.34, 1023.61, 0.0457414, NaN, NaN, NaN, 0.03601294, "- N/A -   "
27.36, 1024.45, 0.0457748, NaN, NaN, NaN, 0.03601294, "- N/A -   "
27.38, 1025.283, 0.0458109, NaN, NaN, NaN, 0.0347922, "- N/A -   "
27.4, 1026.36, 0.045847, NaN, NaN, NaN, 0.0335714, "- N/A -   "
27.42, 1027.31, 0.0458831, NaN, NaN, NaN, 0.0323506, "- N/A -   "
27.44, 1028.26, 0.04592192, NaN, NaN, NaN, 0.03112983, "- N/A -   "
27.46, 1029.22, 0.04595247, NaN, NaN, NaN, 0.03112983, "- N/A -   "
27.48, 1029.93, 0.045983, NaN, NaN, NaN, 0.0323506, "- N/A -   "
27.5, 1030.89, 0.04601633, NaN, NaN, NaN, 0.0323506, "- N/A -   "
27.52, 1031.6, 0.0460469, NaN, NaN, NaN, 0.0335714, "- N/A -   "
27.54, 1032.44, 0.0460802, NaN, NaN, NaN, 0.0335714, "- N/A -   "
27.56, 1033.27, 0.0461107, NaN, NaN, NaN, 0.0347922, "- N/A -   "
27.58, 1034.11, 0.04613851, NaN, NaN, NaN, 0.0372337, "- N/A -   "
27.6, 1034.58, 0.04616628, NaN, NaN, NaN, 0.0396753, "- N/A -   "
27.62, 1035.42, 0.046194, NaN, NaN, NaN, 0.04211683, "- N/A -   "
27.64, 1036.13, 0.0462246, NaN, NaN, NaN, 0.0433376, "- N/A -   "
27.66, 1036.97, 0.0462551, NaN, NaN, NaN, 0.04577916, "- N/A -   "
27.68, 1037.8, 0.0462857, NaN, NaN, NaN, 0.04577916, "- N/A -   "
27.7, 1038.76, 0.046319, NaN, NaN, NaN, 0.04577916, "- N/A -   "
27.72, 1039.71, 0.04635232, NaN, NaN, NaN, 0.04577916, "- N/A -   "
27.74, 1040.55, 0.0463884, NaN, NaN, NaN, 0.04577916, "- N/A -   "
27.76, 1041.62, 0.0464245, NaN, NaN, NaN, 0.0433376, "- N/A -   "
27.78, 1042.57, 0.0464606, NaN, NaN, NaN, 0.04211683, "- N/A -   "
27.8, 1043.65, 0.04649671, NaN, NaN, NaN, 0.04089605, "- N/A -   "
27.82, 1044.48, 0.04653281, NaN, NaN, NaN, 0.0396753, "- N/A -   "
27.84, 1045.56, 0.0465689, NaN, NaN, NaN, 0.0384545, "- N/A -   "
27.86, 1046.629, 0.04660778, NaN, NaN, NaN, 0.03601294, "- N/A -   "
27.88, 1047.46, 0.04664388, NaN, NaN, NaN, 0.0347922, "- N/A -   "
27.9, 1048.54, 0.0466828, NaN, NaN, NaN, 0.0335714, "- N/A -   "
27.92, 1049.49, 0.0467161, NaN, NaN, NaN, 0.0323506, "- N/A -   "
27.94, 1050.45, 0.0467494, NaN, NaN, NaN, 0.0323506, "- N/A -   "
27.96, 1051.16, 0.0467827, NaN, NaN, NaN, 0.0323506, "- N/A -   "
27.98, 1052.23, 0.04682159, NaN, NaN, NaN, 0.03112983, "- N/A -   "
28, 1053.19, 0.0468549, NaN, NaN, NaN, 0.0299091, "- N/A -   "
28.02, 1054.26, 0.04689101, NaN, NaN, NaN, 0.0286883, "- N/A -   "
28.04, 1054.98, 0.04692433, NaN, NaN, NaN, 0.0286883, "- N/A -   "
28.06, 1055.93, 0.0469577, NaN, NaN, NaN, 0.0286883, "- N/A -   "
28.08, 1056.88, 0.046991, NaN, NaN, NaN, 0.0286883, "- N/A -   "
28.1, 1057.72, 0.04702152, NaN, NaN, NaN, 0.0299091, "- N/A -   "
28.12, 1058.55, 0.04705484, NaN, NaN, NaN, 0.0299091, "- N/A -   "
28.14, 1059.389, 0.04708816, NaN, NaN, NaN, 0.0299091, "- N/A -   "
28.16, 1060.1, 0.0471187, NaN, NaN, NaN, 0.03112983, "- N/A -   "
28.18, 1060.94, 0.0471492, NaN, NaN, NaN, 0.0323506, "- N/A -   "
28.2, 1061.774, 0.0471798, NaN, NaN, NaN, 0.0335714, "- N/A -   "
28.22, 1062.49, 0.04720756, NaN, NaN, NaN, 0.03601294, "- N/A -   "
28.24, 1063.21, 0.0472381, NaN, NaN, NaN, 0.0384545, "- N/A -   "
28.26, 1063.92, 0.0472631, NaN, NaN, NaN, 0.04089605, "- N/A -   "
28.28, 1064.76, 0.0472936, NaN, NaN, NaN, 0.0433376, "- N/A -   "
28.3, 1065.471, 0.04732141, NaN, NaN, NaN, 0.0445584, "- N/A -   "
28.32, 1066.31, 0.0473547, NaN, NaN, NaN, 0.0445584, "- N/A -   "
28.34, 1067.26, 0.04738805, NaN, NaN, NaN, 0.0445584, "- N/A -   "
28.36, 1068.21, 0.04742137, NaN, NaN, NaN, 0.0445584, "- N/A -   "
28.38, 1069.17, 0.04745469, NaN, NaN, NaN, 0.0445584, "- N/A -   "
28.4, 1070, 0.04748801, NaN, NaN, NaN, 0.0445584, "- N/A -   "
28.42, 1070.84, 0.04751856, NaN, NaN, NaN, 0.04577916, "- N/A -   "
28.44, 1071.79, 0.0475519, NaN, NaN, NaN, 0.04577916, "- N/A -   "
28.46, 1072.75, 0.0475908, NaN, NaN, NaN, 0.0433376, "- N/A -   "
28.48, 1073.82, 0.0476268, NaN, NaN, NaN, 0.04211683, "- N/A -   "
28.5, 1074.77, 0.0476602, NaN, NaN, NaN, 0.04211683, "- N/A -   "
28.52, 1075.73, 0.04769904, NaN, NaN, NaN, 0.0396753, "- N/A -   "
28.54, 1076.8, 0.04773514, NaN, NaN, NaN, 0.0384545, "- N/A -   "
28.56, 1077.873, 0.04777957, NaN, NaN, NaN, 0.0347922, "- N/A -   "
28.58, 1079.07, 0.0478184, NaN, NaN, NaN, 0.03112983, "- N/A -   "
28.6, 1080.02, 0.0478545, NaN, NaN, NaN, 0.0299091, "- N/A -   "
28.62, 1080.74, 0.0478879, NaN, NaN, NaN, 0.0299091, "- N/A -   "
28.64, 1081.57, 0.04791841, NaN, NaN, NaN, 0.03112983, "- N/A -   "
28.66, 1082.52, 0.0479545, NaN, NaN, NaN, 0.03112983, "- N/A -   "
28.68, 1083.48, 0.047985, NaN, NaN, NaN, 0.03112983, "- N/A -   "
28.7, 1084.19, 0.04801837, NaN, NaN, NaN, 0.03112983, "- N/A -   "
28.72, 1085.15, 0.0480517, NaN, NaN, NaN, 0.03112983, "- N/A -   "
28.74, 1085.98, 0.0480822, NaN, NaN, NaN, 0.0323506, "- N/A -   "
28.76, 1086.7, 0.04811, NaN, NaN, NaN, 0.0347922, "- N/A -   "
28.78, 1087.65, 0.0481433, NaN, NaN, NaN, 0.03601294, "- N/A -   "
28.8, 1088.49, 0.04817387, NaN, NaN, NaN, 0.03601294, "- N/A -   "
28.82, 1089.32, 0.04820719, NaN, NaN, NaN, 0.03601294, "- N/A -   "
28.84, 1090.28, 0.0482433, NaN, NaN, NaN, 0.0347922, "- N/A -   "
28.86, 1091.35, 0.0482822, NaN, NaN, NaN, 0.0335714, "- N/A -   "
28.88, 1092.18, 0.04831271, NaN, NaN, NaN, 0.0335714, "- N/A -   "
28.9, 1093.26, 0.0483488, NaN, NaN, NaN, 0.0323506, "- N/A -   "
28.92, 1094.21, 0.0483821, NaN, NaN, NaN, 0.0323506, "- N/A -   "
28.94, 1094.81, 0.04840989, NaN, NaN, NaN, 0.0347922, "- N/A -   "
28.96, 1095.52, 0.0484377, NaN, NaN, NaN, 0.0372337, "- N/A -   "
28.98, 1096.24, 0.0484626, NaN, NaN, NaN, 0.04089605, "- N/A -   "
29, 1096.95, 0.04849042, NaN, NaN, NaN, 0.0433376, "- N/A -   "
29.02, 1097.79, 0.048521, NaN, NaN, NaN, 0.0445584, "- N/A -   "
29.04, 1098.5, 0.0485515, NaN, NaN, NaN, 0.04577916, "- N/A -   "
29.06, 1099.46, 0.04858483, NaN, NaN, NaN, 0.04577916, "- N/A -   "
29.08, 1100.41, 0.0486182, NaN, NaN, NaN, 0.04577916, "- N/A -   "
29.1, 1101.25, 0.04865147, NaN, NaN, NaN, 0.04577916, "- N/A -   "
29.12, 1102.2, 0.04868757, NaN, NaN, NaN, 0.0445584, "- N/A -   "
29.14, 1103.393, 0.0487264, NaN, NaN, NaN, 0.04211683, "- N/A -   "
29.16, 1104.47, 0.0487653, NaN, NaN, NaN, 0.0396753, "- N/A -   "
29.18, 1105.301, 0.0488014, NaN, NaN, NaN, 0.0384545, "- N/A -   "
29.2, 1106.37, 0.0488375, NaN, NaN, NaN, 0.0372337, "- N/A -   "
29.22, 1107.209, 0.0488764, NaN, NaN, NaN, 0.0347922, "- N/A -   "
29.24, 1108.4, 0.0489125, NaN, NaN, NaN, 0.0335714, "- N/A -   "
29.26, 1109.36, 0.04895136, NaN, NaN, NaN, 0.03112983, "- N/A -   "
29.28, 1110.31, 0.0489902, NaN, NaN, NaN, 0.0299091, "- N/A -   "
29.3, 1111.26, 0.04902078, NaN, NaN, NaN, 0.0299091, "- N/A -   "
29.32, 1111.98, 0.0490513, NaN, NaN, NaN, 0.03112983, "- N/A -   "
29.34, 1112.814, 0.04908187, NaN, NaN, NaN, 0.0323506, "- N/A -   "
29.36, 1113.65, 0.0491124, NaN, NaN, NaN, 0.0335714, "- N/A -   "
29.38, 1114.48, 0.049143, NaN, NaN, NaN, 0.03601294, "- N/A -   "
29.4, 1115.32, 0.0491735, NaN, NaN, NaN, 0.0372337, "- N/A -   "
29.42, 1116.153, 0.0492068, NaN, NaN, NaN, 0.03601294, "- N/A -   "
29.44, 1117.23, 0.04924292, NaN, NaN, NaN, 0.0347922, "- N/A -   "
29.46, 1118.18, 0.04928179, NaN, NaN, NaN, 0.0323506, "- N/A -   "
29.48, 1119.13, 0.0493151, NaN, NaN, NaN, 0.0323506, "- N/A -   "
29.5, 1120.09, 0.0493484, NaN, NaN, NaN, 0.0323506, "- N/A -   "
29.52, 1121.04, 0.04938176, NaN, NaN, NaN, 0.0323506, "- N/A -   "
29.54, 1121.76, 0.0494123, NaN, NaN, NaN, 0.0335714, "- N/A -   "
29.56, 1122.71, 0.0494428, NaN, NaN, NaN, 0.0347922, "- N/A -   "
29.58, 1123.55, 0.0494762, NaN, NaN, NaN, 0.0347922, "- N/A -   "
29.6, 1124.26, 0.0495067, NaN, NaN, NaN, 0.03601294, "- N/A -   "
29.62, 1124.98, 0.0495345, NaN, NaN, NaN, 0.0384545, "- N/A -   "
29.64, 1125.81, 0.04956502, NaN, NaN, NaN, 0.0396753, "- N/A -   "
29.66, 1126.65, 0.0495983, NaN, NaN, NaN, 0.0396753, "- N/A -   "
29.68, 1127.6, 0.0496289, NaN, NaN, NaN, 0.04089605, "- N/A -   "
29.7, 1128.44, 0.04966221, NaN, NaN, NaN, 0.04089605, "- N/A -   "
29.72, 1129.39, 0.0496983, NaN, NaN, NaN, 0.0396753, "- N/A -   "
29.74, 1130.22, 0.0497316, NaN, NaN, NaN, 0.0396753, "- N/A -   "
29.76, 1131.18, 0.04976217, NaN, NaN, NaN, 0.04211683, "- N/A -   "
29.78, 1132.13, 0.04979272, NaN, NaN, NaN, 0.04211683, "- N/A -   "
29.8, 1132.85, 0.0498288, NaN, NaN, NaN, 0.04089605, "- N/A -   "
29.82, 1134.04, 0.0498649, NaN, NaN, NaN, 0.0396753, "- N/A -   "
29.84, 1134.88, 0.049901, NaN, NaN, NaN, 0.0384545, "- N/A -   "
29.86, 1135.95, 0.0499371, NaN, NaN, NaN, 0.0372337, "- N/A -   "
29.88, 1136.9, 0.0499732, NaN, NaN, NaN, 0.03601294, "- N/A -   "
29.9, 1137.74, 0.0500065, NaN, NaN, NaN, 0.03601294, "- N/A -   "
29.92, 1138.69, 0.0500398, NaN, NaN, NaN, 0.03601294, "- N/A -   "
29.94, 1139.65, 0.0500759, NaN, NaN, NaN, 0.0347922, "- N/A -   "
29.96, 1140.48, 0.0501093, NaN, NaN, NaN, 0.0347922, "- N/A -   "
29.98, 1141.32, 0.05013981, NaN, NaN, NaN, 0.03601294, "- N/A -   "
30, 1142.27, 0.0501787, NaN, NaN, NaN, 0.0347922, "- N/A -   "
30.02, 1143.1, 0.0502092, NaN, NaN, NaN, 0.0347922, "- N/A -   "
30.04, 1144.18, 0.0502425, NaN, NaN, NaN, 0.0347922, "- N/A -   "
30.06, 1144.89, 0.05027587, NaN, NaN, NaN, 0.0347922, "- N/A -   "
30.08, 1145.85, 0.0503092, NaN, NaN, NaN, 0.0347922, "- N/A -   "
30.1, 1146.68, 0.05034529, NaN, NaN, NaN, 0.0347922, "- N/A -   "
30.12, 1147.52, 0.0503758, NaN, NaN, NaN, 0.0347922, "- N/A -   "
30.14, 1148.47, 0.0504119, NaN, NaN, NaN, 0.0335714, "- N/A -   "
30.16, 1149.42, 0.0504425, NaN, NaN, NaN, 0.0347922, "- N/A -   "
30.18, 1150.259, 0.0504758, NaN, NaN, NaN, 0.0347922, "- N/A -   "
30.2, 1151.09, 0.05050634, NaN, NaN, NaN, 0.03601294, "- N/A -   "
30.22, 1151.81, 0.0505397, NaN, NaN, NaN, 0.03601294, "- N/A -   "
30.24, 1152.88, 0.0505758, NaN, NaN, NaN, 0.0347922, "- N/A -   "
30.26, 1153.72, 0.0506091, NaN, NaN, NaN, 0.0347922, "- N/A -   "
30.28, 1154.67, 0.0506424, NaN, NaN, NaN, 0.0347922, "- N/A -   "
30.3, 1155.51, 0.0506729, NaN, NaN, NaN, 0.03601294, "- N/A -   "
30.32, 1156.34, 0.0507063, NaN, NaN, NaN, 0.03601294, "- N/A -   "
30.34, 1157.06, 0.050734, NaN, NaN, NaN, 0.0384545, "- N/A -   "
30.36, 1158.01, 0.05076736, NaN, NaN, NaN, 0.0384545, "- N/A -   "
30.38, 1158.85, 0.0508007, NaN, NaN, NaN, 0.0384545, "- N/A -   "
30.4, 1159.8, 0.05083122, NaN, NaN, NaN, 0.0396753, "- N/A -   "
30.42, 1160.634, 0.05086454, NaN, NaN, NaN, 0.0396753, "- N/A -   "
30.44, 1161.588, 0.0508979, NaN, NaN, NaN, 0.0396753, "- N/A -   "
30.46, 1162.42, 0.0509312, NaN, NaN, NaN, 0.0396753, "- N/A -   "
30.48, 1163.38, 0.05096451, NaN, NaN, NaN, 0.0396753, "- N/A -   "
30.5, 1164.33, 0.0510006, NaN, NaN, NaN, 0.0396753, "- N/A -   "
30.52, 1165.28, 0.0510311, NaN, NaN, NaN, 0.0396753, "- N/A -   "
30.54, 1166.12, 0.05106447, NaN, NaN, NaN, 0.0396753, "- N/A -   "
30.56, 1166.95, 0.0511006, NaN, NaN, NaN, 0.0384545, "- N/A -   "
30.58, 1167.91, 0.05113944, NaN, NaN, NaN, 0.03601294, "- N/A -   "
30.6, 1169.1, 0.0511783, NaN, NaN, NaN, 0.0335714, "- N/A -   "
30.62, 1170.05, 0.0512144, NaN, NaN, NaN, 0.0323506, "- N/A -   "
30.64, 1171.01, 0.0512477, NaN, NaN, NaN, 0.0323506, "- N/A -   "
30.66, 1171.96, 0.0512838, NaN, NaN, NaN, 0.03112983, "- N/A -   "
30.68, 1172.68, 0.05131715, NaN, NaN, NaN, 0.0323506, "- N/A -   "
30.7, 1173.63, 0.0513477, NaN, NaN, NaN, 0.0335714, "- N/A -   "
30.72, 1174.35, 0.05137824, NaN, NaN, NaN, 0.0347922, "- N/A -   "
30.74, 1175.18, 0.0514088, NaN, NaN, NaN, 0.03601294, "- N/A -   "
30.76, 1176.02, 0.05144211, NaN, NaN, NaN, 0.03601294, "- N/A -   "
30.78, 1176.97, 0.0514782, NaN, NaN, NaN, 0.0347922, "- N/A -   "
30.8, 1178.04, 0.0515143, NaN, NaN, NaN, 0.0335714, "- N/A -   "
30.82, 1179.118, 0.05155318, NaN, NaN, NaN, 0.0323506, "- N/A -   "
30.84, 1180.072, 0.0515893, NaN, NaN, NaN, 0.0299091, "- N/A -   "
30.86, 1181.03, 0.05162537, NaN, NaN, NaN, 0.0286883, "- N/A -   "
30.88, 1181.86, 0.0516587, NaN, NaN, NaN, 0.0286883, "- N/A -   "
30.9, 1182.7, 0.051692, NaN, NaN, NaN, 0.0299091, "- N/A -   "
30.92, 1183.65, 0.0517226, NaN, NaN, NaN, 0.0299091, "- N/A -   "
30.94, 1184.365, 0.0517503, NaN, NaN, NaN, 0.0323506, "- N/A -   "
30.96, 1185.08, 0.0517781, NaN, NaN, NaN, 0.0347922, "- N/A -   "
30.98, 1185.796, 0.0518059, NaN, NaN, NaN, 0.0372337, "- N/A -   "
31, 1186.39, 0.05183363, NaN, NaN, NaN, 0.0396753, "- N/A -   "
31.02, 1187.11, 0.05185862, NaN, NaN, NaN, 0.0433376, "- N/A -   "
31.04, 1187.82, 0.0518864, NaN, NaN, NaN, 0.04577916, "- N/A -   "
31.06, 1188.66, 0.05191693, NaN, NaN, NaN, 0.04699994, "- N/A -   "
31.08, 1189.37, 0.0519475, NaN, NaN, NaN, 0.0482207, "- N/A -   "
31.1, 1190.21, 0.05197802, NaN, NaN, NaN, 0.0494415, "- N/A -   "
31.12, 1191.04, 0.05201134, NaN, NaN, NaN, 0.0494415, "- N/A -   "
31.14, 1192, 0.0520419, NaN, NaN, NaN, 0.05066227, "- N/A -   "
31.16, 1192.95, 0.05208076, NaN, NaN, NaN, 0.0482207, "- N/A -   "
31.18, 1194.02, 0.0521196, NaN, NaN, NaN, 0.04577916, "- N/A -   "
31.2, 1195.217, 0.0521613, NaN, NaN, NaN, 0.0433376, "- N/A -   "
31.22, 1196.05, 0.0521946, NaN, NaN, NaN, 0.04211683, "- N/A -   "
31.24, 1197.24, 0.05223348, NaN, NaN, NaN, 0.0396753, "- N/A -   "
31.26, 1197.96, 0.0522668, NaN, NaN, NaN, 0.0396753, "- N/A -   "
31.28, 1199.03, 0.0523057, NaN, NaN, NaN, 0.0372337, "- N/A -   "
31.3, 1200.11, 0.05234455, NaN, NaN, NaN, 0.03601294, "- N/A -   "
31.32, 1201.06, 0.0523779, NaN, NaN, NaN, 0.0347922, "- N/A -   "
31.34, 1201.9, 0.05241397, NaN, NaN, NaN, 0.0347922, "- N/A -   "
31.36, 1202.85, 0.05244729, NaN, NaN, NaN, 0.0335714, "- N/A -   "
31.38, 1203.8, 0.05248061, NaN, NaN, NaN, 0.0335714, "- N/A -   "
31.4, 1204.76, 0.0525195, NaN, NaN, NaN, 0.03112983, "- N/A -   "
31.42, 1205.71, 0.0525556, NaN, NaN, NaN, 0.0299091, "- N/A -   "
31.44, 1206.67, 0.0525889, NaN, NaN, NaN, 0.0299091, "- N/A -   "
31.46, 1207.5, 0.05261945, NaN, NaN, NaN, 0.03112983, "- N/A -   "
31.48, 1208.33, 0.0526555, NaN, NaN, NaN, 0.0299091, "- N/A -   "
31.5, 1209.29, 0.05268887, NaN, NaN, NaN, 0.0299091, "- N/A -   "
31.52, 1210.12, 0.05272497, NaN, NaN, NaN, 0.0286883, "- N/A -   "
31.54, 1211.08, 0.05275551, NaN, NaN, NaN, 0.0299091, "- N/A -   "
31.56, 1211.793, 0.0527861, NaN, NaN, NaN, 0.0323506, "- N/A -   "
31.58, 1212.51, 0.0528138, NaN, NaN, NaN, 0.0335714, "- N/A -   "
31.6, 1213.224, 0.05284159, NaN, NaN, NaN, 0.03601294, "- N/A -   "
31.62, 1214.06, 0.05286936, NaN, NaN, NaN, 0.0384545, "- N/A -   "
31.64, 1214.77, 0.0528999, NaN, NaN, NaN, 0.0396753, "- N/A -   "
31.66, 1215.49, 0.0529304, NaN, NaN, NaN, 0.04089605, "- N/A -   "
31.68, 1216.21, 0.0529582, NaN, NaN, NaN, 0.0433376, "- N/A -   "
31.7, 1217.04, 0.05298598, NaN, NaN, NaN, 0.04577916, "- N/A -   "
31.72, 1217.76, 0.0530193, NaN, NaN, NaN, 0.04577916, "- N/A -   "
31.74, 1218.829, 0.0530554, NaN, NaN, NaN, 0.0445584, "- N/A -   "
31.76, 1219.783, 0.0530915, NaN, NaN, NaN, 0.0433376, "- N/A -   "
31.78, 1220.62, 0.05312482, NaN, NaN, NaN, 0.0433376, "- N/A -   "
31.8, 1221.57, 0.0531581, NaN, NaN, NaN, 0.0433376, "- N/A -   "
31.82, 1222.53, 0.05319701, NaN, NaN, NaN, 0.04211683, "- N/A -   "
31.84, 1223.48, 0.05323311, NaN, NaN, NaN, 0.04089605, "- N/A -   "
31.86, 1224.43, 0.0532664, NaN, NaN, NaN, 0.0396753, "- N/A -   "
31.88, 1225.39, 0.05330253, NaN, NaN, NaN, 0.0384545, "- N/A -   "
31.9, 1226.34, 0.05333585, NaN, NaN, NaN, 0.0384545, "- N/A -   "
31.92, 1227.18, 0.0533692, NaN, NaN, NaN, 0.0384545, "- N/A -   "
31.94, 1228.13, 0.0534025, NaN, NaN, NaN, 0.0384545, "- N/A -   "
31.96, 1229.2, 0.0534414, NaN, NaN, NaN, 0.03601294, "- N/A -   "
31.98, 1230.28, 0.05348302, NaN, NaN, NaN, 0.0323506, "- N/A -   "
32, 1231.35, 0.0535219, NaN, NaN, NaN, 0.0299091, "- N/A -   "
32.02, 1232.42, 0.05356077, NaN, NaN, NaN, 0.0274675, "- N/A -   "
32.04, 1233.26, 0.05359409, NaN, NaN, NaN, 0.0274675, "- N/A -   "
32.06, 1234.21, 0.05362741, NaN, NaN, NaN, 0.0274675, "- N/A -   "
32.08, 1235.05, 0.05366073, NaN, NaN, NaN, 0.0274675, "- N/A -   "
32.1, 1235.76, 0.0536913, NaN, NaN, NaN, 0.0286883, "- N/A -   "
32.12, 1236.6, 0.0537246, NaN, NaN, NaN, 0.0286883, "- N/A -   "
32.14, 1237.43, 0.05375514, NaN, NaN, NaN, 0.0299091, "- N/A -   "
32.16, 1238.15, 0.0537829, NaN, NaN, NaN, 0.0323506, "- N/A -   "
32.18, 1238.98, 0.05381345, NaN, NaN, NaN, 0.0335714, "- N/A -   "
32.2, 1239.82, 0.053844, NaN, NaN, NaN, 0.0347922, "- N/A -   "
32.22, 1240.652, 0.05387454, NaN, NaN, NaN, 0.03601294, "- N/A -   "
32.24, 1241.49, 0.05390786, NaN, NaN, NaN, 0.03601294, "- N/A -   "
32.26, 1242.44, 0.0539412, NaN, NaN, NaN, 0.03601294, "- N/A -   "
32.28, 1243.39, 0.0539745, NaN, NaN, NaN, 0.03601294, "- N/A -   "
32.3, 1244.23, 0.0540106, NaN, NaN, NaN, 0.0347922, "- N/A -   "
32.32, 1245.18, 0.0540439, NaN, NaN, NaN, 0.03601294, "- N/A -   "
32.34, 1245.78, 0.05407169, NaN, NaN, NaN, 0.0372337, "- N/A -   "
32.36, 1246.61, 0.0541022, NaN, NaN, NaN, 0.0384545, "- N/A -   "
32.38, 1247.33, 0.05413, NaN, NaN, NaN, 0.04089605, "- N/A -   "
32.4, 1248.05, 0.0541605, NaN, NaN, NaN, 0.04211683, "- N/A -   "
32.42, 1248.88, 0.05419109, NaN, NaN, NaN, 0.0433376, "- N/A -   "
32.44, 1249.6, 0.05421886, NaN, NaN, NaN, 0.04577916, "- N/A -   "
32.46, 1250.43, 0.05425218, NaN, NaN, NaN, 0.04699994, "- N/A -   "
32.48, 1251.38, 0.0542827, NaN, NaN, NaN, 0.04699994, "- N/A -   "
32.5, 1252.22, 0.0543133, NaN, NaN, NaN, 0.0482207, "- N/A -   "
32.52, 1253.05, 0.0543494, NaN, NaN, NaN, 0.04699994, "- N/A -   "
32.54, 1254.25, 0.05438824, NaN, NaN, NaN, 0.0445584, "- N/A -   "
32.56, 1255.32, 0.0544271, NaN, NaN, NaN, 0.04211683, "- N/A -   "
32.58, 1256.39, 0.05446877, NaN, NaN, NaN, 0.0384545, "- N/A -   "
32.6, 1257.47, 0.05450764, NaN, NaN, NaN, 0.03601294, "- N/A -   "
32.62, 1258.54, 0.0545437, NaN, NaN, NaN, 0.0347922, "- N/A -   "
32.64, 1259.37, 0.0545798, NaN, NaN, NaN, 0.0335714, "- N/A -   "
32.66, 1260.33, 0.0546159, NaN, NaN, NaN, 0.0323506, "- N/A -   "
32.68, 1261.16, 0.05465203, NaN, NaN, NaN, 0.03112983, "- N/A -   "
32.7, 1262.12, 0.05468535, NaN, NaN, NaN, 0.03112983, "- N/A -   "
32.72, 1263.07, 0.0547159, NaN, NaN, NaN, 0.0323506, "- N/A -   "
32.74, 1263.79, 0.0547437, NaN, NaN, NaN, 0.0347922, "- N/A -   "
32.76, 1264.5, 0.05477143, NaN, NaN, NaN, 0.0372337, "- N/A -   "
32.78, 1265.34, 0.05480753, NaN, NaN, NaN, 0.0372337, "- N/A -   "
32.8, 1266.05, 0.05484085, NaN, NaN, NaN, 0.0372337, "- N/A -   "
32.82, 1267.01, 0.0548714, NaN, NaN, NaN, 0.0372337, "- N/A -   "
32.84, 1267.96, 0.0549075, NaN, NaN, NaN, 0.03601294, "- N/A -   "
32.854, 1268.68, 0.0549325, NaN, NaN, NaN, 0.03601294, "- N/A -   "