File: 2_Tensile_Data/Hamel_ForceTest_Bolt6_Test4.csv
Time, Load (lb), Position (in), AxialStrain (in), TransverseStrain (in), Auxiliary (), Control Out (V), Stress (psi)
0.0, 1.17947, 0.0, NaN, NaN, NaN, 0.09705182, "- N/A -   "
0.01, 1.41537, 3.054427E-5, NaN, NaN, NaN, 0.100714, "- N/A -   "
0.02, 1.88716, 6.386529E-5, NaN, NaN, NaN, 0.09461027, "- N/A -   "
0.03, 2.35895, 9.440956E-5, NaN, NaN, NaN, 0.0872856, "- N/A -   "
0.04, 2.712792, 0.000122177, NaN, NaN, NaN, 0.08362327, "- N/A -   "
0.05, 3.06663, 0.000147168, NaN, NaN, NaN, 0.07874016, "- N/A -   "
0.06, 3.30253, 0.000169382, NaN, NaN, NaN, 0.0762986, "- N/A -   "
0.07, 3.53842, 0.000194373, NaN, NaN, NaN, 0.07263627, "- N/A -   "
0.08, 4.010214, 0.000216587, NaN, NaN, NaN, 0.07141549, "- N/A -   "
0.09, 4.12816, 0.000233247, NaN, NaN, NaN, 0.0701947, "- N/A -   "
0.1, 4.36406, 0.000255461, NaN, NaN, NaN, 0.0689739, "- N/A -   "
0.11, 4.717899, 0.000274898, NaN, NaN, NaN, 0.06653238, "- N/A -   "
0.12, 4.953794, 0.000294336, NaN, NaN, NaN, 0.0653116, "- N/A -   "
0.13, 5.071741, 0.000313773, NaN, NaN, NaN, 0.0640908, "- N/A -   "
0.14, 5.307636, 0.00033321, NaN, NaN, NaN, 0.0640908, "- N/A -   "
0.15, 5.66148, 0.000352647, NaN, NaN, NaN, 0.06287005, "- N/A -   "
0.16, 5.779426, 0.000372085, NaN, NaN, NaN, 0.06164927, "- N/A -   "
0.17, 6.13327, 0.000391522, NaN, NaN, NaN, 0.0604285, "- N/A -   "
0.18, 6.369163, 0.000410959, NaN, NaN, NaN, 0.0579869, "- N/A -   "
0.19, 6.60506, 4.331733E-4, NaN, NaN, NaN, 0.05676616, "- N/A -   "
0.2, 6.9589, 0.000452611, NaN, NaN, NaN, 0.0543246, "- N/A -   "
0.21, 7.07685, 4.720478E-4, NaN, NaN, NaN, 0.0543246, "- N/A -   "
0.22, 7.548638, 0.000491485, NaN, NaN, NaN, 0.05188305, "- N/A -   "
0.23, 7.784533, 5.136991E-4, NaN, NaN, NaN, 0.0494415, "- N/A -   "
0.24, 8.020428, 5.359131E-4, NaN, NaN, NaN, 0.0482207, "- N/A -   "
0.25, 8.256323, 5.525736E-4, NaN, NaN, NaN, 0.04699994, "- N/A -   "
0.26, 8.492218, 5.720109E-4, NaN, NaN, NaN, 0.04577916, "- N/A -   "
0.27, 8.728113, 0.000591448, NaN, NaN, NaN, 0.0445584, "- N/A -   "
0.28, 8.964007, 6.108854E-4, NaN, NaN, NaN, 0.0433376, "- N/A -   "
0.29, 9.199903, 0.000630323, NaN, NaN, NaN, 0.0433376, "- N/A -   "
0.3, 9.435798, 0.000646983, NaN, NaN, NaN, 0.04211683, "- N/A -   "
0.31, 9.671693, 0.00066642, NaN, NaN, NaN, 0.04089605, "- N/A -   "
0.32, 9.907588, 6.858577E-4, NaN, NaN, NaN, 0.04089605, "- N/A -   "
0.33, 10.26143, 0.000705295, NaN, NaN, NaN, 0.0396753, "- N/A -   "
0.34, 10.4973, 0.000724732, NaN, NaN, NaN, 0.0384545, "- N/A -   "
0.35, 10.73322, 7.38616E-4, NaN, NaN, NaN, 0.0384545, "- N/A -   "
0.36, 10.8512, 7.552765E-4, NaN, NaN, NaN, 0.0384545, "- N/A -   "
0.37, 11.0871, 0.000774714, NaN, NaN, NaN, 0.0372337, "- N/A -   "
0.38, 11.4409, 0.000791374, NaN, NaN, NaN, 0.0372337, "- N/A -   "
0.39, 11.6768, 8.108115E-4, NaN, NaN, NaN, 0.03601294, "- N/A -   "
0.4, 11.7947, 8.27472E-4, NaN, NaN, NaN, 0.03601294, "- N/A -   "
0.41, 12.0306, 8.469093E-4, NaN, NaN, NaN, 0.0347922, "- N/A -   "
0.46, 13.3281, 0.000941319, NaN, NaN, NaN, 0.03112983, "- N/A -   "
0.51, 14.5075, 0.0010274, NaN, NaN, NaN, 0.0299091, "- N/A -   "
0.56, 15.687, 0.0011107, NaN, NaN, NaN, 0.0299091, "- N/A -   "
0.61, 16.6306, 0.0011829, NaN, NaN, NaN, 0.0335714, "- N/A -   "
0.66, 17.4562, 0.00124954, NaN, NaN, NaN, 0.04089605, "- N/A -   "
0.71, 18.5178, 0.00132451, NaN, NaN, NaN, 0.0445584, "- N/A -   "
0.76, 19.8152, 0.00140781, NaN, NaN, NaN, 0.0445584, "- N/A -   "
0.81, 20.99465, 0.00149389, NaN, NaN, NaN, 0.0433376, "- N/A -   "
0.86, 22.1741, 0.00157442, NaN, NaN, NaN, 0.0445584, "- N/A -   "
0.91, 23.4715, 0.00166327, NaN, NaN, NaN, 0.04211683, "- N/A -   "
0.96, 24.769, 0.00175213, NaN, NaN, NaN, 0.0396753, "- N/A -   "
1.01, 26.3023, 0.00185487, NaN, NaN, NaN, 0.0323506, "- N/A -   "
1.06, 27.7177, 0.00194373, NaN, NaN, NaN, 0.0286883, "- N/A -   "
1.11, 29.0151, 0.00202703, NaN, NaN, NaN, 0.0286883, "- N/A -   "
1.16, 30.1946, 0.002102001, NaN, NaN, NaN, 0.0323506, "- N/A -   "
1.21, 31.492, 0.00217975, NaN, NaN, NaN, 0.0347922, "- N/A -   "
1.26, 32.7894, 0.0022575, NaN, NaN, NaN, 0.0372337, "- N/A -   "
1.31, 34.2048, 0.002338025, NaN, NaN, NaN, 0.0384545, "- N/A -   "
1.36, 35.50219, 0.00242133, NaN, NaN, NaN, 0.0384545, "- N/A -   "
1.41, 36.79961, 0.00249908, NaN, NaN, NaN, 0.04211683, "- N/A -   "
1.46, 38.215, 0.00257683, NaN, NaN, NaN, 0.0433376, "- N/A -   "
1.51, 39.6304, 0.00265735, NaN, NaN, NaN, 0.0445584, "- N/A -   "
1.56, 41.39956, 0.00274898, NaN, NaN, NaN, 0.04089605, "- N/A -   "
1.61, 43.0508, 0.00284617, NaN, NaN, NaN, 0.0347922, "- N/A -   "
1.66, 44.70209, 0.0029378, NaN, NaN, NaN, 0.03112983, "- N/A -   "
1.71, 46.23541, 0.003021106, NaN, NaN, NaN, 0.0323506, "- N/A -   "
1.76, 47.8867, 0.003098855, NaN, NaN, NaN, 0.0335714, "- N/A -   "
1.81, 49.41999, 0.003179381, NaN, NaN, NaN, 0.0347922, "- N/A -   "
1.86, 51.0713, 0.00326268, NaN, NaN, NaN, 0.0347922, "- N/A -   "
1.91, 52.72252, 0.00334876, NaN, NaN, NaN, 0.0335714, "- N/A -   "
1.96, 54.2558, 0.00343207, NaN, NaN, NaN, 0.0347922, "- N/A -   "
2.01, 55.9071, 0.00350981, NaN, NaN, NaN, 0.0372337, "- N/A -   "
2.06, 57.32247, 0.00358201, NaN, NaN, NaN, 0.04211683, "- N/A -   "
2.11, 58.8558, 0.00365698, NaN, NaN, NaN, 0.0445584, "- N/A -   "
2.16, 60.7429, 0.00375139, NaN, NaN, NaN, 0.0396753, "- N/A -   "
2.21, 62.6301, 0.003837471, NaN, NaN, NaN, 0.0384545, "- N/A -   "
2.26, 64.28137, 0.00392355, NaN, NaN, NaN, 0.0372337, "- N/A -   "
2.31, 66.05058, 0.004006853, NaN, NaN, NaN, 0.0372337, "- N/A -   "
2.36, 67.81979, 0.004092932, NaN, NaN, NaN, 0.03601294, "- N/A -   "
2.41, 69.707, 0.00417901, NaN, NaN, NaN, 0.0347922, "- N/A -   "
2.46, 71.4762, 0.00427064, NaN, NaN, NaN, 0.0323506, "- N/A -   "
2.51, 73.36333, 0.004353947, NaN, NaN, NaN, 0.03112983, "- N/A -   "
2.56, 75.0146, 0.004434473, NaN, NaN, NaN, 0.0335714, "- N/A -   "
2.61, 76.6659, 0.004512222, NaN, NaN, NaN, 0.0347922, "- N/A -   "
2.66, 78.4351, 0.004595524, NaN, NaN, NaN, 0.0347922, "- N/A -   "
2.71, 80.55813, 0.00468438, NaN, NaN, NaN, 0.0323506, "- N/A -   "
2.76, 82.09144, 0.00475935, NaN, NaN, NaN, 0.03601294, "- N/A -   "
2.81, 83.6248, 0.004831549, NaN, NaN, NaN, 0.04089605, "- N/A -   "
2.86, 85.39397, 0.00491207, NaN, NaN, NaN, 0.04211683, "- N/A -   "
2.91, 87.16318, 0.0049926, NaN, NaN, NaN, 0.0433376, "- N/A -   "
2.96, 88.9324, 0.00507868, NaN, NaN, NaN, 0.04211683, "- N/A -   "
3.01, 90.9375, 0.005170312, NaN, NaN, NaN, 0.0384545, "- N/A -   "
3.06, 93.0606, 0.005261945, NaN, NaN, NaN, 0.0347922, "- N/A -   "
3.11, 94.7118, 0.00534802, NaN, NaN, NaN, 0.0335714, "- N/A -   "
3.16, 96.599, 0.005431327, NaN, NaN, NaN, 0.0335714, "- N/A -   "
3.21, 98.3682, 0.005514629, NaN, NaN, NaN, 0.0347922, "- N/A -   "
3.26, 100.491, 0.00560626, NaN, NaN, NaN, 0.0299091, "- N/A -   "
3.31, 102.3784, 0.00569512, NaN, NaN, NaN, 0.0286883, "- N/A -   "
3.36, 104.03, 0.00577009, NaN, NaN, NaN, 0.0323506, "- N/A -   "
3.41, 105.681, 0.00584784, NaN, NaN, NaN, 0.0347922, "- N/A -   "
3.46, 107.0963, 0.005914482, NaN, NaN, NaN, 0.04089605, "- N/A -   "
3.51, 108.63, 0.00598945, NaN, NaN, NaN, 0.04577916, "- N/A -   "
3.56, 110.399, 0.00606998, NaN, NaN, NaN, 0.0482207, "- N/A -   "
3.61, 112.404, 0.00615884, NaN, NaN, NaN, 0.0445584, "- N/A -   "
3.66, 114.527, 0.006250468, NaN, NaN, NaN, 0.04089605, "- N/A -   "
3.71, 116.414, 0.006342102, NaN, NaN, NaN, 0.0372337, "- N/A -   "
3.76, 118.301, 0.00642818, NaN, NaN, NaN, 0.03601294, "- N/A -   "
3.81, 120.306, 0.00652259, NaN, NaN, NaN, 0.0323506, "- N/A -   "
3.86, 122.429, 0.006617, NaN, NaN, NaN, 0.0262467, "- N/A -   "
3.91, 124.199, 0.00669475, NaN, NaN, NaN, 0.0299091, "- N/A -   "
3.96, 125.85, 0.006772498, NaN, NaN, NaN, 0.03112983, "- N/A -   "
4.01, 127.501, 0.006853024, NaN, NaN, NaN, 0.0323506, "- N/A -   "
4.06, 129.035, 0.00692522, NaN, NaN, NaN, 0.0372337, "- N/A -   "
4.11, 130.4499, 0.007000192, NaN, NaN, NaN, 0.04089605, "- N/A -   "
4.16, 132.219, 0.007075164, NaN, NaN, NaN, 0.0445584, "- N/A -   "
4.21, 134.106, 0.007161243, NaN, NaN, NaN, 0.0433376, "- N/A -   "
4.26, 135.758, 0.00724177, NaN, NaN, NaN, 0.0445584, "- N/A -   "
4.31, 137.763, 0.00732785, NaN, NaN, NaN, 0.0433376, "- N/A -   "
4.36, 139.768, 0.007419481, NaN, NaN, NaN, 0.0396753, "- N/A -   "
4.41, 141.891, 0.00751944, NaN, NaN, NaN, 0.0335714, "- N/A -   "
4.46, 143.778, 0.0076083, NaN, NaN, NaN, 0.0299091, "- N/A -   "
4.51, 145.547, 0.00768883, NaN, NaN, NaN, 0.03112983, "- N/A -   "
4.56, 147.198, 0.00776935, NaN, NaN, NaN, 0.0323506, "- N/A -   "
4.61, 149.0856, 0.007852655, NaN, NaN, NaN, 0.0323506, "- N/A -   "
4.66, 150.619, 0.007933181, NaN, NaN, NaN, 0.0335714, "- N/A -   "
4.71, 152.152, 0.008013706, NaN, NaN, NaN, 0.0347922, "- N/A -   "
4.76, 154.0394, 0.008097009, NaN, NaN, NaN, 0.0347922, "- N/A -   "
4.81, 155.573, 0.008169204, NaN, NaN, NaN, 0.0396753, "- N/A -   "
4.86, 156.87, 0.008241399, NaN, NaN, NaN, 0.0445584, "- N/A -   "
4.91, 158.521, 0.008321925, NaN, NaN, NaN, 0.04699994, "- N/A -   "
4.96, 160.5265, 0.008410782, NaN, NaN, NaN, 0.0445584, "- N/A -   "
5.01, 162.65, 0.008505192, NaN, NaN, NaN, 0.0384545, "- N/A -   "
5.06, 164.419, 0.008596824, NaN, NaN, NaN, 0.0347922, "- N/A -   "
5.11, 166.306, 0.008688457, NaN, NaN, NaN, 0.03112983, "- N/A -   "
5.16, 167.7213, 0.008768982, NaN, NaN, NaN, 0.0323506, "- N/A -   "
5.21, 169.255, 0.008846732, NaN, NaN, NaN, 0.0347922, "- N/A -   "
5.26, 170.906, 0.008927258, NaN, NaN, NaN, 0.03601294, "- N/A -   "
5.31, 172.793, 0.009016113, NaN, NaN, NaN, 0.0347922, "- N/A -   "
5.36, 174.326, 0.009102192, NaN, NaN, NaN, 0.0323506, "- N/A -   "
5.41, 175.742, 0.009177165, NaN, NaN, NaN, 0.03601294, "- N/A -   "
5.46, 177.1571, 0.009254914, NaN, NaN, NaN, 0.0396753, "- N/A -   "
5.51, 178.69, 0.009329886, NaN, NaN, NaN, 0.04211683, "- N/A -   "
5.56, 180.342, 0.009413188, NaN, NaN, NaN, 0.04211683, "- N/A -   "
5.61, 181.993, 0.009502044, NaN, NaN, NaN, 0.0396753, "- N/A -   "
5.66, 183.762, 0.009588124, NaN, NaN, NaN, 0.0384545, "- N/A -   "
5.71, 185.531, 0.009679758, NaN, NaN, NaN, 0.03601294, "- N/A -   "
5.76, 187.183, 0.009765836, NaN, NaN, NaN, 0.0335714, "- N/A -   "
5.81, 188.598, 0.009843586, NaN, NaN, NaN, 0.03601294, "- N/A -   "
5.86, 190.249, 0.009929664, NaN, NaN, NaN, 0.0347922, "- N/A -   "
5.91, 191.665, 0.0100074, NaN, NaN, NaN, 0.0372337, "- N/A -   "
5.96, 193.3159, 0.0100907, NaN, NaN, NaN, 0.0372337, "- N/A -   "
6.01, 195.085, 0.01018235, NaN, NaN, NaN, 0.0347922, "- N/A -   "
6.06, 196.736, 0.0102657, NaN, NaN, NaN, 0.0335714, "- N/A -   "
6.11, 198.388, 0.0103517, NaN, NaN, NaN, 0.0335714, "- N/A -   "
6.16, 199.921, 0.0104323, NaN, NaN, NaN, 0.0335714, "- N/A -   "
6.21, 201.2184, 0.0105045, NaN, NaN, NaN, 0.0384545, "- N/A -   "
6.26, 202.634, 0.0105794, NaN, NaN, NaN, 0.0433376, "- N/A -   "
6.31, 204.167, 0.0106572, NaN, NaN, NaN, 0.0445584, "- N/A -   "
6.36, 205.818, 0.0107433, NaN, NaN, NaN, 0.0433376, "- N/A -   "
6.41, 207.588, 0.0108349, NaN, NaN, NaN, 0.04089605, "- N/A -   "
6.46, 209.357, 0.0109265, NaN, NaN, NaN, 0.03601294, "- N/A -   "
6.51, 211.126, 0.0110182, NaN, NaN, NaN, 0.0323506, "- N/A -   "
6.56, 212.6593, 0.0111015, NaN, NaN, NaN, 0.0335714, "- N/A -   "
6.61, 214.311, 0.0111848, NaN, NaN, NaN, 0.0323506, "- N/A -   "
6.66, 216.08, 0.0112736, NaN, NaN, NaN, 0.03112983, "- N/A -   "
6.71, 217.731, 0.0113625, NaN, NaN, NaN, 0.0274675, "- N/A -   "
6.76, 219.264, 0.011443, NaN, NaN, NaN, 0.0299091, "- N/A -   "
6.81, 220.562, 0.0115152, NaN, NaN, NaN, 0.0335714, "- N/A -   "
6.86, 221.623, 0.0115846, NaN, NaN, NaN, 0.04089605, "- N/A -   "
6.91, 223.039, 0.0116568, NaN, NaN, NaN, 0.0445584, "- N/A -   "
6.96, 224.69, 0.0117346, NaN, NaN, NaN, 0.0482207, "- N/A -   "
7.01, 226.459, 0.0118234, NaN, NaN, NaN, 0.0445584, "- N/A -   "
7.06, 228.346, 0.0119178, NaN, NaN, NaN, 0.04089605, "- N/A -   "
7.11, 230.233, 0.0120095, NaN, NaN, NaN, 0.03601294, "- N/A -   "
7.16, 231.767, 0.0120983, NaN, NaN, NaN, 0.0347922, "- N/A -   "
7.21, 233.536, 0.0121844, NaN, NaN, NaN, 0.0323506, "- N/A -   "
7.26, 235.3052, 0.01227602, NaN, NaN, NaN, 0.0299091, "- N/A -   "
7.31, 236.956, 0.0123565, NaN, NaN, NaN, 0.0299091, "- N/A -   "
7.36, 238.49, 0.0124398, NaN, NaN, NaN, 0.03112983, "- N/A -   "
7.41, 240.141, 0.0125232, NaN, NaN, NaN, 0.0299091, "- N/A -   "
7.46, 241.674, 0.0125981, NaN, NaN, NaN, 0.0335714, "- N/A -   "
7.51, 242.853, 0.0126703, NaN, NaN, NaN, 0.0384545, "- N/A -   "
7.56, 244.503, 0.0127481, NaN, NaN, NaN, 0.04089605, "- N/A -   "
7.61, 246.035, 0.0128286, NaN, NaN, NaN, 0.04211683, "- N/A -   "
7.66, 247.567, 0.01290912, NaN, NaN, NaN, 0.0445584, "- N/A -   "
7.71, 249.334, 0.0129924, NaN, NaN, NaN, 0.0433376, "- N/A -   "
7.76, 251.101, 0.0130868, NaN, NaN, NaN, 0.0384545, "- N/A -   "
7.81, 253.104, 0.0131812, NaN, NaN, NaN, 0.0335714, "- N/A -   "
7.86, 254.7539, 0.0132729, NaN, NaN, NaN, 0.0299091, "- N/A -   "
7.91, 256.5213, 0.013359, NaN, NaN, NaN, 0.0286883, "- N/A -   "
7.96, 258.053, 0.0134423, NaN, NaN, NaN, 0.0299091, "- N/A -   "
8.01, 259.7026, 0.01352, NaN, NaN, NaN, 0.03112983, "- N/A -   "
8.06, 261.117, 0.013595, NaN, NaN, NaN, 0.03601294, "- N/A -   "
8.11, 262.648, 0.0136755, NaN, NaN, NaN, 0.0372337, "- N/A -   "
8.16, 264.416, 0.0137644, NaN, NaN, NaN, 0.03601294, "- N/A -   "
8.21, 265.83, 0.0138366, NaN, NaN, NaN, 0.04089605, "- N/A -   "
8.26, 267.3613, 0.0139115, NaN, NaN, NaN, 0.0433376, "- N/A -   "
8.31, 268.893, 0.0139893, NaN, NaN, NaN, 0.04577916, "- N/A -   "
8.36, 270.5426, 0.0140698, NaN, NaN, NaN, 0.04699994, "- N/A -   "
8.41, 272.663, 0.0141753, NaN, NaN, NaN, 0.0372337, "- N/A -   "
8.46, 274.549, 0.0142697, NaN, NaN, NaN, 0.0323506, "- N/A -   "
8.51, 276.3161, 0.0143586, NaN, NaN, NaN, 0.03112983, "- N/A -   "
8.56, 277.73, 0.0144363, NaN, NaN, NaN, 0.0335714, "- N/A -   "
8.61, 279.262, 0.0145113, NaN, NaN, NaN, 0.03601294, "- N/A -   "
8.66, 280.7935, 0.0145891, NaN, NaN, NaN, 0.0384545, "- N/A -   "
8.71, 282.6787, 0.0146807, NaN, NaN, NaN, 0.0347922, "- N/A -   "
8.76, 284.682, 0.0147723, NaN, NaN, NaN, 0.03112983, "- N/A -   "
8.81, 286.213, 0.0148528, NaN, NaN, NaN, 0.0323506, "- N/A -   "
8.86, 287.7452, 0.0149278, NaN, NaN, NaN, 0.03601294, "- N/A -   "
8.91, 289.041, 0.0150028, NaN, NaN, NaN, 0.04089605, "- N/A -   "
8.96, 290.8087, 0.0150861, NaN, NaN, NaN, 0.0396753, "- N/A -   "
9.01, 292.458, 0.0151722, NaN, NaN, NaN, 0.0384545, "- N/A -   "
9.06, 294.226, 0.0152555, NaN, NaN, NaN, 0.0396753, "- N/A -   "
9.11, 296.111, 0.0153443, NaN, NaN, NaN, 0.0372337, "- N/A -   "
9.16, 297.878, 0.01543041, NaN, NaN, NaN, 0.0347922, "- N/A -   "
9.21, 299.41, 0.01550816, NaN, NaN, NaN, 0.0372337, "- N/A -   "
9.26, 301.1774, 0.0155942, NaN, NaN, NaN, 0.03601294, "- N/A -   "
9.31, 303.18, 0.0156914, NaN, NaN, NaN, 0.0299091, "- N/A -   "
9.36, 304.7122, 0.015772, NaN, NaN, NaN, 0.03112983, "- N/A -   "
9.41, 306.362, 0.0158469, NaN, NaN, NaN, 0.0347922, "- N/A -   "
9.46, 308.011, 0.0159274, NaN, NaN, NaN, 0.03601294, "- N/A -   "
9.51, 309.6609, 0.016008, NaN, NaN, NaN, 0.0372337, "- N/A -   "
9.56, 311.31, 0.0160941, NaN, NaN, NaN, 0.0372337, "- N/A -   "
9.61, 312.724, 0.016169, NaN, NaN, NaN, 0.0396753, "- N/A -   "
9.66, 314.374, 0.0162468, NaN, NaN, NaN, 0.04211683, "- N/A -   "
9.71, 315.906, 0.016319, NaN, NaN, NaN, 0.04699994, "- N/A -   "
9.76, 317.5552, 0.01639672, NaN, NaN, NaN, 0.0494415, "- N/A -   "
9.81, 319.558, 0.01649113, NaN, NaN, NaN, 0.0445584, "- N/A -   "
9.86, 321.797, 0.0165966, NaN, NaN, NaN, 0.0347922, "- N/A -   "
9.91, 323.6822, 0.0166883, NaN, NaN, NaN, 0.03112983, "- N/A -   "
9.96, 325.332, 0.0167716, NaN, NaN, NaN, 0.0323506, "- N/A -   "
10.01, 326.9813, 0.0168521, NaN, NaN, NaN, 0.0323506, "- N/A -   "
10.06, 328.7487, 0.0169382, NaN, NaN, NaN, 0.03112983, "- N/A -   "
10.11, 330.6339, 0.0170298, NaN, NaN, NaN, 0.0274675, "- N/A -   "
10.16, 332.283, 0.0171103, NaN, NaN, NaN, 0.0299091, "- N/A -   "
10.21, 333.815, 0.0171853, NaN, NaN, NaN, 0.0323506, "- N/A -   "
10.26, 335.347, 0.0172575, NaN, NaN, NaN, 0.0372337, "- N/A -   "
10.31, 336.761, 0.01732971, NaN, NaN, NaN, 0.04211683, "- N/A -   "
10.36, 338.41, 0.0174075, NaN, NaN, NaN, 0.0445584, "- N/A -   "
10.41, 340.178, 0.0174908, NaN, NaN, NaN, 0.04577916, "- N/A -   "
10.46, 342.181, 0.01758517, NaN, NaN, NaN, 0.0396753, "- N/A -   "
10.51, 344.1839, 0.0176768, NaN, NaN, NaN, 0.03601294, "- N/A -   "
10.56, 345.9513, 0.01776288, NaN, NaN, NaN, 0.0347922, "- N/A -   "
10.61, 347.601, 0.0178462, NaN, NaN, NaN, 0.03601294, "- N/A -   "
10.66, 349.6039, 0.0179378, NaN, NaN, NaN, 0.0323506, "- N/A -   "
10.71, 351.607, 0.0180267, NaN, NaN, NaN, 0.0299091, "- N/A -   "
10.76, 353.1387, 0.0181072, NaN, NaN, NaN, 0.0299091, "- N/A -   "
10.81, 354.9061, 0.0181905, NaN, NaN, NaN, 0.03112983, "- N/A -   "
10.86, 356.32, 0.01825992, NaN, NaN, NaN, 0.03601294, "- N/A -   "
10.91, 357.852, 0.0183349, NaN, NaN, NaN, 0.0396753, "- N/A -   "
10.96, 359.5013, 0.0184099, NaN, NaN, NaN, 0.0433376, "- N/A -   "
11.01, 361.151, 0.01849039, NaN, NaN, NaN, 0.0445584, "- N/A -   "
11.06, 363.036, 0.01857647, NaN, NaN, NaN, 0.0433376, "- N/A -   "
11.11, 364.686, 0.0186598, NaN, NaN, NaN, 0.0433376, "- N/A -   "
11.16, 366.571, 0.01874863, NaN, NaN, NaN, 0.04089605, "- N/A -   "
11.21, 368.81, 0.0188486, NaN, NaN, NaN, 0.0347922, "- N/A -   "
11.26, 370.93, 0.018943, NaN, NaN, NaN, 0.0286883, "- N/A -   "
11.31, 372.6978, 0.01902908, NaN, NaN, NaN, 0.0274675, "- N/A -   "
11.36, 374.347, 0.01910683, NaN, NaN, NaN, 0.0299091, "- N/A -   "
11.41, 376.1148, 0.0191874, NaN, NaN, NaN, 0.03112983, "- N/A -   "
11.46, 377.764, 0.0192651, NaN, NaN, NaN, 0.0335714, "- N/A -   "
11.51, 379.414, 0.0193429, NaN, NaN, NaN, 0.03601294, "- N/A -   "
11.56, 381.1813, 0.0194262, NaN, NaN, NaN, 0.03601294, "- N/A -   "
11.61, 382.9487, 0.0195067, NaN, NaN, NaN, 0.0384545, "- N/A -   "
11.66, 384.598, 0.0195817, NaN, NaN, NaN, 0.04211683, "- N/A -   "
11.71, 386.248, 0.01966218, NaN, NaN, NaN, 0.04211683, "- N/A -   "
11.76, 388.133, 0.0197455, NaN, NaN, NaN, 0.04211683, "- N/A -   "
11.81, 390.018, 0.0198343, NaN, NaN, NaN, 0.0396753, "- N/A -   "
11.86, 392.139, 0.019926, NaN, NaN, NaN, 0.03601294, "- N/A -   "
11.91, 394.26, 0.0200232, NaN, NaN, NaN, 0.03112983, "- N/A -   "
11.96, 396.145, 0.02010646, NaN, NaN, NaN, 0.03112983, "- N/A -   "
12.01, 397.7948, 0.0201814, NaN, NaN, NaN, 0.0335714, "- N/A -   "
12.06, 399.3265, 0.0202592, NaN, NaN, NaN, 0.0372337, "- N/A -   "
12.11, 401.212, 0.0203453, NaN, NaN, NaN, 0.0347922, "- N/A -   "
12.16, 403.3326, 0.0204341, NaN, NaN, NaN, 0.0323506, "- N/A -   "
12.21, 404.982, 0.0205146, NaN, NaN, NaN, 0.0335714, "- N/A -   "
12.26, 406.8674, 0.02059517, NaN, NaN, NaN, 0.0347922, "- N/A -   "
12.31, 408.3991, 0.0206674, NaN, NaN, NaN, 0.0396753, "- N/A -   "
12.36, 410.167, 0.0207507, NaN, NaN, NaN, 0.04089605, "- N/A -   "
12.41, 412.052, 0.0208312, NaN, NaN, NaN, 0.04089605, "- N/A -   "
12.46, 414.055, 0.02092005, NaN, NaN, NaN, 0.0396753, "- N/A -   "
12.51, 415.94, 0.0210061, NaN, NaN, NaN, 0.0372337, "- N/A -   "
12.56, 417.7074, 0.0210922, NaN, NaN, NaN, 0.03601294, "- N/A -   "
12.61, 419.71, 0.0211783, NaN, NaN, NaN, 0.03601294, "- N/A -   "
12.66, 421.596, 0.0212644, NaN, NaN, NaN, 0.03601294, "- N/A -   "
12.71, 423.5987, 0.0213504, NaN, NaN, NaN, 0.0335714, "- N/A -   "
12.76, 425.4839, 0.0214365, NaN, NaN, NaN, 0.0323506, "- N/A -   "
12.81, 427.369, 0.0215198, NaN, NaN, NaN, 0.0323506, "- N/A -   "
12.86, 429.1365, 0.0216004, NaN, NaN, NaN, 0.0335714, "- N/A -   "
12.91, 430.904, 0.0216837, NaN, NaN, NaN, 0.0335714, "- N/A -   "
12.96, 432.789, 0.0217642, NaN, NaN, NaN, 0.0347922, "- N/A -   "
13.01, 434.4387, 0.02184193, NaN, NaN, NaN, 0.0372337, "- N/A -   "
13.06, 436.3239, 0.0219225, NaN, NaN, NaN, 0.0384545, "- N/A -   "
13.11, 438.0913, 0.0220002, NaN, NaN, NaN, 0.04089605, "- N/A -   "
13.16, 439.741, 0.022078, NaN, NaN, NaN, 0.0433376, "- N/A -   "
13.21, 441.7439, 0.0221613, NaN, NaN, NaN, 0.0445584, "- N/A -   "
13.26, 443.8648, 0.02225289, NaN, NaN, NaN, 0.0396753, "- N/A -   "
13.31, 446.1035, 0.0223501, NaN, NaN, NaN, 0.0347922, "- N/A -   "
13.36, 448.1065, 0.0224362, NaN, NaN, NaN, 0.0323506, "- N/A -   "
13.41, 449.874, 0.0225139, NaN, NaN, NaN, 0.03601294, "- N/A -   "
13.46, 451.759, 0.0226, NaN, NaN, NaN, 0.0335714, "- N/A -   "
13.51, 453.88, 0.0226944, NaN, NaN, NaN, 0.0299091, "- N/A -   "
13.56, 455.883, 0.0227777, NaN, NaN, NaN, 0.0286883, "- N/A -   "
13.61, 457.5326, 0.0228554, NaN, NaN, NaN, 0.03112983, "- N/A -   "
13.66, 459.064, 0.0229249, NaN, NaN, NaN, 0.0372337, "- N/A -   "
13.71, 460.478, 0.0229915, NaN, NaN, NaN, 0.0445584, "- N/A -   "
13.76, 462.01, 0.0230609, NaN, NaN, NaN, 0.05066227, "- N/A -   "
13.81, 464.013, 0.0231442, NaN, NaN, NaN, 0.05188305, "- N/A -   "
13.86, 466.37, 0.0232414, NaN, NaN, NaN, 0.0445584, "- N/A -   "
13.91, 468.49, 0.0233386, NaN, NaN, NaN, 0.0384545, "- N/A -   "
13.96, 470.847, 0.02343301, NaN, NaN, NaN, 0.0335714, "- N/A -   "
14.01, 472.732, 0.0235219, NaN, NaN, NaN, 0.03112983, "- N/A -   "
14.06, 474.853, 0.02361072, NaN, NaN, NaN, 0.0286883, "- N/A -   "
14.11, 476.974, 0.0237024, NaN, NaN, NaN, 0.0262467, "- N/A -   "
14.16, 478.6235, 0.0237829, NaN, NaN, NaN, 0.0274675, "- N/A -   "
14.21, 480.627, 0.0238579, NaN, NaN, NaN, 0.0299091, "- N/A -   "
14.26, 482.158, 0.0239328, NaN, NaN, NaN, 0.0335714, "- N/A -   "
14.31, 483.808, 0.02400502, NaN, NaN, NaN, 0.0384545, "- N/A -   "
14.36, 485.4574, 0.02408, NaN, NaN, NaN, 0.0433376, "- N/A -   "
14.41, 487.46, 0.0241577, NaN, NaN, NaN, 0.0445584, "- N/A -   "
14.46, 489.463, 0.02424382, NaN, NaN, NaN, 0.0433376, "- N/A -   "
14.51, 491.3487, 0.0243271, NaN, NaN, NaN, 0.0433376, "- N/A -   "
14.56, 493.587, 0.0244188, NaN, NaN, NaN, 0.0396753, "- N/A -   "
14.61, 495.4726, 0.0245076, NaN, NaN, NaN, 0.0384545, "- N/A -   "
14.66, 497.947, 0.0246048, NaN, NaN, NaN, 0.03112983, "- N/A -   "
14.71, 500.186, 0.02469921, NaN, NaN, NaN, 0.0262467, "- N/A -   "
14.76, 502.307, 0.0247853, NaN, NaN, NaN, 0.0262467, "- N/A -   "
14.81, 503.838, 0.0248575, NaN, NaN, NaN, 0.0299091, "- N/A -   "
14.86, 505.723, 0.0249352, NaN, NaN, NaN, 0.0335714, "- N/A -   "
14.91, 507.727, 0.0250158, NaN, NaN, NaN, 0.0335714, "- N/A -   "
14.96, 509.847, 0.0251046, NaN, NaN, NaN, 0.0323506, "- N/A -   "
15.01, 511.497, 0.02517681, NaN, NaN, NaN, 0.03601294, "- N/A -   "
15.06, 512.9109, 0.0252379, NaN, NaN, NaN, 0.04577916, "- N/A -   "
15.11, 514.5645, 0.0253101, NaN, NaN, NaN, 0.05066227, "- N/A -   "
15.16, 516.339, 0.02539062, NaN, NaN, NaN, 0.0531038, "- N/A -   "
15.21, 518.4678, 0.0254795, NaN, NaN, NaN, 0.05066227, "- N/A -   "
15.26, 520.833, 0.0255767, NaN, NaN, NaN, 0.0433376, "- N/A -   "
15.31, 523.199, 0.0256738, NaN, NaN, NaN, 0.0372337, "- N/A -   "
15.36, 525.6829, 0.0257766, NaN, NaN, NaN, 0.0286883, "- N/A -   "
15.41, 527.6937, 0.0258627, NaN, NaN, NaN, 0.0274675, "- N/A -   "
15.46, 529.704, 0.0259432, NaN, NaN, NaN, 0.0299091, "- N/A -   "
15.51, 531.597, 0.02602372, NaN, NaN, NaN, 0.03112983, "- N/A -   "
15.56, 533.726, 0.0261098, NaN, NaN, NaN, 0.0286883, "- N/A -   "
15.61, 535.6185, 0.0261875, NaN, NaN, NaN, 0.03112983, "- N/A -   "
15.66, 537.1562, 0.02626252, NaN, NaN, NaN, 0.0347922, "- N/A -   "
15.71, 538.8121, 0.0263347, NaN, NaN, NaN, 0.0396753, "- N/A -   "
15.76, 540.8229, 0.0264152, NaN, NaN, NaN, 0.04089605, "- N/A -   "
15.81, 542.8336, 0.02650132, NaN, NaN, NaN, 0.0396753, "- N/A -   "
15.86, 544.9627, 0.0265846, NaN, NaN, NaN, 0.0396753, "- N/A -   "
15.91, 547.21, 0.0266763, NaN, NaN, NaN, 0.0372337, "- N/A -   "
15.96, 549.2208, 0.02675678, NaN, NaN, NaN, 0.0372337, "- N/A -   "
16.01, 551.113, 0.0268373, NaN, NaN, NaN, 0.0384545, "- N/A -   "
16.06, 553.1241, 0.0269234, NaN, NaN, NaN, 0.0372337, "- N/A -   "
16.11, 555.2531, 0.0270122, NaN, NaN, NaN, 0.0347922, "- N/A -   "
16.16, 557.3822, 0.0271011, NaN, NaN, NaN, 0.0323506, "- N/A -   "
16.21, 559.393, 0.0271844, NaN, NaN, NaN, 0.0335714, "- N/A -   "
16.26, 561.404, 0.0272649, NaN, NaN, NaN, 0.0347922, "- N/A -   "
16.31, 563.4145, 0.02734823, NaN, NaN, NaN, 0.0335714, "- N/A -   "
16.36, 565.4253, 0.0274371, NaN, NaN, NaN, 0.03112983, "- N/A -   "
16.41, 567.3178, 0.02750928, NaN, NaN, NaN, 0.03601294, "- N/A -   "
16.46, 568.9737, 0.0275843, NaN, NaN, NaN, 0.0396753, "- N/A -   "
16.51, 570.8662, 0.027662, NaN, NaN, NaN, 0.04211683, "- N/A -   "
16.56, 572.64, 0.0277398, NaN, NaN, NaN, 0.0445584, "- N/A -   "
16.61, 574.8878, 0.02782583, NaN, NaN, NaN, 0.0433376, "- N/A -   "
16.66, 577.253, 0.02792024, NaN, NaN, NaN, 0.0384545, "- N/A -   "
16.71, 579.619, 0.0280202, NaN, NaN, NaN, 0.0323506, "- N/A -   "
16.76, 581.63, 0.0281007, NaN, NaN, NaN, 0.0323506, "- N/A -   "
16.81, 583.641, 0.028184, NaN, NaN, NaN, 0.0335714, "- N/A -   "
16.86, 585.651, 0.0282701, NaN, NaN, NaN, 0.0323506, "- N/A -   "
16.91, 587.8987, 0.0283617, NaN, NaN, NaN, 0.0274675, "- N/A -   "
16.96, 590.0277, 0.0284478, NaN, NaN, NaN, 0.0274675, "- N/A -   "
17.01, 592.038, 0.0285256, NaN, NaN, NaN, 0.0286883, "- N/A -   "
17.06, 593.5762, 0.028595, NaN, NaN, NaN, 0.0347922, "- N/A -   "
17.11, 595.232, 0.0286644, NaN, NaN, NaN, 0.04211683, "- N/A -   "
17.16, 597.1246, 0.0287422, NaN, NaN, NaN, 0.04577916, "- N/A -   "
17.21, 599.0171, 0.0288199, NaN, NaN, NaN, 0.04699994, "- N/A -   "
17.26, 601.3827, 0.0289115, NaN, NaN, NaN, 0.0445584, "- N/A -   "
17.31, 603.7483, 0.0290087, NaN, NaN, NaN, 0.0372337, "- N/A -   "
17.36, 605.8773, 0.0290948, NaN, NaN, NaN, 0.03601294, "- N/A -   "
17.41, 607.8881, 0.0291781, NaN, NaN, NaN, 0.03601294, "- N/A -   "
17.46, 610.017, 0.02926141, NaN, NaN, NaN, 0.03601294, "- N/A -   "
17.51, 612.3828, 0.0293614, NaN, NaN, NaN, 0.0286883, "- N/A -   "
17.56, 614.394, 0.0294419, NaN, NaN, NaN, 0.0299091, "- N/A -   "
17.61, 616.4043, 0.02951965, NaN, NaN, NaN, 0.0323506, "- N/A -   "
17.66, 618.2968, 0.0296002, NaN, NaN, NaN, 0.0335714, "- N/A -   "
17.71, 620.071, 0.0296751, NaN, NaN, NaN, 0.0372337, "- N/A -   "
17.76, 621.7269, 0.0297473, NaN, NaN, NaN, 0.04211683, "- N/A -   "
17.81, 623.619, 0.0298251, NaN, NaN, NaN, 0.04577916, "- N/A -   "
17.86, 625.985, 0.0299112, NaN, NaN, NaN, 0.0433376, "- N/A -   "
17.91, 627.878, 0.0299917, NaN, NaN, NaN, 0.0445584, "- N/A -   "
17.96, 630.007, 0.0300806, NaN, NaN, NaN, 0.04211683, "- N/A -   "
18.01, 632.254, 0.0301694, NaN, NaN, NaN, 0.0396753, "- N/A -   "
18.06, 634.738, 0.0302666, NaN, NaN, NaN, 0.0335714, "- N/A -   "
18.11, 636.985, 0.0303582, NaN, NaN, NaN, 0.03112983, "- N/A -   "
18.16, 639.233, 0.0304443, NaN, NaN, NaN, 0.0286883, "- N/A -   "
18.21, 641.125, 0.0305248, NaN, NaN, NaN, 0.03112983, "- N/A -   "
18.26, 643.0175, 0.0306026, NaN, NaN, NaN, 0.0323506, "- N/A -   "
18.31, 645.147, 0.0306859, NaN, NaN, NaN, 0.0335714, "- N/A -   "
18.36, 647.157, 0.03076641, NaN, NaN, NaN, 0.0347922, "- N/A -   "
18.41, 649.168, 0.03084416, NaN, NaN, NaN, 0.03601294, "- N/A -   "
18.46, 650.8241, 0.0309164, NaN, NaN, NaN, 0.04089605, "- N/A -   "
18.51, 652.8348, 0.0309941, NaN, NaN, NaN, 0.0433376, "- N/A -   "
18.56, 654.8456, 0.0310719, NaN, NaN, NaN, 0.04577916, "- N/A -   "
18.61, 656.9747, 0.0311579, NaN, NaN, NaN, 0.0445584, "- N/A -   "
18.66, 659.6951, 0.0312579, NaN, NaN, NaN, 0.0372337, "- N/A -   "
18.71, 662.0607, 0.0313551, NaN, NaN, NaN, 0.03112983, "- N/A -   "
18.76, 664.1898, 0.0314384, NaN, NaN, NaN, 0.03112983, "- N/A -   "
18.81, 665.964, 0.03151058, NaN, NaN, NaN, 0.03601294, "- N/A -   "
18.86, 667.9748, 0.0315911, NaN, NaN, NaN, 0.0372337, "- N/A -   "
18.91, 670.1038, 0.0316772, NaN, NaN, NaN, 0.03601294, "- N/A -   "
18.96, 672.4695, 0.0317688, NaN, NaN, NaN, 0.0323506, "- N/A -   "
19.01, 674.4802, 0.0318521, NaN, NaN, NaN, 0.0335714, "- N/A -   "
19.06, 676.491, 0.03192987, NaN, NaN, NaN, 0.0347922, "- N/A -   "
19.11, 678.2652, 0.0320048, NaN, NaN, NaN, 0.0384545, "- N/A -   "
19.16, 680.276, 0.03208259, NaN, NaN, NaN, 0.04089605, "- N/A -   "
19.21, 682.4051, 0.03216867, NaN, NaN, NaN, 0.0396753, "- N/A -   "
19.26, 684.6524, 0.0322547, NaN, NaN, NaN, 0.0396753, "- N/A -   "
19.31, 686.663, 0.0323381, NaN, NaN, NaN, 0.0384545, "- N/A -   "
19.36, 688.7922, 0.0324214, NaN, NaN, NaN, 0.0384545, "- N/A -   "
19.41, 691.04, 0.0325074, NaN, NaN, NaN, 0.0372337, "- N/A -   "
19.46, 693.1686, 0.0325935, NaN, NaN, NaN, 0.03601294, "- N/A -   "
19.51, 695.416, 0.0326796, NaN, NaN, NaN, 0.0347922, "- N/A -   "
19.56, 697.782, 0.0327712, NaN, NaN, NaN, 0.03112983, "- N/A -   "
19.61, 699.7923, 0.0328518, NaN, NaN, NaN, 0.0323506, "- N/A -   "
19.66, 701.9214, 0.0329351, NaN, NaN, NaN, 0.0323506, "- N/A -   "
19.71, 703.9321, 0.03301558, NaN, NaN, NaN, 0.0335714, "- N/A -   "
19.76, 706.1795, 0.03310166, NaN, NaN, NaN, 0.0323506, "- N/A -   "
19.81, 708.072, 0.03317663, NaN, NaN, NaN, 0.03601294, "- N/A -   "
19.86, 710.083, 0.03325438, NaN, NaN, NaN, 0.0396753, "- N/A -   "
19.91, 712.0935, 0.0333321, NaN, NaN, NaN, 0.04211683, "- N/A -   "
19.96, 713.986, 0.03340988, NaN, NaN, NaN, 0.0433376, "- N/A -   "
20.01, 716.3517, 0.03349318, NaN, NaN, NaN, 0.0433376, "- N/A -   "
20.06, 718.599, 0.0335848, NaN, NaN, NaN, 0.0396753, "- N/A -   "
20.11, 721.2012, 0.033682, NaN, NaN, NaN, 0.0335714, "- N/A -   "
20.16, 723.3302, 0.0337653, NaN, NaN, NaN, 0.0335714, "- N/A -   "
20.21, 725.4592, 0.03384305, NaN, NaN, NaN, 0.03601294, "- N/A -   "
20.26, 727.5883, 0.0339291, NaN, NaN, NaN, 0.03601294, "- N/A -   "
20.31, 729.8357, 0.034018, NaN, NaN, NaN, 0.0323506, "- N/A -   "
20.36, 732.2013, 0.0341068, NaN, NaN, NaN, 0.0299091, "- N/A -   "
20.41, 734.2121, 0.0341846, NaN, NaN, NaN, 0.0323506, "- N/A -   "
20.46, 736.105, 0.0342596, NaN, NaN, NaN, 0.03601294, "- N/A -   "
20.51, 737.8788, 0.0343345, NaN, NaN, NaN, 0.0396753, "- N/A -   "
20.56, 739.8895, 0.0344095, NaN, NaN, NaN, 0.0433376, "- N/A -   "
20.61, 741.9003, 0.03449, NaN, NaN, NaN, 0.04577916, "- N/A -   "
20.66, 744.266, 0.03457334, NaN, NaN, NaN, 0.0445584, "- N/A -   "
20.71, 746.868, 0.0346705, NaN, NaN, NaN, 0.0396753, "- N/A -   "
20.76, 749.2337, 0.03475938, NaN, NaN, NaN, 0.03601294, "- N/A -   "
20.81, 751.5993, 0.03485101, NaN, NaN, NaN, 0.0323506, "- N/A -   "
20.86, 753.7284, 0.0349343, NaN, NaN, NaN, 0.0323506, "- N/A -   "
20.91, 756.094, 0.0350287, NaN, NaN, NaN, 0.0286883, "- N/A -   "
20.96, 758.46, 0.035112, NaN, NaN, NaN, 0.0274675, "- N/A -   "
21.01, 760.5887, 0.0351953, NaN, NaN, NaN, 0.0286883, "- N/A -   "
21.06, 762.481, 0.0352703, NaN, NaN, NaN, 0.0323506, "- N/A -   "
21.11, 764.374, 0.0353453, NaN, NaN, NaN, 0.0347922, "- N/A -   "
21.16, 766.1479, 0.03541747, NaN, NaN, NaN, 0.0396753, "- N/A -   "
21.21, 768.1587, 0.03549522, NaN, NaN, NaN, 0.0433376, "- N/A -   "
21.26, 770.406, 0.0355757, NaN, NaN, NaN, 0.0433376, "- N/A -   "
21.31, 772.6533, 0.03565905, NaN, NaN, NaN, 0.0433376, "- N/A -   "
21.36, 774.901, 0.03574513, NaN, NaN, NaN, 0.04211683, "- N/A -   "
21.41, 777.2663, 0.035834, NaN, NaN, NaN, 0.04089605, "- N/A -   "
21.46, 779.868, 0.03593117, NaN, NaN, NaN, 0.0335714, "- N/A -   "
21.51, 782.2341, 0.0360228, NaN, NaN, NaN, 0.0299091, "- N/A -   "
21.56, 784.2449, 0.0360978, NaN, NaN, NaN, 0.0335714, "- N/A -   "
21.61, 786.4922, 0.0361839, NaN, NaN, NaN, 0.0323506, "- N/A -   "
21.66, 788.74, 0.0362672, NaN, NaN, NaN, 0.0335714, "- N/A -   "
21.71, 790.7503, 0.0363449, NaN, NaN, NaN, 0.03601294, "- N/A -   "
21.76, 792.879, 0.03642543, NaN, NaN, NaN, 0.0372337, "- N/A -   "
21.81, 795.1267, 0.036506, NaN, NaN, NaN, 0.0384545, "- N/A -   "
21.86, 797.137, 0.0365865, NaN, NaN, NaN, 0.04089605, "- N/A -   "
21.91, 799.0299, 0.0366615, NaN, NaN, NaN, 0.0433376, "- N/A -   "
21.96, 801.2773, 0.03674198, NaN, NaN, NaN, 0.0445584, "- N/A -   "
22.01, 803.5246, 0.03682806, NaN, NaN, NaN, 0.0433376, "- N/A -   "
22.06, 806.1268, 0.036928, NaN, NaN, NaN, 0.03601294, "- N/A -   "
22.11, 808.729, 0.03701688, NaN, NaN, NaN, 0.0335714, "- N/A -   "
22.16, 810.9763, 0.0371057, NaN, NaN, NaN, 0.0323506, "- N/A -   "
22.21, 813.1054, 0.03718626, NaN, NaN, NaN, 0.0323506, "- N/A -   "
22.26, 815.116, 0.0372668, NaN, NaN, NaN, 0.0335714, "- N/A -   "
22.31, 817.3635, 0.0373473, NaN, NaN, NaN, 0.0347922, "- N/A -   "
22.36, 819.729, 0.03743617, NaN, NaN, NaN, 0.0323506, "- N/A -   "
22.41, 821.858, 0.03752225, NaN, NaN, NaN, 0.0323506, "- N/A -   "
22.46, 823.9872, 0.03759722, NaN, NaN, NaN, 0.0347922, "- N/A -   "
22.51, 825.8797, 0.03767219, NaN, NaN, NaN, 0.0384545, "- N/A -   "
22.56, 827.7722, 0.0377444, NaN, NaN, NaN, 0.0433376, "- N/A -   "
22.61, 830.02, 0.03782769, NaN, NaN, NaN, 0.0433376, "- N/A -   "
22.66, 832.149, 0.03791377, NaN, NaN, NaN, 0.0433376, "- N/A -   "
22.71, 834.396, 0.0379943, NaN, NaN, NaN, 0.0433376, "- N/A -   "
22.76, 836.9981, 0.0380887, NaN, NaN, NaN, 0.0384545, "- N/A -   "
22.81, 839.3637, 0.0381748, NaN, NaN, NaN, 0.0372337, "- N/A -   "
22.86, 841.6111, 0.0382664, NaN, NaN, NaN, 0.0347922, "- N/A -   "
22.91, 843.8584, 0.0383497, NaN, NaN, NaN, 0.0335714, "- N/A -   "
22.96, 845.9874, 0.038433, NaN, NaN, NaN, 0.0347922, "- N/A -   "
23.01, 848.235, 0.0385163, NaN, NaN, NaN, 0.0335714, "- N/A -   "
23.06, 850.4821, 0.0385996, NaN, NaN, NaN, 0.0335714, "- N/A -   "
23.11, 852.4929, 0.03867738, NaN, NaN, NaN, 0.03601294, "- N/A -   "
23.16, 854.8585, 0.0387635, NaN, NaN, NaN, 0.03601294, "- N/A -   "
23.21, 856.8693, 0.0388468, NaN, NaN, NaN, 0.0347922, "- N/A -   "
23.26, 858.7618, 0.038919, NaN, NaN, NaN, 0.04089605, "- N/A -   "
23.31, 861.0091, 0.0389995, NaN, NaN, NaN, 0.04211683, "- N/A -   "
23.36, 863.0199, 0.03907445, NaN, NaN, NaN, 0.0445584, "- N/A -   "
23.41, 865.3855, 0.0391605, NaN, NaN, NaN, 0.0433376, "- N/A -   "
23.46, 867.751, 0.0392522, NaN, NaN, NaN, 0.0396753, "- N/A -   "
23.51, 870.4716, 0.0393466, NaN, NaN, NaN, 0.03601294, "- N/A -   "
23.56, 872.8372, 0.0394382, NaN, NaN, NaN, 0.03112983, "- N/A -   "
23.61, 874.9663, 0.0395215, NaN, NaN, NaN, 0.0323506, "- N/A -   "
23.66, 876.977, 0.039602, NaN, NaN, NaN, 0.0323506, "- N/A -   "
23.71, 879.4609, 0.03969367, NaN, NaN, NaN, 0.0299091, "- N/A -   "
23.76, 881.827, 0.03977975, NaN, NaN, NaN, 0.0286883, "- N/A -   "
23.81, 883.719, 0.0398519, NaN, NaN, NaN, 0.0323506, "- N/A -   "
23.86, 885.9664, 0.0399352, NaN, NaN, NaN, 0.0323506, "- N/A -   "
23.91, 887.7406, 0.0400047, NaN, NaN, NaN, 0.0384545, "- N/A -   "
23.96, 889.5148, 0.0400741, NaN, NaN, NaN, 0.0445584, "- N/A -   "
24.01, 891.644, 0.0401491, NaN, NaN, NaN, 0.0482207, "- N/A -   "
24.06, 893.773, 0.0402351, NaN, NaN, NaN, 0.04699994, "- N/A -   "
24.11, 896.4934, 0.04033232, NaN, NaN, NaN, 0.04211683, "- N/A -   "
24.16, 898.9773, 0.0404267, NaN, NaN, NaN, 0.03601294, "- N/A -   "
24.21, 901.3429, 0.04051281, NaN, NaN, NaN, 0.0347922, "- N/A -   "
24.26, 903.5903, 0.0406017, NaN, NaN, NaN, 0.0323506, "- N/A -   "
24.31, 905.9558, 0.0406905, NaN, NaN, NaN, 0.0299091, "- N/A -   "
24.36, 908.0849, 0.04077105, NaN, NaN, NaN, 0.0323506, "- N/A -   "
24.41, 910.4505, 0.0408571, NaN, NaN, NaN, 0.0299091, "- N/A -   "
24.46, 912.6978, 0.0409404, NaN, NaN, NaN, 0.0299091, "- N/A -   "
24.51, 914.59, 0.0410154, NaN, NaN, NaN, 0.0335714, "- N/A -   "
24.56, 916.3645, 0.04108482, NaN, NaN, NaN, 0.0396753, "- N/A -   "
24.61, 918.257, 0.041157, NaN, NaN, NaN, 0.0445584, "- N/A -   "
24.66, 920.5044, 0.0412431, NaN, NaN, NaN, 0.0433376, "- N/A -   "
24.71, 922.7517, 0.0413292, NaN, NaN, NaN, 0.0433376, "- N/A -   "
24.76, 925.1174, 0.0414153, NaN, NaN, NaN, 0.04211683, "- N/A -   "
24.81, 927.483, 0.0414986, NaN, NaN, NaN, 0.04089605, "- N/A -   "
24.86, 929.967, 0.041593, NaN, NaN, NaN, 0.03601294, "- N/A -   "
24.91, 932.569, 0.0416929, NaN, NaN, NaN, 0.0286883, "- N/A -   "
24.96, 934.8164, 0.041779, NaN, NaN, NaN, 0.0274675, "- N/A -   "
25.01, 937.182, 0.0418595, NaN, NaN, NaN, 0.0286883, "- N/A -   "
25.06, 939.074, 0.04193728, NaN, NaN, NaN, 0.03112983, "- N/A -   "
25.11, 941.3218, 0.04201781, NaN, NaN, NaN, 0.0323506, "- N/A -   "
25.16, 943.3326, 0.0420983, NaN, NaN, NaN, 0.0347922, "- N/A -   "
25.21, 945.4617, 0.04217886, NaN, NaN, NaN, 0.03601294, "- N/A -   "
25.26, 947.591, 0.0422538, NaN, NaN, NaN, 0.0384545, "- N/A -   "
25.31, 949.601, 0.0423288, NaN, NaN, NaN, 0.04211683, "- N/A -   "
25.36, 951.494, 0.0424038, NaN, NaN, NaN, 0.04577916, "- N/A -   "
25.41, 953.741, 0.0424871, NaN, NaN, NaN, 0.04577916, "- N/A -   "
25.46, 956.2252, 0.0425787, NaN, NaN, NaN, 0.04211683, "- N/A -   "
25.51, 958.9457, 0.0426787, NaN, NaN, NaN, 0.0347922, "- N/A -   "
25.56, 961.666, 0.0427731, NaN, NaN, NaN, 0.0299091, "- N/A -   "
25.61, 963.795, 0.04285639, NaN, NaN, NaN, 0.03112983, "- N/A -   "
25.66, 965.8059, 0.0429341, NaN, NaN, NaN, 0.0323506, "- N/A -   "
25.71, 967.6984, 0.04300911, NaN, NaN, NaN, 0.03601294, "- N/A -   "
25.76, 969.9458, 0.04309241, NaN, NaN, NaN, 0.0372337, "- N/A -   "
25.81, 972.548, 0.043184, NaN, NaN, NaN, 0.0323506, "- N/A -   "
25.86, 974.7953, 0.0432701, NaN, NaN, NaN, 0.03112983, "- N/A -   "
25.91, 976.8061, 0.0433451, NaN, NaN, NaN, 0.0347922, "- N/A -   "
25.96, 978.699, 0.0434145, NaN, NaN, NaN, 0.04089605, "- N/A -   "
26.01, 980.8276, 0.04349782, NaN, NaN, NaN, 0.04089605, "- N/A -   "
26.06, 983.3115, 0.0435867, NaN, NaN, NaN, 0.0384545, "- N/A -   "
26.11, 985.559, 0.04367, NaN, NaN, NaN, 0.0384545, "- N/A -   "
26.16, 988.0427, 0.0437588, NaN, NaN, NaN, 0.0384545, "- N/A -   "
26.21, 990.0535, 0.0438366, NaN, NaN, NaN, 0.0396753, "- N/A -   "
26.26, 992.4191, 0.04392544, NaN, NaN, NaN, 0.0384545, "- N/A -   "
26.31, 994.7848, 0.0440143, NaN, NaN, NaN, 0.03601294, "- N/A -   "
26.36, 997.2687, 0.0441059, NaN, NaN, NaN, 0.0323506, "- N/A -   "
26.41, 999.3977, 0.0441865, NaN, NaN, NaN, 0.0323506, "- N/A -   "
26.46, 1001.645, 0.0442698, NaN, NaN, NaN, 0.0323506, "- N/A -   "
26.51, 1004.01, 0.0443531, NaN, NaN, NaN, 0.0323506, "- N/A -   "
26.56, 1006.02, 0.04443636, NaN, NaN, NaN, 0.0335714, "- N/A -   "
26.61, 1008.39, 0.0445169, NaN, NaN, NaN, 0.0335714, "- N/A -   "
26.66, 1010.16, 0.04458908, NaN, NaN, NaN, 0.0396753, "- N/A -   "
26.71, 1012.29, 0.04466683, NaN, NaN, NaN, 0.04089605, "- N/A -   "
26.76, 1014.19, 0.0447418, NaN, NaN, NaN, 0.0445584, "- N/A -   "
26.81, 1016.46, 0.0448196, NaN, NaN, NaN, 0.04699994, "- N/A -   "
26.86, 1018.84, 0.04490563, NaN, NaN, NaN, 0.04577916, "- N/A -   "
26.91, 1021.47, 0.0450028, NaN, NaN, NaN, 0.0396753, "- N/A -   "
26.96, 1024.21, 0.0451, NaN, NaN, NaN, 0.0347922, "- N/A -   "
27.01, 1026.36, 0.04518053, NaN, NaN, NaN, 0.0347922, "- N/A -   "
27.06, 1028.74, 0.04526661, NaN, NaN, NaN, 0.0335714, "- N/A -   "
27.11, 1030.89, 0.0453527, NaN, NaN, NaN, 0.0335714, "- N/A -   "
27.16, 1033.39, 0.04544154, NaN, NaN, NaN, 0.0299091, "- N/A -   "
27.21, 1035.78, 0.04552485, NaN, NaN, NaN, 0.0299091, "- N/A -   "
27.26, 1037.69, 0.0456026, NaN, NaN, NaN, 0.0323506, "- N/A -   "
27.31, 1039.59, 0.04567479, NaN, NaN, NaN, 0.0372337, "- N/A -   "
27.36, 1041.26, 0.04574143, NaN, NaN, NaN, 0.0445584, "- N/A -   "
27.41, 1043.53, 0.04582196, NaN, NaN, NaN, 0.04577916, "- N/A -   "
27.46, 1045.79, 0.0459025, NaN, NaN, NaN, 0.04699994, "- N/A -   "
27.51, 1048.3, 0.0459941, NaN, NaN, NaN, 0.0433376, "- N/A -   "
27.56, 1050.92, 0.0460913, NaN, NaN, NaN, 0.0372337, "- N/A -   "
27.61, 1053.43, 0.0461802, NaN, NaN, NaN, 0.0347922, "- N/A -   "
27.66, 1055.69, 0.04626624, NaN, NaN, NaN, 0.0335714, "- N/A -   "
27.71, 1058.2, 0.0463551, NaN, NaN, NaN, 0.03112983, "- N/A -   "
27.76, 1060.7, 0.04644673, NaN, NaN, NaN, 0.0274675, "- N/A -   "
27.81, 1062.97, 0.04653003, NaN, NaN, NaN, 0.0274675, "- N/A -   "
27.86, 1065.11, 0.04660778, NaN, NaN, NaN, 0.0299091, "- N/A -   "
27.91, 1067.02, 0.0466855, NaN, NaN, NaN, 0.0335714, "- N/A -   "
27.96, 1069.05, 0.0467549, NaN, NaN, NaN, 0.0384545, "- N/A -   "
28.01, 1070.84, 0.04682714, NaN, NaN, NaN, 0.0445584, "- N/A -   "
28.06, 1073.103, 0.04690767, NaN, NaN, NaN, 0.0445584, "- N/A -   "
28.11, 1075.37, 0.04699375, NaN, NaN, NaN, 0.0433376, "- N/A -   "
28.16, 1077.75, 0.0470743, NaN, NaN, NaN, 0.04577916, "- N/A -   "
28.21, 1080.02, 0.0471604, NaN, NaN, NaN, 0.0445584, "- N/A -   "
28.26, 1082.52, 0.0472492, NaN, NaN, NaN, 0.04089605, "- N/A -   "
28.31, 1085.386, 0.047352, NaN, NaN, NaN, 0.0323506, "- N/A -   "
28.36, 1087.65, 0.04744081, NaN, NaN, NaN, 0.0299091, "- N/A -   "
28.41, 1090.156, 0.04753244, NaN, NaN, NaN, 0.0274675, "- N/A -   "
28.46, 1092.42, 0.0476102, NaN, NaN, NaN, 0.0286883, "- N/A -   "
28.51, 1094.21, 0.0476768, NaN, NaN, NaN, 0.03601294, "- N/A -   "
28.56, 1096.24, 0.04775458, NaN, NaN, NaN, 0.0396753, "- N/A -   "
28.61, 1098.5, 0.04784066, NaN, NaN, NaN, 0.0384545, "- N/A -   "
28.66, 1100.77, 0.047924, NaN, NaN, NaN, 0.0372337, "- N/A -   "
28.71, 1102.68, 0.04799338, NaN, NaN, NaN, 0.0433376, "- N/A -   "
28.76, 1104.7, 0.0480656, NaN, NaN, NaN, 0.0482207, "- N/A -   "
28.81, 1106.97, 0.0481489, NaN, NaN, NaN, 0.0482207, "- N/A -   "
28.86, 1109.83, 0.0482544, NaN, NaN, NaN, 0.0396753, "- N/A -   "
28.91, 1112.93, 0.0483599, NaN, NaN, NaN, 0.0286883, "- N/A -   "
28.96, 1115.32, 0.0484515, NaN, NaN, NaN, 0.0250259, "- N/A -   "
29.01, 1117.35, 0.0485265, NaN, NaN, NaN, 0.0286883, "- N/A -   "
29.06, 1119.25, 0.0486015, NaN, NaN, NaN, 0.0335714, "- N/A -   "
29.11, 1121.28, 0.0486737, NaN, NaN, NaN, 0.0372337, "- N/A -   "
29.16, 1123.55, 0.048757, NaN, NaN, NaN, 0.0372337, "- N/A -   "
29.21, 1126.17, 0.04884862, NaN, NaN, NaN, 0.0335714, "- N/A -   "
29.26, 1128.44, 0.0489319, NaN, NaN, NaN, 0.0335714, "- N/A -   "
29.31, 1130.46, 0.04900967, NaN, NaN, NaN, 0.03601294, "- N/A -   "
29.36, 1132.49, 0.04908464, NaN, NaN, NaN, 0.0396753, "- N/A -   "
29.41, 1134.52, 0.04916517, NaN, NaN, NaN, 0.04089605, "- N/A -   "
29.46, 1137.022, 0.049254, NaN, NaN, NaN, 0.0384545, "- N/A -   "
29.51, 1139.41, 0.04933455, NaN, NaN, NaN, 0.04089605, "- N/A -   "
29.56, 1141.67, 0.04942063, NaN, NaN, NaN, 0.0396753, "- N/A -   "
29.61, 1143.94, 0.0495039, NaN, NaN, NaN, 0.0384545, "- N/A -   "
29.66, 1146.2, 0.0495872, NaN, NaN, NaN, 0.0384545, "- N/A -   "
29.71, 1148.59, 0.04967609, NaN, NaN, NaN, 0.0372337, "- N/A -   "
29.76, 1151.09, 0.0497649, NaN, NaN, NaN, 0.0335714, "- N/A -   "
29.81, 1153.36, 0.0498482, NaN, NaN, NaN, 0.0335714, "- N/A -   "
29.86, 1155.63, 0.0499343, NaN, NaN, NaN, 0.0335714, "- N/A -   "
29.91, 1157.772, 0.0500121, NaN, NaN, NaN, 0.0347922, "- N/A -   "
29.96, 1159.8, 0.05009538, NaN, NaN, NaN, 0.03601294, "- N/A -   "
30.01, 1162.3, 0.0501842, NaN, NaN, NaN, 0.0323506, "- N/A -   "
30.06, 1164.45, 0.050262, NaN, NaN, NaN, 0.03601294, "- N/A -   "
30.11, 1166.358, 0.05033418, NaN, NaN, NaN, 0.0396753, "- N/A -   "
30.16, 1168.62, 0.0504147, NaN, NaN, NaN, 0.04211683, "- N/A -   "
30.21, 1170.89, 0.050498, NaN, NaN, NaN, 0.04089605, "- N/A -   "
30.26, 1173.39, 0.0505896, NaN, NaN, NaN, 0.0372337, "- N/A -   "
30.31, 1175.78, 0.0506785, NaN, NaN, NaN, 0.0347922, "- N/A -   "
30.36, 1178.04, 0.05076458, NaN, NaN, NaN, 0.0335714, "- N/A -   "
30.41, 1180.31, 0.05084788, NaN, NaN, NaN, 0.0335714, "- N/A -   "
30.46, 1182.7, 0.0509367, NaN, NaN, NaN, 0.03112983, "- N/A -   "
30.51, 1184.842, 0.0510173, NaN, NaN, NaN, 0.0323506, "- N/A -   "
30.56, 1187.23, 0.05110612, NaN, NaN, NaN, 0.0299091, "- N/A -   "
30.61, 1189.61, 0.0511894, NaN, NaN, NaN, 0.0299091, "- N/A -   "
30.66, 1191.64, 0.05126717, NaN, NaN, NaN, 0.0323506, "- N/A -   "
30.71, 1193.67, 0.05134492, NaN, NaN, NaN, 0.03601294, "- N/A -   "
30.76, 1195.57, 0.0514143, NaN, NaN, NaN, 0.04211683, "- N/A -   "
30.81, 1197.36, 0.0514893, NaN, NaN, NaN, 0.04699994, "- N/A -   "
30.86, 1199.63, 0.0515671, NaN, NaN, NaN, 0.0482207, "- N/A -   "
30.91, 1202.01, 0.05165592, NaN, NaN, NaN, 0.04577916, "- N/A -   "
30.96, 1204.52, 0.0517503, NaN, NaN, NaN, 0.04089605, "- N/A -   "
31.01, 1207.023, 0.051842, NaN, NaN, NaN, 0.0372337, "- N/A -   "
31.06, 1209.41, 0.05193359, NaN, NaN, NaN, 0.0335714, "- N/A -   "
31.11, 1211.793, 0.0520224, NaN, NaN, NaN, 0.0323506, "- N/A -   "
31.16, 1214.3, 0.0521113, NaN, NaN, NaN, 0.0286883, "- N/A -   "
31.21, 1216.44, 0.0521946, NaN, NaN, NaN, 0.0286883, "- N/A -   "
31.26, 1218.59, 0.0522751, NaN, NaN, NaN, 0.0299091, "- N/A -   "
31.31, 1220.5, 0.0523501, NaN, NaN, NaN, 0.0335714, "- N/A -   "
31.36, 1222.41, 0.0524223, NaN, NaN, NaN, 0.0396753, "- N/A -   "
31.41, 1224.2, 0.0524945, NaN, NaN, NaN, 0.0433376, "- N/A -   "
31.46, 1226.461, 0.052575, NaN, NaN, NaN, 0.0445584, "- N/A -   "
31.51, 1228.73, 0.0526611, NaN, NaN, NaN, 0.0433376, "- N/A -   "
31.56, 1230.99, 0.0527444, NaN, NaN, NaN, 0.0433376, "- N/A -   "
31.61, 1233.38, 0.0528305, NaN, NaN, NaN, 0.04211683, "- N/A -   "
31.66, 1236, 0.05292767, NaN, NaN, NaN, 0.03601294, "- N/A -   "
31.71, 1238.62, 0.0530249, NaN, NaN, NaN, 0.0299091, "- N/A -   "
31.76, 1240.89, 0.0531137, NaN, NaN, NaN, 0.0274675, "- N/A -   "
31.81, 1243.28, 0.05319701, NaN, NaN, NaN, 0.0274675, "- N/A -   "
31.86, 1245.3, 0.053272, NaN, NaN, NaN, 0.03112983, "- N/A -   "
31.91, 1247.33, 0.0533497, NaN, NaN, NaN, 0.0335714, "- N/A -   "
31.96, 1249.36, 0.0534275, NaN, NaN, NaN, 0.03601294, "- N/A -   "
32.01, 1251.38, 0.0535052, NaN, NaN, NaN, 0.0396753, "- N/A -   "
32.06, 1253.89, 0.05359409, NaN, NaN, NaN, 0.03601294, "- N/A -   "
32.11, 1255.92, 0.0536718, NaN, NaN, NaN, 0.0384545, "- N/A -   "
32.16, 1257.94, 0.053744, NaN, NaN, NaN, 0.0433376, "- N/A -   "
32.21, 1259.85, 0.0538218, NaN, NaN, NaN, 0.04699994, "- N/A -   "
32.26, 1262.36, 0.05390786, NaN, NaN, NaN, 0.0445584, "- N/A -   "
32.31, 1264.98, 0.054005, NaN, NaN, NaN, 0.0396753, "- N/A -   "
32.36, 1267.603, 0.0540995, NaN, NaN, NaN, 0.0335714, "- N/A -   "
32.41, 1269.87, 0.0541855, NaN, NaN, NaN, 0.0323506, "- N/A -   "
32.46, 1271.896, 0.05426606, NaN, NaN, NaN, 0.0335714, "- N/A -   "
32.51, 1273.92, 0.05434381, NaN, NaN, NaN, 0.03601294, "- N/A -   "
32.56, 1276.31, 0.0544299, NaN, NaN, NaN, 0.0347922, "- N/A -   "
32.61, 1278.69, 0.0545187, NaN, NaN, NaN, 0.0323506, "- N/A -   "
32.66, 1280.96, 0.05460483, NaN, NaN, NaN, 0.03112983, "- N/A -   "
32.71, 1282.75, 0.054677, NaN, NaN, NaN, 0.03601294, "- N/A -   "
32.76, 1284.89, 0.0547548, NaN, NaN, NaN, 0.0384545, "- N/A -   "
32.81, 1286.92, 0.0548297, NaN, NaN, NaN, 0.04211683, "- N/A -   "
32.845, 1288.59, 0.0548936, NaN, NaN, NaN, 0.0396753, "- N/A -   "