File: 2_Tensile_Data/Hamel_ForceTest_Bolt10_Test9.csv
Time, Load (lb), Position (in), AxialStrain (in), TransverseStrain (in), Auxiliary (), Control Out (V), Stress (psi)
0.0, 10.1435, 0.0, NaN, NaN, NaN, -0.006714277, "- N/A -   "
0.01, 10.26143, 2.776752E-6, NaN, NaN, NaN, -6.103888E-4, "- N/A -   "
0.02, 10.1435, 2.776752E-6, NaN, NaN, NaN, 0.007935055, "- N/A -   "
0.03, 10.1435, 2.776752E-6, NaN, NaN, NaN, 0.0274675, "- N/A -   "
0.04, 10.26143, 1.1107e-05, NaN, NaN, NaN, 0.0445584, "- N/A -   "
0.05, 10.3794, 2.2214e-05, NaN, NaN, NaN, 0.0579869, "- N/A -   "
0.06, 10.8512, 4.16513e-05, NaN, NaN, NaN, 0.0689739, "- N/A -   "
0.07, 11.0871, 6.386529E-5, NaN, NaN, NaN, 0.07874016, "- N/A -   "
0.08, 11.6768, 8.885606E-5, NaN, NaN, NaN, 0.0872856, "- N/A -   "
0.09, 12.14859, 0.000116624, NaN, NaN, NaN, 0.095831, "- N/A -   "
0.1, 12.6204, 0.000147168, NaN, NaN, NaN, 0.09461027, "- N/A -   "
0.11, 12.9742, 0.000174935, NaN, NaN, NaN, 0.08850638, "- N/A -   "
0.12, 13.564, 0.000202703, NaN, NaN, NaN, 0.08362327, "- N/A -   "
0.13, 14.0357, 2.304704E-4, NaN, NaN, NaN, 0.07874016, "- N/A -   "
0.14, 14.3896, 0.000255461, NaN, NaN, NaN, 0.0750778, "- N/A -   "
0.15, 14.7434, 0.000280452, NaN, NaN, NaN, 0.07263627, "- N/A -   "
0.16, 15.2152, 2.998892E-4, NaN, NaN, NaN, 0.0701947, "- N/A -   "
0.17, 15.3332, 0.000319326, NaN, NaN, NaN, 0.0689739, "- N/A -   "
0.18, 15.687, 0.00034154, NaN, NaN, NaN, 0.06775316, "- N/A -   "
0.19, 16.0409, 0.000360978, NaN, NaN, NaN, 0.0653116, "- N/A -   "
0.2, 16.27675, 3.80415E-4, NaN, NaN, NaN, 0.0640908, "- N/A -   "
0.21, 16.6306, 0.000397076, NaN, NaN, NaN, 0.0640908, "- N/A -   "
0.22, 16.86649, 0.000416513, NaN, NaN, NaN, 0.0640908, "- N/A -   "
0.23, 17.1024, 4.331733E-4, NaN, NaN, NaN, 0.06287005, "- N/A -   "
0.24, 17.3383, 0.000452611, NaN, NaN, NaN, 0.06164927, "- N/A -   "
0.25, 17.8101, 0.000474825, NaN, NaN, NaN, 0.0604285, "- N/A -   "
0.26, 18.046, 0.000491485, NaN, NaN, NaN, 0.0592077, "- N/A -   "
0.27, 18.16391, 0.000510922, NaN, NaN, NaN, 0.0579869, "- N/A -   "
0.28, 18.5178, 0.00053036, NaN, NaN, NaN, 0.05676616, "- N/A -   "
0.29, 18.8716, 5.470201E-4, NaN, NaN, NaN, 0.05676616, "- N/A -   "
0.3, 19.1075, 0.000569234, NaN, NaN, NaN, 0.0543246, "- N/A -   "
0.31, 19.3434, 0.000591448, NaN, NaN, NaN, 0.05188305, "- N/A -   "
0.32, 19.6972, 6.108854E-4, NaN, NaN, NaN, 0.05066227, "- N/A -   "
0.33, 19.9331, 0.000630323, NaN, NaN, NaN, 0.0494415, "- N/A -   "
0.34, 20.169, 6.525367E-4, NaN, NaN, NaN, 0.04699994, "- N/A -   "
0.35, 20.52286, 6.719739E-4, NaN, NaN, NaN, 0.04577916, "- N/A -   "
0.36, 20.8767, 6.914112E-4, NaN, NaN, NaN, 0.0445584, "- N/A -   "
0.37, 21.1126, 7.108485E-4, NaN, NaN, NaN, 0.0433376, "- N/A -   "
0.38, 21.46644, 7.302857E-4, NaN, NaN, NaN, 0.04211683, "- N/A -   "
0.39, 21.7023, 7.49723E-4, NaN, NaN, NaN, 0.04211683, "- N/A -   "
0.4, 21.93823, 7.663835E-4, NaN, NaN, NaN, 0.04089605, "- N/A -   "
0.41, 22.1741, 0.000785821, NaN, NaN, NaN, 0.04089605, "- N/A -   "
0.42, 22.41, 0.000802481, NaN, NaN, NaN, 0.0396753, "- N/A -   "
0.43, 22.6459, 8.191418E-4, NaN, NaN, NaN, 0.0396753, "- N/A -   "
0.44, 22.9998, 8.358023E-4, NaN, NaN, NaN, 0.0396753, "- N/A -   "
0.45, 23.2357, 8.524628E-4, NaN, NaN, NaN, 0.0396753, "- N/A -   "
0.46, 23.3536, 0.0008719, NaN, NaN, NaN, 0.0384545, "- N/A -   "
0.47, 23.7074, 0.000891337, NaN, NaN, NaN, 0.0384545, "- N/A -   "
0.48, 23.9433, 0.000907998, NaN, NaN, NaN, 0.0372337, "- N/A -   "
0.49, 24.1792, 9.246584E-4, NaN, NaN, NaN, 0.0372337, "- N/A -   "
0.5, 24.5331, 9.440956E-4, NaN, NaN, NaN, 0.0372337, "- N/A -   "
0.51, 24.8869, 0.000960756, NaN, NaN, NaN, 0.03601294, "- N/A -   "
0.52, 25.1228, 9.801934E-4, NaN, NaN, NaN, 0.0347922, "- N/A -   "
0.53, 25.3587, 9.996307E-4, NaN, NaN, NaN, 0.0347922, "- N/A -   "
0.54, 25.4767, 0.00101629, NaN, NaN, NaN, 0.0335714, "- N/A -   "
0.55, 25.8305, 0.00103573, NaN, NaN, NaN, 0.0335714, "- N/A -   "
0.56, 26.0664, 0.00104961, NaN, NaN, NaN, 0.0335714, "- N/A -   "
0.57, 26.3023, 0.00106905, NaN, NaN, NaN, 0.0335714, "- N/A -   "
0.58, 26.5382, 0.00108293, NaN, NaN, NaN, 0.0335714, "- N/A -   "
0.59, 26.892, 0.00110237, NaN, NaN, NaN, 0.0323506, "- N/A -   "
0.6, 27.1279, 0.001119031, NaN, NaN, NaN, 0.0323506, "- N/A -   "
0.61, 27.3638, 0.00113569, NaN, NaN, NaN, 0.0323506, "- N/A -   "
0.62, 27.4818, 0.001152352, NaN, NaN, NaN, 0.0323506, "- N/A -   "
0.63, 27.8356, 0.00116901, NaN, NaN, NaN, 0.0323506, "- N/A -   "
0.64, 28.0715, 0.001185673, NaN, NaN, NaN, 0.0323506, "- N/A -   "
0.65, 28.42534, 0.00120233, NaN, NaN, NaN, 0.0323506, "- N/A -   "
0.66, 28.6612, 0.001218994, NaN, NaN, NaN, 0.0323506, "- N/A -   "
0.67, 28.89713, 0.00123565, NaN, NaN, NaN, 0.0323506, "- N/A -   "
0.68, 29.133, 0.00125232, NaN, NaN, NaN, 0.0323506, "- N/A -   "
0.69, 29.3689, 0.0012662, NaN, NaN, NaN, 0.0335714, "- N/A -   "
0.7, 29.4869, 0.00128286, NaN, NaN, NaN, 0.0335714, "- N/A -   "
0.71, 29.84071, 0.001296743, NaN, NaN, NaN, 0.0347922, "- N/A -   "
0.72, 30.1946, 0.0013134, NaN, NaN, NaN, 0.03601294, "- N/A -   "
0.73, 30.3125, 0.00132729, NaN, NaN, NaN, 0.03601294, "- N/A -   "
0.74, 30.5484, 0.00134117, NaN, NaN, NaN, 0.0372337, "- N/A -   "
0.75, 30.78429, 0.00135783, NaN, NaN, NaN, 0.0372337, "- N/A -   "
0.76, 31.0202, 0.00137172, NaN, NaN, NaN, 0.0396753, "- N/A -   "
0.77, 31.374, 0.0013856, NaN, NaN, NaN, 0.0396753, "- N/A -   "
0.78, 31.492, 0.00140226, NaN, NaN, NaN, 0.04089605, "- N/A -   "
0.79, 31.72787, 0.00141614, NaN, NaN, NaN, 0.04089605, "- N/A -   "
0.8, 31.9638, 0.00143003, NaN, NaN, NaN, 0.04211683, "- N/A -   "
0.81, 32.1997, 0.00144669, NaN, NaN, NaN, 0.0433376, "- N/A -   "
0.82, 32.4356, 0.00146057, NaN, NaN, NaN, 0.0433376, "- N/A -   "
0.83, 32.67145, 0.00147446, NaN, NaN, NaN, 0.0445584, "- N/A -   "
0.84, 32.9073, 0.00149112, NaN, NaN, NaN, 0.04577916, "- N/A -   "
0.85, 33.1432, 0.001505, NaN, NaN, NaN, 0.04577916, "- N/A -   "
0.86, 33.49708, 0.00152166, NaN, NaN, NaN, 0.04577916, "- N/A -   "
0.87, 33.73298, 0.0015411, NaN, NaN, NaN, 0.04577916, "- N/A -   "
0.88, 33.9689, 0.00155776, NaN, NaN, NaN, 0.0445584, "- N/A -   "
0.89, 34.3227, 0.00157442, NaN, NaN, NaN, 0.0445584, "- N/A -   "
0.9, 34.6766, 0.00159108, NaN, NaN, NaN, 0.0445584, "- N/A -   "
0.91, 34.9125, 0.00160774, NaN, NaN, NaN, 0.0445584, "- N/A -   "
0.92, 35.1483, 0.0016244, NaN, NaN, NaN, 0.0445584, "- N/A -   "
0.93, 35.3842, 0.00164106, NaN, NaN, NaN, 0.0445584, "- N/A -   "
0.94, 35.6201, 0.00165772, NaN, NaN, NaN, 0.04577916, "- N/A -   "
0.95, 35.97398, 0.00167438, NaN, NaN, NaN, 0.0445584, "- N/A -   "
0.96, 36.2099, 0.00169104, NaN, NaN, NaN, 0.0445584, "- N/A -   "
0.97, 36.5637, 0.00171048, NaN, NaN, NaN, 0.0433376, "- N/A -   "
0.98, 36.79961, 0.00172714, NaN, NaN, NaN, 0.0433376, "- N/A -   "
0.99, 37.15345, 0.00174658, NaN, NaN, NaN, 0.04211683, "- N/A -   "
1, 37.5073, 0.00176601, NaN, NaN, NaN, 0.04089605, "- N/A -   "
1.01, 37.8611, 0.00178545, NaN, NaN, NaN, 0.0396753, "- N/A -   "
1.02, 37.9791, 0.001802112, NaN, NaN, NaN, 0.0396753, "- N/A -   "
1.03, 38.3329, 0.00182155, NaN, NaN, NaN, 0.0384545, "- N/A -   "
1.04, 38.5688, 0.00184099, NaN, NaN, NaN, 0.0372337, "- N/A -   "
1.05, 38.9227, 0.00186042, NaN, NaN, NaN, 0.03601294, "- N/A -   "
1.06, 39.15856, 0.00187708, NaN, NaN, NaN, 0.03601294, "- N/A -   "
1.07, 39.5124, 0.001902075, NaN, NaN, NaN, 0.0335714, "- N/A -   "
1.08, 39.8662, 0.00192151, NaN, NaN, NaN, 0.03112983, "- N/A -   "
1.09, 40.22009, 0.00194373, NaN, NaN, NaN, 0.0286883, "- N/A -   "
1.1, 40.69188, 0.00196316, NaN, NaN, NaN, 0.0274675, "- N/A -   "
1.11, 40.9278, 0.001982601, NaN, NaN, NaN, 0.0274675, "- N/A -   "
1.12, 41.2816, 0.00199926, NaN, NaN, NaN, 0.0262467, "- N/A -   "
1.13, 41.51751, 0.00201592, NaN, NaN, NaN, 0.0262467, "- N/A -   "
1.14, 41.8714, 0.00203258, NaN, NaN, NaN, 0.0262467, "- N/A -   "
1.15, 41.9893, 0.00204924, NaN, NaN, NaN, 0.0274675, "- N/A -   "
1.16, 42.3431, 0.00206313, NaN, NaN, NaN, 0.0274675, "- N/A -   "
1.17, 42.697, 0.00207701, NaN, NaN, NaN, 0.0286883, "- N/A -   "
1.18, 42.8149, 0.002093671, NaN, NaN, NaN, 0.0299091, "- N/A -   "
1.19, 43.0508, 0.00210755, NaN, NaN, NaN, 0.0299091, "- N/A -   "
1.2, 43.40467, 0.00212422, NaN, NaN, NaN, 0.03112983, "- N/A -   "
1.21, 43.87646, 0.002138099, NaN, NaN, NaN, 0.03112983, "- N/A -   "
1.22, 43.9944, 0.00215198, NaN, NaN, NaN, 0.0323506, "- N/A -   "
1.23, 44.34825, 0.00217142, NaN, NaN, NaN, 0.03112983, "- N/A -   "
1.24, 44.58414, 0.00218808, NaN, NaN, NaN, 0.03112983, "- N/A -   "
1.25, 44.82, 0.002204741, NaN, NaN, NaN, 0.0323506, "- N/A -   "
1.26, 45.29183, 0.00221862, NaN, NaN, NaN, 0.0323506, "- N/A -   "
1.27, 45.6457, 0.002238062, NaN, NaN, NaN, 0.0323506, "- N/A -   "
1.28, 45.9995, 0.00225195, NaN, NaN, NaN, 0.0323506, "- N/A -   "
1.29, 46.23541, 0.00226861, NaN, NaN, NaN, 0.0323506, "- N/A -   "
1.3, 46.5893, 0.00228527, NaN, NaN, NaN, 0.0323506, "- N/A -   "
1.31, 46.9431, 0.002304704, NaN, NaN, NaN, 0.0323506, "- N/A -   "
1.32, 47.2969, 0.00231859, NaN, NaN, NaN, 0.0323506, "- N/A -   "
1.33, 47.5328, 0.00233525, NaN, NaN, NaN, 0.0323506, "- N/A -   "
1.34, 47.8867, 0.00235191, NaN, NaN, NaN, 0.0335714, "- N/A -   "
1.35, 48.12257, 0.00236579, NaN, NaN, NaN, 0.0335714, "- N/A -   "
1.36, 48.3585, 0.002382453, NaN, NaN, NaN, 0.0335714, "- N/A -   "
1.37, 48.83025, 0.00239911, NaN, NaN, NaN, 0.0335714, "- N/A -   "
1.38, 49.0661, 0.00241577, NaN, NaN, NaN, 0.0335714, "- N/A -   "
1.39, 49.41999, 0.00242966, NaN, NaN, NaN, 0.0347922, "- N/A -   "
1.4, 49.6559, 0.00244354, NaN, NaN, NaN, 0.03601294, "- N/A -   "
1.41, 49.8918, 0.0024602, NaN, NaN, NaN, 0.0372337, "- N/A -   "
1.42, 50.2456, 0.00247409, NaN, NaN, NaN, 0.0372337, "- N/A -   "
1.43, 50.4815, 0.00249075, NaN, NaN, NaN, 0.0372337, "- N/A -   "
1.44, 50.9533, 0.00250741, NaN, NaN, NaN, 0.0372337, "- N/A -   "
1.45, 51.30715, 0.00252407, NaN, NaN, NaN, 0.0372337, "- N/A -   "
1.46, 51.543, 0.00254073, NaN, NaN, NaN, 0.0372337, "- N/A -   "
1.47, 51.89689, 0.00255739, NaN, NaN, NaN, 0.0384545, "- N/A -   "
1.48, 52.1328, 0.00257127, NaN, NaN, NaN, 0.0384545, "- N/A -   "
1.49, 52.48662, 0.002585156, NaN, NaN, NaN, 0.0396753, "- N/A -   "
1.5, 52.84047, 0.00259904, NaN, NaN, NaN, 0.04089605, "- N/A -   "
1.51, 53.19431, 0.0026157, NaN, NaN, NaN, 0.04089605, "- N/A -   "
1.52, 53.3123, 0.00263236, NaN, NaN, NaN, 0.04211683, "- N/A -   "
1.53, 53.784, 0.00264902, NaN, NaN, NaN, 0.04211683, "- N/A -   "
1.54, 54.0199, 0.00266568, NaN, NaN, NaN, 0.04211683, "- N/A -   "
1.55, 54.3738, 0.00267957, NaN, NaN, NaN, 0.04211683, "- N/A -   "
1.56, 54.7276, 0.00269345, NaN, NaN, NaN, 0.0433376, "- N/A -   "
1.57, 54.9635, 0.00271011, NaN, NaN, NaN, 0.0433376, "- N/A -   "
1.58, 55.3174, 0.00272399, NaN, NaN, NaN, 0.0445584, "- N/A -   "
1.59, 55.43531, 0.002740654, NaN, NaN, NaN, 0.04577916, "- N/A -   "
1.6, 55.7892, 0.00275454, NaN, NaN, NaN, 0.04577916, "- N/A -   "
1.61, 56.143, 0.0027712, NaN, NaN, NaN, 0.04577916, "- N/A -   "
1.62, 56.4968, 0.00278786, NaN, NaN, NaN, 0.04577916, "- N/A -   "
1.63, 56.9686, 0.0028073, NaN, NaN, NaN, 0.04577916, "- N/A -   "
1.64, 57.32247, 0.00282396, NaN, NaN, NaN, 0.0445584, "- N/A -   "
1.65, 57.79426, 0.002843394, NaN, NaN, NaN, 0.0433376, "- N/A -   "
1.66, 58.1481, 0.00286283, NaN, NaN, NaN, 0.0433376, "- N/A -   "
1.67, 58.5019, 0.00288227, NaN, NaN, NaN, 0.04211683, "- N/A -   "
1.68, 58.9737, 0.00290171, NaN, NaN, NaN, 0.0396753, "- N/A -   "
1.69, 59.3276, 0.00292114, NaN, NaN, NaN, 0.0396753, "- N/A -   "
1.7, 59.68142, 0.0029378, NaN, NaN, NaN, 0.0384545, "- N/A -   "
1.71, 60.15321, 0.002954464, NaN, NaN, NaN, 0.0384545, "- N/A -   "
1.72, 60.625, 0.002973901, NaN, NaN, NaN, 0.0372337, "- N/A -   "
1.73, 60.8609, 0.00299334, NaN, NaN, NaN, 0.0372337, "- N/A -   "
1.74, 61.3327, 0.003009999, NaN, NaN, NaN, 0.03601294, "- N/A -   "
1.75, 61.6865, 0.00302666, NaN, NaN, NaN, 0.03601294, "- N/A -   "
1.76, 62.0404, 0.0030461, NaN, NaN, NaN, 0.0347922, "- N/A -   "
1.77, 62.2763, 0.00306276, NaN, NaN, NaN, 0.0347922, "- N/A -   "
1.78, 62.6301, 0.00307942, NaN, NaN, NaN, 0.0347922, "- N/A -   "
1.79, 63.1019, 0.003098855, NaN, NaN, NaN, 0.0335714, "- N/A -   "
1.8, 63.45574, 0.00311829, NaN, NaN, NaN, 0.0323506, "- N/A -   "
1.81, 63.6916, 0.00313773, NaN, NaN, NaN, 0.0323506, "- N/A -   "
1.82, 64.16342, 0.00315439, NaN, NaN, NaN, 0.0323506, "- N/A -   "
1.83, 64.3993, 0.003168274, NaN, NaN, NaN, 0.0323506, "- N/A -   "
1.84, 64.75317, 0.00318493, NaN, NaN, NaN, 0.0335714, "- N/A -   "
1.85, 65.107, 0.003198818, NaN, NaN, NaN, 0.0335714, "- N/A -   "
1.86, 65.3429, 0.003215479, NaN, NaN, NaN, 0.0335714, "- N/A -   "
1.87, 65.93263, 0.00323214, NaN, NaN, NaN, 0.0335714, "- N/A -   "
1.88, 66.16853, 0.003246023, NaN, NaN, NaN, 0.0347922, "- N/A -   "
1.89, 66.40443, 0.00326268, NaN, NaN, NaN, 0.0347922, "- N/A -   "
1.9, 66.75827, 0.003279344, NaN, NaN, NaN, 0.03601294, "- N/A -   "
1.91, 67.1121, 0.00329323, NaN, NaN, NaN, 0.03601294, "- N/A -   "
1.92, 67.46596, 0.003309888, NaN, NaN, NaN, 0.03601294, "- N/A -   "
1.93, 67.70185, 0.003326549, NaN, NaN, NaN, 0.03601294, "- N/A -   "
1.94, 68.17364, 0.00334599, NaN, NaN, NaN, 0.03601294, "- N/A -   "
1.95, 68.52748, 0.00336265, NaN, NaN, NaN, 0.0347922, "- N/A -   "
1.96, 68.7634, 0.003382084, NaN, NaN, NaN, 0.0347922, "- N/A -   "
1.97, 69.23517, 0.00339597, NaN, NaN, NaN, 0.0347922, "- N/A -   "
1.98, 69.589, 0.003412628, NaN, NaN, NaN, 0.0347922, "- N/A -   "
1.99, 69.94285, 0.00342929, NaN, NaN, NaN, 0.0347922, "- N/A -   "
2, 70.29669, 0.00344873, NaN, NaN, NaN, 0.0347922, "- N/A -   "
2.01, 70.6505, 0.00346539, NaN, NaN, NaN, 0.0335714, "- N/A -   "
2.02, 71.00438, 0.003482047, NaN, NaN, NaN, 0.0335714, "- N/A -   "
2.03, 71.3582, 0.00349593, NaN, NaN, NaN, 0.0347922, "- N/A -   "
2.04, 71.59412, 0.00351259, NaN, NaN, NaN, 0.0347922, "- N/A -   "
2.05, 71.94796, 0.00352925, NaN, NaN, NaN, 0.0347922, "- N/A -   "
2.06, 72.1838, 0.00354591, NaN, NaN, NaN, 0.03601294, "- N/A -   "
2.07, 72.65564, 0.00356257, NaN, NaN, NaN, 0.03601294, "- N/A -   "
2.08, 73.00948, 0.00357923, NaN, NaN, NaN, 0.03601294, "- N/A -   "
2.09, 73.36333, 0.00359312, NaN, NaN, NaN, 0.03601294, "- N/A -   "
2.1, 73.71717, 0.00360978, NaN, NaN, NaN, 0.03601294, "- N/A -   "
2.11, 74.071, 0.003626438, NaN, NaN, NaN, 0.03601294, "- N/A -   "
2.12, 74.3069, 0.0036431, NaN, NaN, NaN, 0.03601294, "- N/A -   "
2.13, 74.7787, 0.00365698, NaN, NaN, NaN, 0.0372337, "- N/A -   "
2.14, 75.13254, 0.00367364, NaN, NaN, NaN, 0.0372337, "- N/A -   "
2.15, 75.25049, 0.0036903, NaN, NaN, NaN, 0.0384545, "- N/A -   "
2.16, 75.6043, 0.00370141, NaN, NaN, NaN, 0.0396753, "- N/A -   "
2.17, 75.95817, 0.00371529, NaN, NaN, NaN, 0.04089605, "- N/A -   "
2.18, 76.19407, 0.00372918, NaN, NaN, NaN, 0.04211683, "- N/A -   "
2.19, 76.43, 0.00374306, NaN, NaN, NaN, 0.0445584, "- N/A -   "
2.2, 76.7838, 0.00375972, NaN, NaN, NaN, 0.0445584, "- N/A -   "
2.21, 77.13765, 0.00377638, NaN, NaN, NaN, 0.0445584, "- N/A -   "
2.22, 77.49149, 0.00379304, NaN, NaN, NaN, 0.0433376, "- N/A -   "
2.23, 78.08122, 0.0038097, NaN, NaN, NaN, 0.0433376, "- N/A -   "
2.24, 78.31712, 0.00382636, NaN, NaN, NaN, 0.0433376, "- N/A -   "
2.25, 78.67096, 0.0038458, NaN, NaN, NaN, 0.0433376, "- N/A -   "
2.26, 79.0248, 0.00386246, NaN, NaN, NaN, 0.04211683, "- N/A -   "
2.27, 79.37865, 0.00387912, NaN, NaN, NaN, 0.04211683, "- N/A -   "
2.28, 79.73249, 0.00389578, NaN, NaN, NaN, 0.04211683, "- N/A -   "
2.29, 80.20428, 0.00391522, NaN, NaN, NaN, 0.04211683, "- N/A -   "
2.3, 80.55813, 0.00393188, NaN, NaN, NaN, 0.04089605, "- N/A -   "
2.31, 80.912, 0.00394854, NaN, NaN, NaN, 0.04089605, "- N/A -   "
2.32, 81.26581, 0.00396798, NaN, NaN, NaN, 0.0396753, "- N/A -   "
2.33, 81.7376, 0.00398464, NaN, NaN, NaN, 0.0396753, "- N/A -   "
2.34, 81.97349, 0.0040013, NaN, NaN, NaN, 0.0396753, "- N/A -   "
2.35, 82.44528, 0.00402351, NaN, NaN, NaN, 0.0384545, "- N/A -   "
2.36, 82.79912, 0.00404017, NaN, NaN, NaN, 0.0372337, "- N/A -   "
2.37, 83.15297, 0.00405683, NaN, NaN, NaN, 0.0372337, "- N/A -   "
2.38, 83.50681, 0.004076272, NaN, NaN, NaN, 0.0372337, "- N/A -   "
2.39, 83.9786, 0.00409293, NaN, NaN, NaN, 0.03601294, "- N/A -   "
2.4, 84.21449, 0.00410959, NaN, NaN, NaN, 0.03601294, "- N/A -   "
2.41, 84.68629, 0.00412903, NaN, NaN, NaN, 0.03601294, "- N/A -   "
2.42, 85.04012, 0.00414291, NaN, NaN, NaN, 0.03601294, "- N/A -   "
2.43, 85.39397, 0.00416235, NaN, NaN, NaN, 0.0347922, "- N/A -   "
2.44, 85.62987, 0.004176235, NaN, NaN, NaN, 0.03601294, "- N/A -   "
2.45, 86.1017, 0.004195672, NaN, NaN, NaN, 0.03601294, "- N/A -   "
2.46, 86.4555, 0.00421233, NaN, NaN, NaN, 0.0347922, "- N/A -   "
2.47, 86.92729, 0.00423177, NaN, NaN, NaN, 0.0335714, "- N/A -   "
2.48, 87.28113, 0.00425121, NaN, NaN, NaN, 0.0335714, "- N/A -   "
2.49, 87.63497, 0.00427064, NaN, NaN, NaN, 0.0323506, "- N/A -   "
2.5, 87.9888, 0.004284528, NaN, NaN, NaN, 0.0323506, "- N/A -   "
2.51, 88.34265, 0.00430119, NaN, NaN, NaN, 0.0323506, "- N/A -   "
2.52, 88.6965, 0.004317849, NaN, NaN, NaN, 0.0323506, "- N/A -   "
2.53, 89.05035, 0.00433451, NaN, NaN, NaN, 0.0323506, "- N/A -   "
2.54, 89.40418, 0.00435117, NaN, NaN, NaN, 0.0323506, "- N/A -   "
2.55, 89.6401, 0.00436783, NaN, NaN, NaN, 0.0335714, "- N/A -   "
2.56, 90.11186, 0.004384491, NaN, NaN, NaN, 0.0335714, "- N/A -   "
2.57, 90.4657, 0.00440115, NaN, NaN, NaN, 0.0323506, "- N/A -   "
2.58, 90.81956, 0.004417812, NaN, NaN, NaN, 0.0335714, "- N/A -   "
2.59, 91.1734, 0.004434473, NaN, NaN, NaN, 0.0335714, "- N/A -   "
2.6, 91.52724, 0.00444836, NaN, NaN, NaN, 0.0335714, "- N/A -   "
2.61, 91.88108, 0.004465017, NaN, NaN, NaN, 0.0335714, "- N/A -   "
2.62, 92.35287, 0.004481678, NaN, NaN, NaN, 0.0335714, "- N/A -   "
2.63, 92.70671, 0.00450111, NaN, NaN, NaN, 0.0323506, "- N/A -   "
2.64, 93.0606, 0.004517775, NaN, NaN, NaN, 0.0323506, "- N/A -   "
2.65, 93.2965, 0.004531659, NaN, NaN, NaN, 0.0335714, "- N/A -   "
2.66, 93.53234, 0.00454832, NaN, NaN, NaN, 0.0335714, "- N/A -   "
2.67, 94.1221, 0.004567757, NaN, NaN, NaN, 0.0323506, "- N/A -   "
2.68, 94.47592, 0.004587194, NaN, NaN, NaN, 0.0323506, "- N/A -   "
2.69, 94.8298, 0.004603855, NaN, NaN, NaN, 0.03112983, "- N/A -   "
2.7, 95.18361, 0.004620515, NaN, NaN, NaN, 0.03112983, "- N/A -   "
2.71, 95.5374, 0.00463718, NaN, NaN, NaN, 0.03112983, "- N/A -   "
2.72, 95.8913, 0.004651059, NaN, NaN, NaN, 0.0323506, "- N/A -   "
2.73, 96.24514, 0.004670497, NaN, NaN, NaN, 0.0323506, "- N/A -   "
2.74, 96.599, 0.00468438, NaN, NaN, NaN, 0.0323506, "- N/A -   "
2.75, 96.83487, 0.004698264, NaN, NaN, NaN, 0.0335714, "- N/A -   "
2.76, 97.18872, 0.004714925, NaN, NaN, NaN, 0.0335714, "- N/A -   "
2.77, 97.54256, 0.00473159, NaN, NaN, NaN, 0.0335714, "- N/A -   "
2.78, 97.77845, 0.004745469, NaN, NaN, NaN, 0.0347922, "- N/A -   "
2.79, 98.3682, 0.004764906, NaN, NaN, NaN, 0.0347922, "- N/A -   "
2.8, 98.60408, 0.004781567, NaN, NaN, NaN, 0.0335714, "- N/A -   "
2.81, 98.9579, 0.00479545, NaN, NaN, NaN, 0.0347922, "- N/A -   "
2.82, 99.3118, 0.004814888, NaN, NaN, NaN, 0.0347922, "- N/A -   "
2.83, 99.66561, 0.004828771, NaN, NaN, NaN, 0.03601294, "- N/A -   "
2.84, 99.9015, 0.00484266, NaN, NaN, NaN, 0.03601294, "- N/A -   "
2.85, 100.255, 0.004859316, NaN, NaN, NaN, 0.0372337, "- N/A -   "
2.86, 100.6092, 0.0048732, NaN, NaN, NaN, 0.0372337, "- N/A -   "
2.87, 100.845, 0.00488986, NaN, NaN, NaN, 0.0384545, "- N/A -   "
2.88, 101.199, 0.004903744, NaN, NaN, NaN, 0.0396753, "- N/A -   "
2.89, 101.553, 0.00491763, NaN, NaN, NaN, 0.0396753, "- N/A -   "
2.9, 101.789, 0.004934288, NaN, NaN, NaN, 0.0396753, "- N/A -   "
2.91, 102.26, 0.004950949, NaN, NaN, NaN, 0.0396753, "- N/A -   "
2.92, 102.6143, 0.004967609, NaN, NaN, NaN, 0.04089605, "- N/A -   "
2.93, 102.968, 0.00498427, NaN, NaN, NaN, 0.04089605, "- N/A -   "
2.94, 103.322, 0.00500093, NaN, NaN, NaN, 0.0396753, "- N/A -   "
2.95, 103.676, 0.005017591, NaN, NaN, NaN, 0.04089605, "- N/A -   "
2.96, 104.03, 0.00503147, NaN, NaN, NaN, 0.04089605, "- N/A -   "
2.97, 104.384, 0.00504814, NaN, NaN, NaN, 0.04089605, "- N/A -   "
2.98, 104.619, 0.0050648, NaN, NaN, NaN, 0.04089605, "- N/A -   "
2.99, 105.091, 0.005081456, NaN, NaN, NaN, 0.04211683, "- N/A -   "
3, 105.327, 0.00509534, NaN, NaN, NaN, 0.04211683, "- N/A -   "
3.01, 105.681, 0.00510922, NaN, NaN, NaN, 0.0433376, "- N/A -   "
3.02, 106.035, 0.005128661, NaN, NaN, NaN, 0.04211683, "- N/A -   "
3.03, 106.389, 0.005145321, NaN, NaN, NaN, 0.0433376, "- N/A -   "
3.04, 106.625, 0.00515921, NaN, NaN, NaN, 0.0433376, "- N/A -   "
3.05, 107.214, 0.00517587, NaN, NaN, NaN, 0.0433376, "- N/A -   "
3.06, 107.45, 0.005195303, NaN, NaN, NaN, 0.0433376, "- N/A -   "
3.07, 107.922, 0.00521196, NaN, NaN, NaN, 0.04211683, "- N/A -   "
3.08, 108.276, 0.005228624, NaN, NaN, NaN, 0.04211683, "- N/A -   "
3.09, 108.63, 0.00524806, NaN, NaN, NaN, 0.04089605, "- N/A -   "
3.1, 109.101, 0.0052675, NaN, NaN, NaN, 0.0396753, "- N/A -   "
3.11, 109.455, 0.005284159, NaN, NaN, NaN, 0.0396753, "- N/A -   "
3.12, 110.045, 0.00530637, NaN, NaN, NaN, 0.0372337, "- N/A -   "
3.13, 110.281, 0.00532581, NaN, NaN, NaN, 0.0372337, "- N/A -   "
3.14, 110.753, 0.00534247, NaN, NaN, NaN, 0.03601294, "- N/A -   "
3.15, 111.224, 0.005361908, NaN, NaN, NaN, 0.0347922, "- N/A -   "
3.16, 111.578, 0.00537857, NaN, NaN, NaN, 0.0347922, "- N/A -   "
3.17, 112.0501, 0.005395229, NaN, NaN, NaN, 0.0347922, "- N/A -   "
3.18, 112.286, 0.00541189, NaN, NaN, NaN, 0.0347922, "- N/A -   "
3.19, 112.758, 0.00543133, NaN, NaN, NaN, 0.0347922, "- N/A -   "
3.2, 112.994, 0.00544521, NaN, NaN, NaN, 0.0347922, "- N/A -   "
3.21, 113.465, 0.00546465, NaN, NaN, NaN, 0.0347922, "- N/A -   "
3.22, 113.819, 0.00548131, NaN, NaN, NaN, 0.0347922, "- N/A -   "
3.23, 114.055, 0.00549519, NaN, NaN, NaN, 0.0347922, "- N/A -   "
3.24, 114.409, 0.00551185, NaN, NaN, NaN, 0.0347922, "- N/A -   "
3.25, 114.881, 0.00552851, NaN, NaN, NaN, 0.03601294, "- N/A -   "
3.26, 115.117, 0.00554517, NaN, NaN, NaN, 0.03601294, "- N/A -   "
3.27, 115.471, 0.005561834, NaN, NaN, NaN, 0.03601294, "- N/A -   "
3.28, 115.824, 0.00557572, NaN, NaN, NaN, 0.03601294, "- N/A -   "
3.29, 116.178, 0.00559238, NaN, NaN, NaN, 0.03601294, "- N/A -   "
3.3, 116.5321, 0.00561182, NaN, NaN, NaN, 0.03601294, "- N/A -   "
3.31, 116.886, 0.00562848, NaN, NaN, NaN, 0.0347922, "- N/A -   "
3.32, 117.358, 0.00564514, NaN, NaN, NaN, 0.0347922, "- N/A -   "
3.33, 117.83, 0.0056618, NaN, NaN, NaN, 0.0347922, "- N/A -   "
3.34, 118.183, 0.00567846, NaN, NaN, NaN, 0.0347922, "- N/A -   "
3.35, 118.655, 0.005697895, NaN, NaN, NaN, 0.0335714, "- N/A -   "
3.36, 118.891, 0.00571456, NaN, NaN, NaN, 0.0335714, "- N/A -   "
3.37, 119.363, 0.00573399, NaN, NaN, NaN, 0.0323506, "- N/A -   "
3.38, 119.835, 0.00575343, NaN, NaN, NaN, 0.0323506, "- N/A -   "
3.39, 120.071, 0.00577009, NaN, NaN, NaN, 0.03112983, "- N/A -   "
3.4, 120.424, 0.005786751, NaN, NaN, NaN, 0.03112983, "- N/A -   "
3.41, 120.896, 0.00580619, NaN, NaN, NaN, 0.03112983, "- N/A -   "
3.42, 121.368, 0.00582285, NaN, NaN, NaN, 0.03112983, "- N/A -   "
3.43, 121.604, 0.00583951, NaN, NaN, NaN, 0.03112983, "- N/A -   "
3.44, 122.076, 0.00585617, NaN, NaN, NaN, 0.03112983, "- N/A -   "
3.45, 122.429, 0.00587283, NaN, NaN, NaN, 0.0299091, "- N/A -   "
3.46, 122.783, 0.00588949, NaN, NaN, NaN, 0.03112983, "- N/A -   "
3.47, 123.137, 0.00590337, NaN, NaN, NaN, 0.03112983, "- N/A -   "
3.48, 123.373, 0.00591726, NaN, NaN, NaN, 0.0323506, "- N/A -   "
3.49, 123.7269, 0.005933919, NaN, NaN, NaN, 0.0323506, "- N/A -   "
3.5, 124.081, 0.0059478, NaN, NaN, NaN, 0.0335714, "- N/A -   "
3.51, 124.435, 0.00596169, NaN, NaN, NaN, 0.0347922, "- N/A -   "
3.52, 124.67, 0.00597557, NaN, NaN, NaN, 0.03601294, "- N/A -   "
3.53, 124.906, 0.00598945, NaN, NaN, NaN, 0.0372337, "- N/A -   "
3.54, 125.26, 0.006003338, NaN, NaN, NaN, 0.0384545, "- N/A -   "
3.55, 125.614, 0.006019998, NaN, NaN, NaN, 0.0396753, "- N/A -   "
3.56, 125.85, 0.006033882, NaN, NaN, NaN, 0.04089605, "- N/A -   "
3.57, 126.204, 0.00604777, NaN, NaN, NaN, 0.04089605, "- N/A -   "
3.58, 126.558, 0.00606165, NaN, NaN, NaN, 0.04211683, "- N/A -   "
3.59, 126.911, 0.006075533, NaN, NaN, NaN, 0.0433376, "- N/A -   "
3.6, 127.265, 0.006089417, NaN, NaN, NaN, 0.0445584, "- N/A -   "
3.61, 127.501, 0.00610608, NaN, NaN, NaN, 0.04577916, "- N/A -   "
3.62, 127.737, 0.006119961, NaN, NaN, NaN, 0.0482207, "- N/A -   "
3.63, 128.209, 0.006133845, NaN, NaN, NaN, 0.0482207, "- N/A -   "
3.64, 128.4448, 0.00615051, NaN, NaN, NaN, 0.0482207, "- N/A -   "
3.65, 128.917, 0.006164389, NaN, NaN, NaN, 0.0494415, "- N/A -   "
3.66, 129.27, 0.00618105, NaN, NaN, NaN, 0.0494415, "- N/A -   "
3.67, 129.624, 0.00619771, NaN, NaN, NaN, 0.0494415, "- N/A -   "
3.68, 129.978, 0.00621715, NaN, NaN, NaN, 0.0482207, "- N/A -   "
3.69, 130.4499, 0.006236585, NaN, NaN, NaN, 0.0482207, "- N/A -   "
3.7, 130.922, 0.00625325, NaN, NaN, NaN, 0.04699994, "- N/A -   "
3.71, 131.276, 0.006272683, NaN, NaN, NaN, 0.04577916, "- N/A -   "
3.72, 131.747, 0.006289343, NaN, NaN, NaN, 0.04577916, "- N/A -   "
3.73, 132.219, 0.006311557, NaN, NaN, NaN, 0.0445584, "- N/A -   "
3.74, 132.6909, 0.006330994, NaN, NaN, NaN, 0.0433376, "- N/A -   "
3.75, 133.045, 0.006347655, NaN, NaN, NaN, 0.04211683, "- N/A -   "
3.76, 133.517, 0.00636987, NaN, NaN, NaN, 0.0396753, "- N/A -   "
3.77, 133.988, 0.006392083, NaN, NaN, NaN, 0.0384545, "- N/A -   "
3.78, 134.578, 0.00641152, NaN, NaN, NaN, 0.03601294, "- N/A -   "
3.79, 134.932, 0.006430957, NaN, NaN, NaN, 0.03601294, "- N/A -   "
3.8, 135.4037, 0.006450395, NaN, NaN, NaN, 0.0347922, "- N/A -   "
3.81, 135.875, 0.006467055, NaN, NaN, NaN, 0.0335714, "- N/A -   "
3.82, 136.111, 0.006483716, NaN, NaN, NaN, 0.0335714, "- N/A -   "
3.83, 136.583, 0.006503153, NaN, NaN, NaN, 0.0335714, "- N/A -   "
3.84, 136.937, 0.006519813, NaN, NaN, NaN, 0.0323506, "- N/A -   "
3.85, 137.291, 0.0065337, NaN, NaN, NaN, 0.0335714, "- N/A -   "
3.86, 137.6447, 0.00655313, NaN, NaN, NaN, 0.0335714, "- N/A -   "
3.87, 138.116, 0.006569795, NaN, NaN, NaN, 0.0335714, "- N/A -   "
3.88, 138.47, 0.00658646, NaN, NaN, NaN, 0.0335714, "- N/A -   "
3.89, 138.942, 0.006603116, NaN, NaN, NaN, 0.0323506, "- N/A -   "
3.9, 139.296, 0.00662255, NaN, NaN, NaN, 0.0323506, "- N/A -   "
3.91, 139.768, 0.006639214, NaN, NaN, NaN, 0.03112983, "- N/A -   "
3.92, 140.24, 0.006658651, NaN, NaN, NaN, 0.03112983, "- N/A -   "
3.93, 140.711, 0.006675312, NaN, NaN, NaN, 0.0299091, "- N/A -   "
3.94, 141.065, 0.006694749, NaN, NaN, NaN, 0.0286883, "- N/A -   "
3.95, 141.419, 0.00671141, NaN, NaN, NaN, 0.0286883, "- N/A -   "
3.96, 141.6549, 0.00672807, NaN, NaN, NaN, 0.0299091, "- N/A -   "
3.97, 142.1267, 0.006741954, NaN, NaN, NaN, 0.0299091, "- N/A -   "
3.98, 142.481, 0.006758614, NaN, NaN, NaN, 0.0299091, "- N/A -   "
3.99, 142.8344, 0.006775275, NaN, NaN, NaN, 0.0299091, "- N/A -   "
4, 143.188, 0.00679194, NaN, NaN, NaN, 0.0299091, "- N/A -   "
4.01, 143.66, 0.006808596, NaN, NaN, NaN, 0.0299091, "- N/A -   "
4.02, 144.014, 0.006825256, NaN, NaN, NaN, 0.0299091, "- N/A -   "
4.03, 144.486, 0.006841917, NaN, NaN, NaN, 0.0299091, "- N/A -   "
4.04, 144.604, 0.006861354, NaN, NaN, NaN, 0.0299091, "- N/A -   "
4.05, 145.193, 0.006878014, NaN, NaN, NaN, 0.0286883, "- N/A -   "
4.06, 145.429, 0.006894675, NaN, NaN, NaN, 0.0299091, "- N/A -   "
4.07, 146.019, 0.00690856, NaN, NaN, NaN, 0.0299091, "- N/A -   "
4.08, 146.255, 0.006925219, NaN, NaN, NaN, 0.0299091, "- N/A -   "
4.09, 146.6087, 0.00694188, NaN, NaN, NaN, 0.0299091, "- N/A -   "
4.1, 146.963, 0.00695576, NaN, NaN, NaN, 0.03112983, "- N/A -   "
4.11, 147.198, 0.00696965, NaN, NaN, NaN, 0.0323506, "- N/A -   "
4.12, 147.67, 0.006986308, NaN, NaN, NaN, 0.0335714, "- N/A -   "
4.13, 147.906, 0.00700019, NaN, NaN, NaN, 0.0347922, "- N/A -   "
4.14, 148.26, 0.00701408, NaN, NaN, NaN, 0.0347922, "- N/A -   "
4.15, 148.496, 0.00702796, NaN, NaN, NaN, 0.03601294, "- N/A -   "
4.16, 148.8497, 0.00703907, NaN, NaN, NaN, 0.0384545, "- N/A -   "
4.17, 149.204, 0.00705573, NaN, NaN, NaN, 0.0384545, "- N/A -   "
4.18, 149.557, 0.00706961, NaN, NaN, NaN, 0.04089605, "- N/A -   "
4.19, 149.793, 0.007083494, NaN, NaN, NaN, 0.04089605, "- N/A -   "
4.2, 150.147, 0.00709738, NaN, NaN, NaN, 0.0433376, "- N/A -   "
4.21, 150.383, 0.00711126, NaN, NaN, NaN, 0.0433376, "- N/A -   "
4.22, 150.737, 0.00712515, NaN, NaN, NaN, 0.0445584, "- N/A -   "
4.23, 151.091, 0.00713903, NaN, NaN, NaN, 0.04577916, "- N/A -   "
4.24, 151.445, 0.00715569, NaN, NaN, NaN, 0.04577916, "- N/A -   "
4.25, 151.798, 0.00716957, NaN, NaN, NaN, 0.04699994, "- N/A -   "
4.26, 152.27, 0.00718901, NaN, NaN, NaN, 0.04699994, "- N/A -   "
4.27, 152.624, 0.007205671, NaN, NaN, NaN, 0.04699994, "- N/A -   "
4.28, 153.096, 0.00722233, NaN, NaN, NaN, 0.04577916, "- N/A -   "
4.29, 153.45, 0.007241769, NaN, NaN, NaN, 0.04577916, "- N/A -   "
4.3, 153.921, 0.00725843, NaN, NaN, NaN, 0.0445584, "- N/A -   "
4.31, 154.393, 0.00727509, NaN, NaN, NaN, 0.0445584, "- N/A -   "
4.32, 154.747, 0.00729175, NaN, NaN, NaN, 0.0445584, "- N/A -   "
4.33, 154.983, 0.00730841, NaN, NaN, NaN, 0.0445584, "- N/A -   "
4.34, 155.455, 0.00732507, NaN, NaN, NaN, 0.0445584, "- N/A -   "
4.35, 155.927, 0.00734451, NaN, NaN, NaN, 0.0445584, "- N/A -   "
4.36, 156.162, 0.00736117, NaN, NaN, NaN, 0.0445584, "- N/A -   "
4.37, 156.634, 0.00737505, NaN, NaN, NaN, 0.04577916, "- N/A -   "
4.38, 157.106, 0.00739171, NaN, NaN, NaN, 0.04577916, "- N/A -   "
4.39, 157.46, 0.00741115, NaN, NaN, NaN, 0.0433376, "- N/A -   "
4.4, 157.814, 0.00742781, NaN, NaN, NaN, 0.0433376, "- N/A -   "
4.41, 158.2855, 0.00744447, NaN, NaN, NaN, 0.0433376, "- N/A -   "
4.42, 158.7573, 0.00746113, NaN, NaN, NaN, 0.0433376, "- N/A -   "
4.43, 159.111, 0.00748057, NaN, NaN, NaN, 0.0433376, "- N/A -   "
4.44, 159.465, 0.00749723, NaN, NaN, NaN, 0.04211683, "- N/A -   "
4.45, 159.937, 0.00751667, NaN, NaN, NaN, 0.04211683, "- N/A -   "
4.46, 160.409, 0.007536105, NaN, NaN, NaN, 0.04089605, "- N/A -   "
4.47, 160.7624, 0.007555542, NaN, NaN, NaN, 0.0396753, "- N/A -   "
4.48, 161.116, 0.0075722, NaN, NaN, NaN, 0.0384545, "- N/A -   "
4.49, 161.706, 0.00759164, NaN, NaN, NaN, 0.0372337, "- N/A -   "
4.5, 162.06, 0.007611077, NaN, NaN, NaN, 0.03601294, "- N/A -   "
4.51, 162.532, 0.00763051, NaN, NaN, NaN, 0.0347922, "- N/A -   "
4.52, 163.0034, 0.00764995, NaN, NaN, NaN, 0.0335714, "- N/A -   "
4.53, 163.475, 0.007669389, NaN, NaN, NaN, 0.0323506, "- N/A -   "
4.54, 163.947, 0.007688826, NaN, NaN, NaN, 0.03112983, "- N/A -   "
4.55, 164.301, 0.007705487, NaN, NaN, NaN, 0.03112983, "- N/A -   "
4.56, 164.773, 0.007722147, NaN, NaN, NaN, 0.03112983, "- N/A -   "
4.57, 165.126, 0.00773881, NaN, NaN, NaN, 0.03112983, "- N/A -   "
4.58, 165.4803, 0.007755468, NaN, NaN, NaN, 0.03112983, "- N/A -   "
4.59, 165.952, 0.00777213, NaN, NaN, NaN, 0.03112983, "- N/A -   "
4.6, 166.306, 0.00779157, NaN, NaN, NaN, 0.03112983, "- N/A -   "
4.61, 166.66, 0.00780545, NaN, NaN, NaN, 0.03112983, "- N/A -   "
4.62, 167.014, 0.00782211, NaN, NaN, NaN, 0.03112983, "- N/A -   "
4.63, 167.485, 0.007838771, NaN, NaN, NaN, 0.03112983, "- N/A -   "
4.64, 167.7213, 0.007855431, NaN, NaN, NaN, 0.03112983, "- N/A -   "
4.65, 168.311, 0.007872092, NaN, NaN, NaN, 0.03112983, "- N/A -   "
4.66, 168.547, 0.007885976, NaN, NaN, NaN, 0.0323506, "- N/A -   "
4.67, 168.901, 0.007899859, NaN, NaN, NaN, 0.0335714, "- N/A -   "
4.68, 169.255, 0.007916519, NaN, NaN, NaN, 0.0335714, "- N/A -   "
4.69, 169.608, 0.00793318, NaN, NaN, NaN, 0.0335714, "- N/A -   "
4.7, 169.962, 0.007949841, NaN, NaN, NaN, 0.0335714, "- N/A -   "
4.71, 170.4341, 0.007963724, NaN, NaN, NaN, 0.0347922, "- N/A -   "
4.72, 170.788, 0.007980385, NaN, NaN, NaN, 0.0347922, "- N/A -   "
4.73, 171.142, 0.007997046, NaN, NaN, NaN, 0.0347922, "- N/A -   "
4.74, 171.614, 0.008013706, NaN, NaN, NaN, 0.0347922, "- N/A -   "
4.75, 171.9674, 0.008030367, NaN, NaN, NaN, 0.0347922, "- N/A -   "
4.76, 172.321, 0.008047027, NaN, NaN, NaN, 0.03601294, "- N/A -   "
4.77, 172.6751, 0.008063688, NaN, NaN, NaN, 0.03601294, "- N/A -   "
4.78, 173.029, 0.008077571, NaN, NaN, NaN, 0.03601294, "- N/A -   "
4.79, 173.501, 0.008094232, NaN, NaN, NaN, 0.03601294, "- N/A -   "
4.8, 173.737, 0.008110892, NaN, NaN, NaN, 0.03601294, "- N/A -   "
4.81, 174.326, 0.008127553, NaN, NaN, NaN, 0.03601294, "- N/A -   "
4.82, 174.6802, 0.00814699, NaN, NaN, NaN, 0.03601294, "- N/A -   "
4.83, 175.034, 0.008160874, NaN, NaN, NaN, 0.03601294, "- N/A -   "
4.84, 175.624, 0.008180311, NaN, NaN, NaN, 0.03601294, "- N/A -   "
4.85, 175.86, 0.008194195, NaN, NaN, NaN, 0.03601294, "- N/A -   "
4.86, 176.096, 0.008210856, NaN, NaN, NaN, 0.03601294, "- N/A -   "
4.87, 176.449, 0.008224739, NaN, NaN, NaN, 0.0372337, "- N/A -   "
4.88, 176.9212, 0.0082414, NaN, NaN, NaN, 0.0384545, "- N/A -   "
4.89, 177.1571, 0.008255283, NaN, NaN, NaN, 0.0396753, "- N/A -   "
4.9, 177.511, 0.00826917, NaN, NaN, NaN, 0.0396753, "- N/A -   "
4.91, 177.983, 0.008285828, NaN, NaN, NaN, 0.0396753, "- N/A -   "
4.92, 178.337, 0.008299711, NaN, NaN, NaN, 0.04089605, "- N/A -   "
4.93, 178.69, 0.00831637, NaN, NaN, NaN, 0.04089605, "- N/A -   "
4.94, 179.044, 0.008333032, NaN, NaN, NaN, 0.04211683, "- N/A -   "
4.95, 179.3981, 0.008346916, NaN, NaN, NaN, 0.04211683, "- N/A -   "
4.96, 179.752, 0.008363577, NaN, NaN, NaN, 0.04211683, "- N/A -   "
4.97, 180.106, 0.008377461, NaN, NaN, NaN, 0.0433376, "- N/A -   "
4.98, 180.46, 0.008394121, NaN, NaN, NaN, 0.0433376, "- N/A -   "
4.99, 180.813, 0.008410782, NaN, NaN, NaN, 0.0445584, "- N/A -   "
5, 181.167, 0.008424665, NaN, NaN, NaN, 0.0445584, "- N/A -   "
5.01, 181.521, 0.008438549, NaN, NaN, NaN, 0.04577916, "- N/A -   "
5.02, 181.993, 0.008455209, NaN, NaN, NaN, 0.04577916, "- N/A -   "
5.03, 182.3468, 0.008474647, NaN, NaN, NaN, 0.04577916, "- N/A -   "
5.04, 182.819, 0.00849131, NaN, NaN, NaN, 0.04577916, "- N/A -   "
5.05, 183.172, 0.008507968, NaN, NaN, NaN, 0.0445584, "- N/A -   "
5.06, 183.526, 0.008524628, NaN, NaN, NaN, 0.0445584, "- N/A -   "
5.07, 183.998, 0.008544065, NaN, NaN, NaN, 0.0445584, "- N/A -   "
5.08, 184.47, 0.008563503, NaN, NaN, NaN, 0.0433376, "- N/A -   "
5.09, 184.942, 0.00858294, NaN, NaN, NaN, 0.04089605, "- N/A -   "
5.1, 185.413, 0.008602377, NaN, NaN, NaN, 0.0396753, "- N/A -   "
5.11, 185.885, 0.008621815, NaN, NaN, NaN, 0.0384545, "- N/A -   "
5.12, 186.475, 0.008644029, NaN, NaN, NaN, 0.0372337, "- N/A -   "
5.13, 186.947, 0.008663466, NaN, NaN, NaN, 0.03601294, "- N/A -   "
5.14, 187.419, 0.008682903, NaN, NaN, NaN, 0.0335714, "- N/A -   "
5.15, 187.89, 0.008702341, NaN, NaN, NaN, 0.0323506, "- N/A -   "
5.16, 188.244, 0.008721777, NaN, NaN, NaN, 0.03112983, "- N/A -   "
5.17, 188.834, 0.008741215, NaN, NaN, NaN, 0.0299091, "- N/A -   "
5.18, 189.188, 0.00876065, NaN, NaN, NaN, 0.0286883, "- N/A -   "
5.19, 189.5416, 0.008777313, NaN, NaN, NaN, 0.0286883, "- N/A -   "
5.2, 190.013, 0.008796751, NaN, NaN, NaN, 0.0274675, "- N/A -   "
5.21, 190.367, 0.008813411, NaN, NaN, NaN, 0.0274675, "- N/A -   "
5.22, 190.839, 0.008830071, NaN, NaN, NaN, 0.0274675, "- N/A -   "
5.23, 191.193, 0.008846732, NaN, NaN, NaN, 0.0286883, "- N/A -   "
5.24, 191.547, 0.008860615, NaN, NaN, NaN, 0.0286883, "- N/A -   "
5.25, 191.901, 0.008874499, NaN, NaN, NaN, 0.0299091, "- N/A -   "
5.26, 192.254, 0.00889116, NaN, NaN, NaN, 0.03112983, "- N/A -   "
5.27, 192.608, 0.008905044, NaN, NaN, NaN, 0.03112983, "- N/A -   "
5.28, 192.844, 0.008918927, NaN, NaN, NaN, 0.0323506, "- N/A -   "
5.29, 193.198, 0.00893281, NaN, NaN, NaN, 0.0335714, "- N/A -   "
5.3, 193.67, 0.008949472, NaN, NaN, NaN, 0.0335714, "- N/A -   "
5.31, 194.024, 0.008966132, NaN, NaN, NaN, 0.0335714, "- N/A -   "
5.32, 194.377, 0.008980015, NaN, NaN, NaN, 0.0347922, "- N/A -   "
5.33, 194.731, 0.008996677, NaN, NaN, NaN, 0.03601294, "- N/A -   "
5.34, 195.085, 0.009013337, NaN, NaN, NaN, 0.03601294, "- N/A -   "
5.35, 195.439, 0.00902722, NaN, NaN, NaN, 0.03601294, "- N/A -   "
5.36, 195.7928, 0.009043881, NaN, NaN, NaN, 0.0372337, "- N/A -   "
5.37, 196.265, 0.009060541, NaN, NaN, NaN, 0.03601294, "- N/A -   "
5.38, 196.618, 0.009077202, NaN, NaN, NaN, 0.03601294, "- N/A -   "
5.39, 197.09, 0.009096639, NaN, NaN, NaN, 0.03601294, "- N/A -   "
5.4, 197.444, 0.0091133, NaN, NaN, NaN, 0.0347922, "- N/A -   "
5.41, 197.916, 0.009132737, NaN, NaN, NaN, 0.0335714, "- N/A -   "
5.42, 198.388, 0.009152175, NaN, NaN, NaN, 0.0323506, "- N/A -   "
5.43, 198.977, 0.009171612, NaN, NaN, NaN, 0.0323506, "- N/A -   "
5.44, 199.449, 0.009188272, NaN, NaN, NaN, 0.03112983, "- N/A -   "
5.45, 199.803, 0.00920771, NaN, NaN, NaN, 0.03112983, "- N/A -   "
5.46, 200.275, 0.009221593, NaN, NaN, NaN, 0.03112983, "- N/A -   "
5.47, 200.7466, 0.009238253, NaN, NaN, NaN, 0.03112983, "- N/A -   "
5.48, 200.9825, 0.009254914, NaN, NaN, NaN, 0.0323506, "- N/A -   "
5.49, 201.2184, 0.009268798, NaN, NaN, NaN, 0.0323506, "- N/A -   "
5.5, 201.69, 0.009285458, NaN, NaN, NaN, 0.0323506, "- N/A -   "
5.51, 202.162, 0.009302119, NaN, NaN, NaN, 0.0335714, "- N/A -   "
5.52, 202.398, 0.009316003, NaN, NaN, NaN, 0.0347922, "- N/A -   "
5.53, 202.7517, 0.009329887, NaN, NaN, NaN, 0.0347922, "- N/A -   "
5.54, 202.9876, 0.00934377, NaN, NaN, NaN, 0.03601294, "- N/A -   "
5.55, 203.341, 0.009357654, NaN, NaN, NaN, 0.0372337, "- N/A -   "
5.56, 203.577, 0.009371538, NaN, NaN, NaN, 0.0396753, "- N/A -   "
5.57, 203.931, 0.009382645, NaN, NaN, NaN, 0.04089605, "- N/A -   "
5.58, 204.167, 0.009399305, NaN, NaN, NaN, 0.04211683, "- N/A -   "
5.59, 204.521, 0.009413189, NaN, NaN, NaN, 0.04211683, "- N/A -   "
5.6, 204.7568, 0.00942707, NaN, NaN, NaN, 0.0433376, "- N/A -   "
5.61, 205.347, 0.009440957, NaN, NaN, NaN, 0.0445584, "- N/A -   "
5.62, 205.7, 0.009460394, NaN, NaN, NaN, 0.0433376, "- N/A -   "
5.63, 206.172, 0.009477054, NaN, NaN, NaN, 0.0433376, "- N/A -   "
5.64, 206.526, 0.009493715, NaN, NaN, NaN, 0.0433376, "- N/A -   "
5.65, 206.88, 0.009513152, NaN, NaN, NaN, 0.0433376, "- N/A -   "
5.66, 207.4696, 0.009529813, NaN, NaN, NaN, 0.04211683, "- N/A -   "
5.67, 207.941, 0.009546473, NaN, NaN, NaN, 0.04211683, "- N/A -   "
5.68, 208.295, 0.00956591, NaN, NaN, NaN, 0.04089605, "- N/A -   "
5.69, 208.649, 0.00957979, NaN, NaN, NaN, 0.04211683, "- N/A -   "
5.7, 209.121, 0.009596455, NaN, NaN, NaN, 0.04211683, "- N/A -   "
5.71, 209.475, 0.009613114, NaN, NaN, NaN, 0.04211683, "- N/A -   "
5.72, 209.829, 0.009629776, NaN, NaN, NaN, 0.04211683, "- N/A -   "
5.73, 210.182, 0.009646436, NaN, NaN, NaN, 0.04211683, "- N/A -   "
5.74, 210.654, 0.009665873, NaN, NaN, NaN, 0.04211683, "- N/A -   "
5.75, 211.126, 0.009679756, NaN, NaN, NaN, 0.04211683, "- N/A -   "
5.76, 211.48, 0.009699194, NaN, NaN, NaN, 0.04089605, "- N/A -   "
5.77, 211.9516, 0.009718632, NaN, NaN, NaN, 0.0396753, "- N/A -   "
5.78, 212.4234, 0.009738068, NaN, NaN, NaN, 0.0384545, "- N/A -   "
5.79, 212.777, 0.009754729, NaN, NaN, NaN, 0.0384545, "- N/A -   "
5.8, 213.249, 0.009774166, NaN, NaN, NaN, 0.0384545, "- N/A -   "
5.81, 213.603, 0.00979083, NaN, NaN, NaN, 0.0384545, "- N/A -   "
5.82, 213.957, 0.009804711, NaN, NaN, NaN, 0.0384545, "- N/A -   "
5.83, 214.4285, 0.009821372, NaN, NaN, NaN, 0.0384545, "- N/A -   "
5.84, 214.782, 0.009838033, NaN, NaN, NaN, 0.0384545, "- N/A -   "
5.85, 215.254, 0.009854692, NaN, NaN, NaN, 0.0384545, "- N/A -   "
5.86, 215.608, 0.00987413, NaN, NaN, NaN, 0.0372337, "- N/A -   "
5.87, 215.962, 0.00989079, NaN, NaN, NaN, 0.0372337, "- N/A -   "
5.88, 216.434, 0.00990745, NaN, NaN, NaN, 0.0372337, "- N/A -   "
5.89, 216.905, 0.009926888, NaN, NaN, NaN, 0.0372337, "- N/A -   "
5.9, 217.377, 0.009943549, NaN, NaN, NaN, 0.0372337, "- N/A -   "
5.91, 217.731, 0.009960209, NaN, NaN, NaN, 0.0372337, "- N/A -   "
5.92, 218.085, 0.00997687, NaN, NaN, NaN, 0.0372337, "- N/A -   "
5.93, 218.557, 0.00999353, NaN, NaN, NaN, 0.03601294, "- N/A -   "
5.94, 218.9105, 0.01001019, NaN, NaN, NaN, 0.03601294, "- N/A -   "
5.95, 219.264, 0.0100269, NaN, NaN, NaN, 0.03601294, "- N/A -   "
[...]
34.25, 1411.06, 0.05718165, NaN, NaN, NaN, 0.04089605, "- N/A -   "
34.28, 1412.26, 0.05722608, NaN, NaN, NaN, 0.0445584, "- N/A -   "
34.31, 1413.45, 0.0572705, NaN, NaN, NaN, 0.04577916, "- N/A -   "
34.34, 1414.64, 0.0573177, NaN, NaN, NaN, 0.04699994, "- N/A -   "
34.37, 1416.19, 0.0573677, NaN, NaN, NaN, 0.04699994, "- N/A -   "
34.4, 1417.622, 0.05742045, NaN, NaN, NaN, 0.04577916, "- N/A -   "
34.43, 1419.29, 0.057476, NaN, NaN, NaN, 0.0433376, "- N/A -   "
34.46, 1420.72, 0.0575343, NaN, NaN, NaN, 0.0396753, "- N/A -   "
34.49, 1422.39, 0.0575926, NaN, NaN, NaN, 0.03601294, "- N/A -   "
34.52, 1423.94, 0.0576481, NaN, NaN, NaN, 0.0347922, "- N/A -   "
34.55, 1425.25, 0.0576981, NaN, NaN, NaN, 0.0335714, "- N/A -   "
34.58, 1426.57, 0.0577481, NaN, NaN, NaN, 0.0335714, "- N/A -   "
34.61, 1427.88, 0.0577981, NaN, NaN, NaN, 0.0335714, "- N/A -   "
34.64, 1429.43, 0.0578508, NaN, NaN, NaN, 0.0323506, "- N/A -   "
34.67, 1430.98, 0.0579036, NaN, NaN, NaN, 0.03112983, "- N/A -   "
34.7, 1432.17, 0.0579564, NaN, NaN, NaN, 0.03112983, "- N/A -   "
34.73, 1433.721, 0.0580063, NaN, NaN, NaN, 0.0299091, "- N/A -   "
34.76, 1435.03, 0.0580563, NaN, NaN, NaN, 0.0299091, "- N/A -   "
34.79, 1436.46, 0.0581063, NaN, NaN, NaN, 0.0299091, "- N/A -   "
34.82, 1437.42, 0.05814796, NaN, NaN, NaN, 0.0335714, "- N/A -   "
34.85, 1438.73, 0.0581924, NaN, NaN, NaN, 0.03601294, "- N/A -   "
34.88, 1439.922, 0.0582424, NaN, NaN, NaN, 0.03601294, "- N/A -   "
34.91, 1441, 0.05828402, NaN, NaN, NaN, 0.0396753, "- N/A -   "
34.94, 1442.19, 0.05832845, NaN, NaN, NaN, 0.04211683, "- N/A -   "
34.97, 1443.5, 0.0583757, NaN, NaN, NaN, 0.0433376, "- N/A -   "
35, 1445.05, 0.05843119, NaN, NaN, NaN, 0.04211683, "- N/A -   "
35.03, 1446.36, 0.0584812, NaN, NaN, NaN, 0.04211683, "- N/A -   "
35.06, 1447.55, 0.05852837, NaN, NaN, NaN, 0.04211683, "- N/A -   "
35.09, 1448.99, 0.0585784, NaN, NaN, NaN, 0.04211683, "- N/A -   "
35.12, 1450.54, 0.05863389, NaN, NaN, NaN, 0.0396753, "- N/A -   "
35.15, 1451.85, 0.0586839, NaN, NaN, NaN, 0.0396753, "- N/A -   "
35.18, 1453.4, 0.0587394, NaN, NaN, NaN, 0.0384545, "- N/A -   "
35.21, 1455.07, 0.0588005, NaN, NaN, NaN, 0.0335714, "- N/A -   "
35.24, 1456.74, 0.0588588, NaN, NaN, NaN, 0.0299091, "- N/A -   "
35.27, 1458.17, 0.05890879, NaN, NaN, NaN, 0.0286883, "- N/A -   "
35.3, 1459.48, 0.05895877, NaN, NaN, NaN, 0.0299091, "- N/A -   "
35.33, 1461.03, 0.0590115, NaN, NaN, NaN, 0.0286883, "- N/A -   "
35.36, 1462.34, 0.05906151, NaN, NaN, NaN, 0.0286883, "- N/A -   "
35.39, 1463.53, 0.0591087, NaN, NaN, NaN, 0.0299091, "- N/A -   "
35.42, 1464.73, 0.0591531, NaN, NaN, NaN, 0.0323506, "- N/A -   "
35.45, 1465.919, 0.05919757, NaN, NaN, NaN, 0.0347922, "- N/A -   "
35.48, 1467.23, 0.0592448, NaN, NaN, NaN, 0.03601294, "- N/A -   "
35.51, 1468.42, 0.059292, NaN, NaN, NaN, 0.0372337, "- N/A -   "
35.54, 1469.85, 0.0593447, NaN, NaN, NaN, 0.03601294, "- N/A -   "
35.57, 1471.166, 0.0593919, NaN, NaN, NaN, 0.0372337, "- N/A -   "
35.6, 1472.48, 0.0594419, NaN, NaN, NaN, 0.0384545, "- N/A -   "
35.63, 1473.67, 0.0594836, NaN, NaN, NaN, 0.04089605, "- N/A -   "
35.66, 1474.74, 0.059528, NaN, NaN, NaN, 0.0433376, "- N/A -   "
35.69, 1476.06, 0.0595724, NaN, NaN, NaN, 0.04577916, "- N/A -   "
35.72, 1477.37, 0.05961964, NaN, NaN, NaN, 0.04699994, "- N/A -   "
35.75, 1478.8, 0.0596724, NaN, NaN, NaN, 0.04577916, "- N/A -   "
35.78, 1480.35, 0.05972793, NaN, NaN, NaN, 0.0433376, "- N/A -   "
35.81, 1482.02, 0.0597862, NaN, NaN, NaN, 0.0396753, "- N/A -   "
35.84, 1483.45, 0.059839, NaN, NaN, NaN, 0.0384545, "- N/A -   "
35.87, 1485, 0.05989731, NaN, NaN, NaN, 0.03601294, "- N/A -   "
35.9, 1486.55, 0.0599528, NaN, NaN, NaN, 0.0323506, "- N/A -   "
35.93, 1488.22, 0.06000838, NaN, NaN, NaN, 0.0299091, "- N/A -   "
35.96, 1489.17, 0.06005, NaN, NaN, NaN, 0.0335714, "- N/A -   "
35.99, 1490.48, 0.06009446, NaN, NaN, NaN, 0.03601294, "- N/A -   "
36.02, 1491.56, 0.0601417, NaN, NaN, NaN, 0.0384545, "- N/A -   "
36.05, 1492.99, 0.06019165, NaN, NaN, NaN, 0.0384545, "- N/A -   "
36.08, 1494.42, 0.0602444, NaN, NaN, NaN, 0.03601294, "- N/A -   "
36.11, 1496.09, 0.06030272, NaN, NaN, NaN, 0.0335714, "- N/A -   "
36.14, 1497.52, 0.0603555, NaN, NaN, NaN, 0.03112983, "- N/A -   "
36.17, 1498.71, 0.06040268, NaN, NaN, NaN, 0.0323506, "- N/A -   "
36.2, 1499.91, 0.0604443, NaN, NaN, NaN, 0.03601294, "- N/A -   "
36.23, 1501.1, 0.06049154, NaN, NaN, NaN, 0.0372337, "- N/A -   "
36.26, 1502.29, 0.060536, NaN, NaN, NaN, 0.0396753, "- N/A -   "
36.29, 1503.48, 0.0605804, NaN, NaN, NaN, 0.04211683, "- N/A -   "
36.32, 1504.68, 0.0606304, NaN, NaN, NaN, 0.04211683, "- N/A -   "
36.35, 1506.11, 0.06068313, NaN, NaN, NaN, 0.04211683, "- N/A -   "
36.38, 1507.66, 0.0607359, NaN, NaN, NaN, 0.0396753, "- N/A -   "
36.41, 1509.09, 0.0607831, NaN, NaN, NaN, 0.04211683, "- N/A -   "
36.44, 1510.4, 0.0608331, NaN, NaN, NaN, 0.04089605, "- N/A -   "
36.47, 1511.71, 0.06088306, NaN, NaN, NaN, 0.04211683, "- N/A -   "
36.5, 1513.14, 0.0609358, NaN, NaN, NaN, 0.0396753, "- N/A -   "
36.53, 1514.81, 0.0609914, NaN, NaN, NaN, 0.0372337, "- N/A -   "
36.56, 1516.124, 0.0610413, NaN, NaN, NaN, 0.0372337, "- N/A -   "
36.59, 1517.555, 0.0610941, NaN, NaN, NaN, 0.03601294, "- N/A -   "
36.62, 1518.87, 0.06114685, NaN, NaN, NaN, 0.0347922, "- N/A -   "
36.65, 1520.298, 0.06119961, NaN, NaN, NaN, 0.0335714, "- N/A -   "
36.68, 1521.61, 0.0612468, NaN, NaN, NaN, 0.0347922, "- N/A -   "
36.71, 1523.16, 0.06129957, NaN, NaN, NaN, 0.0335714, "- N/A -   "
36.74, 1524.591, 0.0613551, NaN, NaN, NaN, 0.0323506, "- N/A -   "
36.77, 1526.14, 0.0614079, NaN, NaN, NaN, 0.0299091, "- N/A -   "
36.8, 1527.453, 0.06145507, NaN, NaN, NaN, 0.03112983, "- N/A -   "
36.83, 1528.76, 0.0615051, NaN, NaN, NaN, 0.0323506, "- N/A -   "
36.86, 1530.08, 0.06155503, NaN, NaN, NaN, 0.03112983, "- N/A -   "
36.89, 1531.269, 0.0616022, NaN, NaN, NaN, 0.0323506, "- N/A -   "
36.92, 1532.7, 0.061655, NaN, NaN, NaN, 0.0323506, "- N/A -   "
36.95, 1534.01, 0.0616994, NaN, NaN, NaN, 0.0335714, "- N/A -   "
36.98, 1535.2, 0.06174385, NaN, NaN, NaN, 0.03601294, "- N/A -   "
37.01, 1536.16, 0.0617855, NaN, NaN, NaN, 0.0396753, "- N/A -   "
37.04, 1537.47, 0.0618299, NaN, NaN, NaN, 0.04211683, "- N/A -   "
37.07, 1538.54, 0.06187436, NaN, NaN, NaN, 0.0445584, "- N/A -   "
37.1, 1539.736, 0.0619216, NaN, NaN, NaN, 0.04699994, "- N/A -   "
37.13, 1541.05, 0.06196877, NaN, NaN, NaN, 0.0482207, "- N/A -   "
37.16, 1542.36, 0.062016, NaN, NaN, NaN, 0.0482207, "- N/A -   "
37.19, 1543.91, 0.06207151, NaN, NaN, NaN, 0.04577916, "- N/A -   "
37.22, 1545.34, 0.062127, NaN, NaN, NaN, 0.0433376, "- N/A -   "
37.25, 1547.01, 0.06218536, NaN, NaN, NaN, 0.0396753, "- N/A -   "
37.28, 1548.8, 0.0622464, NaN, NaN, NaN, 0.03601294, "- N/A -   "
37.31, 1550.35, 0.0622992, NaN, NaN, NaN, 0.0335714, "- N/A -   "
37.34, 1551.66, 0.06235196, NaN, NaN, NaN, 0.0323506, "- N/A -   "
37.37, 1552.85, 0.0623992, NaN, NaN, NaN, 0.0335714, "- N/A -   "
37.4, 1554.17, 0.06244637, NaN, NaN, NaN, 0.0347922, "- N/A -   "
37.43, 1555.6, 0.06250191, NaN, NaN, NaN, 0.0335714, "- N/A -   "
37.46, 1557.03, 0.0625547, NaN, NaN, NaN, 0.0323506, "- N/A -   "
37.49, 1558.46, 0.06260464, NaN, NaN, NaN, 0.0323506, "- N/A -   "
37.52, 1559.89, 0.0626574, NaN, NaN, NaN, 0.0299091, "- N/A -   "
37.55, 1561.082, 0.06270739, NaN, NaN, NaN, 0.03112983, "- N/A -   "
37.58, 1562.39, 0.0627546, NaN, NaN, NaN, 0.0323506, "- N/A -   "
37.61, 1563.467, 0.062799, NaN, NaN, NaN, 0.0347922, "- N/A -   "
37.64, 1564.66, 0.06284067, NaN, NaN, NaN, 0.0372337, "- N/A -   "
37.67, 1565.73, 0.0628851, NaN, NaN, NaN, 0.0396753, "- N/A -   "
37.7, 1566.93, 0.0629295, NaN, NaN, NaN, 0.04211683, "- N/A -   "
37.73, 1568.24, 0.062974, NaN, NaN, NaN, 0.0445584, "- N/A -   "
37.76, 1569.43, 0.06302116, NaN, NaN, NaN, 0.04577916, "- N/A -   "
37.79, 1570.74, 0.06307114, NaN, NaN, NaN, 0.04699994, "- N/A -   "
37.82, 1572.29, 0.0631267, NaN, NaN, NaN, 0.0445584, "- N/A -   "
37.85, 1573.72, 0.06318221, NaN, NaN, NaN, 0.04211683, "- N/A -   "
37.88, 1575.39, 0.06324052, NaN, NaN, NaN, 0.0384545, "- N/A -   "
37.91, 1576.94, 0.06329606, NaN, NaN, NaN, 0.0347922, "- N/A -   "
37.94, 1578.49, 0.0633516, NaN, NaN, NaN, 0.0323506, "- N/A -   "
37.97, 1579.8, 0.06340157, NaN, NaN, NaN, 0.0323506, "- N/A -   "
38, 1581, 0.06345155, NaN, NaN, NaN, 0.0323506, "- N/A -   "
38.03, 1582.43, 0.06350154, NaN, NaN, NaN, 0.0323506, "- N/A -   "
38.06, 1584.1, 0.0635571, NaN, NaN, NaN, 0.0299091, "- N/A -   "
38.09, 1585.53, 0.06360983, NaN, NaN, NaN, 0.0286883, "- N/A -   "
38.12, 1586.84, 0.06366259, NaN, NaN, NaN, 0.0274675, "- N/A -   "
38.15, 1588.27, 0.0637153, NaN, NaN, NaN, 0.0262467, "- N/A -   "
38.18, 1589.58, 0.06376533, NaN, NaN, NaN, 0.0274675, "- N/A -   "
38.21, 1590.78, 0.06380975, NaN, NaN, NaN, 0.0286883, "- N/A -   "
38.24, 1591.85, 0.06385141, NaN, NaN, NaN, 0.0323506, "- N/A -   "
38.27, 1592.92, 0.0638903, NaN, NaN, NaN, 0.0372337, "- N/A -   "
38.3, 1593.88, 0.0639347, NaN, NaN, NaN, 0.04089605, "- N/A -   "
38.33, 1595.07, 0.06397636, NaN, NaN, NaN, 0.0433376, "- N/A -   "
38.36, 1596.26, 0.06402356, NaN, NaN, NaN, 0.0445584, "- N/A -   "
38.39, 1597.57, 0.06407355, NaN, NaN, NaN, 0.04577916, "- N/A -   "
38.42, 1599, 0.06412353, NaN, NaN, NaN, 0.04577916, "- N/A -   "
38.45, 1600.316, 0.06417351, NaN, NaN, NaN, 0.04577916, "- N/A -   "
38.48, 1601.747, 0.06422349, NaN, NaN, NaN, 0.04577916, "- N/A -   "
38.51, 1603.06, 0.06427347, NaN, NaN, NaN, 0.0445584, "- N/A -   "
38.54, 1604.609, 0.064329, NaN, NaN, NaN, 0.04211683, "- N/A -   "
38.57, 1606.28, 0.06438454, NaN, NaN, NaN, 0.0396753, "- N/A -   "
38.6, 1607.47, 0.06444008, NaN, NaN, NaN, 0.0372337, "- N/A -   "
38.63, 1609.26, 0.06449839, NaN, NaN, NaN, 0.0335714, "- N/A -   "
38.66, 1610.93, 0.0645567, NaN, NaN, NaN, 0.0299091, "- N/A -   "
38.69, 1612.24, 0.06460946, NaN, NaN, NaN, 0.0299091, "- N/A -   "
38.72, 1613.55, 0.06465944, NaN, NaN, NaN, 0.0286883, "- N/A -   "
38.75, 1614.75, 0.0647066, NaN, NaN, NaN, 0.0299091, "- N/A -   "
38.78, 1615.938, 0.06475107, NaN, NaN, NaN, 0.0335714, "- N/A -   "
38.81, 1617.01, 0.06479273, NaN, NaN, NaN, 0.03601294, "- N/A -   "
38.84, 1618.323, 0.06483993, NaN, NaN, NaN, 0.0372337, "- N/A -   "
38.87, 1619.63, 0.06488991, NaN, NaN, NaN, 0.0372337, "- N/A -   "
38.9, 1621.07, 0.0649427, NaN, NaN, NaN, 0.0372337, "- N/A -   "
38.93, 1622.5, 0.06499542, NaN, NaN, NaN, 0.03601294, "- N/A -   "
38.96, 1623.81, 0.06504541, NaN, NaN, NaN, 0.03601294, "- N/A -   "
38.99, 1625.12, 0.0650926, NaN, NaN, NaN, 0.03601294, "- N/A -   "
39.02, 1626.19, 0.06513704, NaN, NaN, NaN, 0.0384545, "- N/A -   "
39.05, 1627.39, 0.06518147, NaN, NaN, NaN, 0.04089605, "- N/A -   "
39.08, 1628.698, 0.06522867, NaN, NaN, NaN, 0.04211683, "- N/A -   "
39.11, 1629.89, 0.0652731, NaN, NaN, NaN, 0.0445584, "- N/A -   "
39.14, 1631.08, 0.0653231, NaN, NaN, NaN, 0.04577916, "- N/A -   "
39.17, 1632.51, 0.06537306, NaN, NaN, NaN, 0.0445584, "- N/A -   "
39.2, 1634.3, 0.06543416, NaN, NaN, NaN, 0.0396753, "- N/A -   "
39.23, 1635.97, 0.06549802, NaN, NaN, NaN, 0.0335714, "- N/A -   "
39.26, 1637.52, 0.06555633, NaN, NaN, NaN, 0.03112983, "- N/A -   "
39.29, 1638.95, 0.06560909, NaN, NaN, NaN, 0.0286883, "- N/A -   "
39.32, 1640.5, 0.06566185, NaN, NaN, NaN, 0.0286883, "- N/A -   "
39.35, 1641.58, 0.0657063, NaN, NaN, NaN, 0.0299091, "- N/A -   "
39.38, 1642.65, 0.0657507, NaN, NaN, NaN, 0.0323506, "- N/A -   "
39.41, 1643.96, 0.06579513, NaN, NaN, NaN, 0.0347922, "- N/A -   "
39.44, 1645.15, 0.06584234, NaN, NaN, NaN, 0.03601294, "- N/A -   "
39.47, 1646.47, 0.06589232, NaN, NaN, NaN, 0.03601294, "- N/A -   "
39.5, 1647.9, 0.06594508, NaN, NaN, NaN, 0.0347922, "- N/A -   "
39.53, 1649.45, 0.06600339, NaN, NaN, NaN, 0.03112983, "- N/A -   "
39.56, 1651, 0.06605893, NaN, NaN, NaN, 0.0299091, "- N/A -   "
39.59, 1652.19, 0.0661034, NaN, NaN, NaN, 0.03112983, "- N/A -   "
39.62, 1653.26, 0.06614778, NaN, NaN, NaN, 0.0335714, "- N/A -   "
39.65, 1654.46, 0.06619221, NaN, NaN, NaN, 0.03601294, "- N/A -   "
39.68, 1655.41, 0.06623386, NaN, NaN, NaN, 0.0396753, "- N/A -   "
39.71, 1656.6, 0.06627829, NaN, NaN, NaN, 0.04211683, "- N/A -   "
39.74, 1657.91, 0.06632827, NaN, NaN, NaN, 0.04211683, "- N/A -   "
39.77, 1659.35, 0.06638103, NaN, NaN, NaN, 0.04211683, "- N/A -   "
39.8, 1660.9, 0.06643379, NaN, NaN, NaN, 0.04089605, "- N/A -   "
39.83, 1662.09, 0.066481, NaN, NaN, NaN, 0.0433376, "- N/A -   "
39.86, 1663.4, 0.06652819, NaN, NaN, NaN, 0.0433376, "- N/A -   "
39.89, 1664.83, 0.06658373, NaN, NaN, NaN, 0.04211683, "- N/A -   "
39.92, 1666.26, 0.06663649, NaN, NaN, NaN, 0.0396753, "- N/A -   "
39.95, 1667.69, 0.0666892, NaN, NaN, NaN, 0.0384545, "- N/A -   "
39.98, 1669.01, 0.0667392, NaN, NaN, NaN, 0.0384545, "- N/A -   "
40.01, 1670.44, 0.06679199, NaN, NaN, NaN, 0.0372337, "- N/A -   "
40.04, 1671.63, 0.06684475, NaN, NaN, NaN, 0.0372337, "- N/A -   "
40.07, 1673.18, 0.0668975, NaN, NaN, NaN, 0.0347922, "- N/A -   "
40.1, 1674.61, 0.06694749, NaN, NaN, NaN, 0.0347922, "- N/A -   "
40.13, 1675.8, 0.06699747, NaN, NaN, NaN, 0.0347922, "- N/A -   "
40.16, 1677.23, 0.06704467, NaN, NaN, NaN, 0.03601294, "- N/A -   "
40.19, 1678.31, 0.0670947, NaN, NaN, NaN, 0.0372337, "- N/A -   "
40.22, 1679.74, 0.06714464, NaN, NaN, NaN, 0.03601294, "- N/A -   "
40.25, 1681.05, 0.0671974, NaN, NaN, NaN, 0.03601294, "- N/A -   "
40.28, 1682.36, 0.0672474, NaN, NaN, NaN, 0.0347922, "- N/A -   "
40.31, 1683.79, 0.0672974, NaN, NaN, NaN, 0.0347922, "- N/A -   "
40.34, 1685.1, 0.06735011, NaN, NaN, NaN, 0.0335714, "- N/A -   "
40.37, 1686.3, 0.06739455, NaN, NaN, NaN, 0.03601294, "- N/A -   "
40.4, 1687.37, 0.06743897, NaN, NaN, NaN, 0.0396753, "- N/A -   "
40.43, 1688.56, 0.0674862, NaN, NaN, NaN, 0.0396753, "- N/A -   "
40.46, 1689.87, 0.06753616, NaN, NaN, NaN, 0.04089605, "- N/A -   "
40.49, 1691.07, 0.06758059, NaN, NaN, NaN, 0.04211683, "- N/A -   "
40.52, 1692.26, 0.06762779, NaN, NaN, NaN, 0.0445584, "- N/A -   "
40.55, 1693.69, 0.06767777, NaN, NaN, NaN, 0.0445584, "- N/A -   "
40.58, 1695.12, 0.06773053, NaN, NaN, NaN, 0.04211683, "- N/A -   "
40.61, 1696.67, 0.06778884, NaN, NaN, NaN, 0.0384545, "- N/A -   "
40.64, 1698.34, 0.0678444, NaN, NaN, NaN, 0.03601294, "- N/A -   "
40.67, 1699.77, 0.06789991, NaN, NaN, NaN, 0.0335714, "- N/A -   "
40.7, 1701.203, 0.06795545, NaN, NaN, NaN, 0.03112983, "- N/A -   "
40.73, 1702.51, 0.06800543, NaN, NaN, NaN, 0.03112983, "- N/A -   "
40.76, 1703.71, 0.06805263, NaN, NaN, NaN, 0.0323506, "- N/A -   "
40.79, 1704.9, 0.06809984, NaN, NaN, NaN, 0.0335714, "- N/A -   "
40.82, 1706.09, 0.06814704, NaN, NaN, NaN, 0.0347922, "- N/A -   "
40.85, 1707.52, 0.0681998, NaN, NaN, NaN, 0.0347922, "- N/A -   "
40.88, 1708.95, 0.0682553, NaN, NaN, NaN, 0.0323506, "- N/A -   "
40.91, 1710.624, 0.06831365, NaN, NaN, NaN, 0.0286883, "- N/A -   "
40.94, 1711.94, 0.06836363, NaN, NaN, NaN, 0.0274675, "- N/A -   "
40.97, 1713.009, 0.0684053, NaN, NaN, NaN, 0.03112983, "- N/A -   "
41, 1714.08, 0.0684525, NaN, NaN, NaN, 0.0323506, "- N/A -   "
41.03, 1715.27, 0.06849414, NaN, NaN, NaN, 0.03601294, "- N/A -   "
41.06, 1716.35, 0.06853579, NaN, NaN, NaN, 0.0396753, "- N/A -   "
41.09, 1717.42, 0.06858022, NaN, NaN, NaN, 0.04211683, "- N/A -   "
41.12, 1718.49, 0.06862187, NaN, NaN, NaN, 0.04577916, "- N/A -   "
41.15, 1719.69, 0.06866907, NaN, NaN, NaN, 0.04699994, "- N/A -   "
41.18, 1720.88, 0.0687135, NaN, NaN, NaN, 0.0494415, "- N/A -   "
41.21, 1722.07, 0.06876348, NaN, NaN, NaN, 0.0494415, "- N/A -   "
41.24, 1723.74, 0.068819, NaN, NaN, NaN, 0.04699994, "- N/A -   "
41.27, 1725.292, 0.0688773, NaN, NaN, NaN, 0.0433376, "- N/A -   "
41.3, 1726.723, 0.06893286, NaN, NaN, NaN, 0.04089605, "- N/A -   "
41.33, 1728.154, 0.0689884, NaN, NaN, NaN, 0.0384545, "- N/A -   "
41.36, 1729.585, 0.0690439, NaN, NaN, NaN, 0.03601294, "- N/A -   "
41.39, 1731.14, 0.06909947, NaN, NaN, NaN, 0.0347922, "- N/A -   "
41.42, 1732.45, 0.06914667, NaN, NaN, NaN, 0.0347922, "- N/A -   "
41.45, 1734, 0.069205, NaN, NaN, NaN, 0.03112983, "- N/A -   "
41.48, 1735.55, 0.06926052, NaN, NaN, NaN, 0.0286883, "- N/A -   "
41.51, 1736.86, 0.06931328, NaN, NaN, NaN, 0.0274675, "- N/A -   "
41.54, 1738.05, 0.06936326, NaN, NaN, NaN, 0.0286883, "- N/A -   "
41.57, 1739.13, 0.06940769, NaN, NaN, NaN, 0.0299091, "- N/A -   "
41.6, 1740.32, 0.06945489, NaN, NaN, NaN, 0.0323506, "- N/A -   "
41.63, 1741.51, 0.06949932, NaN, NaN, NaN, 0.0347922, "- N/A -   "
41.66, 1742.58, 0.06954375, NaN, NaN, NaN, 0.0372337, "- N/A -   "
41.69, 1743.78, 0.06958818, NaN, NaN, NaN, 0.0396753, "- N/A -   "
41.72, 1744.73, 0.0696298, NaN, NaN, NaN, 0.04211683, "- N/A -   "
41.75, 1745.92, 0.06967425, NaN, NaN, NaN, 0.0445584, "- N/A -   "
41.78, 1747.23, 0.06972146, NaN, NaN, NaN, 0.04577916, "- N/A -   "
41.81, 1748.55, 0.06977145, NaN, NaN, NaN, 0.04577916, "- N/A -   "
41.84, 1749.86, 0.069827, NaN, NaN, NaN, 0.0445584, "- N/A -   "
41.87, 1751.17, 0.06987418, NaN, NaN, NaN, 0.0445584, "- N/A -   "
41.9, 1752.6, 0.06992694, NaN, NaN, NaN, 0.0445584, "- N/A -   "
41.93, 1754.03, 0.06998248, NaN, NaN, NaN, 0.04211683, "- N/A -   "
41.96, 1755.46, 0.0700352, NaN, NaN, NaN, 0.0396753, "- N/A -   "
41.99, 1757.01, 0.07009355, NaN, NaN, NaN, 0.03601294, "- N/A -   "
42.02, 1758.56, 0.07015186, NaN, NaN, NaN, 0.0335714, "- N/A -   "
42.05, 1760.11, 0.07021017, NaN, NaN, NaN, 0.0299091, "- N/A -   "
42.08, 1761.54, 0.0702629, NaN, NaN, NaN, 0.0274675, "- N/A -   "
42.11, 1762.86, 0.07031291, NaN, NaN, NaN, 0.0286883, "- N/A -   "
42.14, 1764.049, 0.07036012, NaN, NaN, NaN, 0.0286883, "- N/A -   "
42.17, 1765.48, 0.0704129, NaN, NaN, NaN, 0.0274675, "- N/A -   "
42.2, 1766.79, 0.07046285, NaN, NaN, NaN, 0.0274675, "- N/A -   "
42.23, 1768.1, 0.07051006, NaN, NaN, NaN, 0.0286883, "- N/A -   "
42.26, 1769.18, 0.07055449, NaN, NaN, NaN, 0.03112983, "- N/A -   "
42.29, 1770.25, 0.0705989, NaN, NaN, NaN, 0.0335714, "- N/A -   "
42.32, 1771.44, 0.07064612, NaN, NaN, NaN, 0.03601294, "- N/A -   "
42.35, 1772.635, 0.07069332, NaN, NaN, NaN, 0.03601294, "- N/A -   "
42.38, 1773.83, 0.07074053, NaN, NaN, NaN, 0.0384545, "- N/A -   "
42.41, 1775.02, 0.070785, NaN, NaN, NaN, 0.0396753, "- N/A -   "
42.44, 1775.97, 0.0708266, NaN, NaN, NaN, 0.0433376, "- N/A -   "
42.47, 1777.05, 0.07086548, NaN, NaN, NaN, 0.0482207, "- N/A -   "
42.5, 1778.24, 0.07091269, NaN, NaN, NaN, 0.05066227, "- N/A -   "
42.53, 1779.43, 0.0709599, NaN, NaN, NaN, 0.05066227, "- N/A -   "
42.56, 1780.74, 0.0710099, NaN, NaN, NaN, 0.05066227, "- N/A -   "
42.59, 1782.29, 0.07106263, NaN, NaN, NaN, 0.0494415, "- N/A -   "
42.62, 1783.84, 0.07112372, NaN, NaN, NaN, 0.04577916, "- N/A -   "
42.65, 1785.63, 0.0711876, NaN, NaN, NaN, 0.0384545, "- N/A -   "
42.68, 1787.42, 0.07125145, NaN, NaN, NaN, 0.0335714, "- N/A -   "
42.71, 1788.85, 0.07130698, NaN, NaN, NaN, 0.0299091, "- N/A -   "
42.74, 1790.28, 0.07135974, NaN, NaN, NaN, 0.0286883, "- N/A -   "
42.77, 1791.48, 0.07140695, NaN, NaN, NaN, 0.0299091, "- N/A -   "
42.8, 1792.55, 0.07145137, NaN, NaN, NaN, 0.0335714, "- N/A -   "
42.83, 1793.74, 0.07149858, NaN, NaN, NaN, 0.0335714, "- N/A -   "
42.86, 1795.05, 0.07154579, NaN, NaN, NaN, 0.0347922, "- N/A -   "
42.89, 1796.49, 0.0715985, NaN, NaN, NaN, 0.0335714, "- N/A -   "
42.92, 1797.8, 0.07165408, NaN, NaN, NaN, 0.03112983, "- N/A -   "
42.95, 1799.35, 0.07170684, NaN, NaN, NaN, 0.0299091, "- N/A -   "
42.98, 1800.42, 0.07175127, NaN, NaN, NaN, 0.0323506, "- N/A -   "
43.01, 1801.61, 0.07179847, NaN, NaN, NaN, 0.0335714, "- N/A -   "
43.04, 1802.81, 0.07184567, NaN, NaN, NaN, 0.03601294, "- N/A -   "
43.07, 1804, 0.07189011, NaN, NaN, NaN, 0.0384545, "- N/A -   "
43.1, 1805.19, 0.07193731, NaN, NaN, NaN, 0.0384545, "- N/A -   "
43.13, 1806.38, 0.0719817, NaN, NaN, NaN, 0.04089605, "- N/A -   "
43.16, 1807.58, 0.07203172, NaN, NaN, NaN, 0.04089605, "- N/A -   "
43.188, 1808.89, 0.07207892, NaN, NaN, NaN, 0.04089605, "- N/A -   "