File: 2_Tensile_Data/Hamel_ForceTest_Bolt7_Test9.csv
Time, Load (lb), Position (in), AxialStrain (in), TransverseStrain (in), Auxiliary (), Control Out (V), Stress (psi)
0.0, 12.5024, 0.0, NaN, NaN, NaN, -0.007935055, "- N/A -   "
0.01, 12.5024, -2.776752E-6, NaN, NaN, NaN, 6.103888E-4, "- N/A -   "
0.02, 12.5024, 0.0, NaN, NaN, NaN, 0.006714277, "- N/A -   "
0.03, 12.5024, 2.776752E-6, NaN, NaN, NaN, 0.0213636, "- N/A -   "
0.04, 12.5024, 5.553504E-6, NaN, NaN, NaN, 0.0384545, "- N/A -   "
0.05, 12.6204, 1.38838e-05, NaN, NaN, NaN, 0.0543246, "- N/A -   "
0.06, 12.8563, 2.77675e-05, NaN, NaN, NaN, 0.06775316, "- N/A -   "
0.07, 12.9742, 4.720478E-5, NaN, NaN, NaN, 0.07874016, "- N/A -   "
0.08, 13.2101, 6.94188E-5, NaN, NaN, NaN, 0.08850638, "- N/A -   "
0.09, 13.446, 9.718631E-5, NaN, NaN, NaN, 0.095831, "- N/A -   "
0.1, 14.0357, 0.000124954, NaN, NaN, NaN, 0.103156, "- N/A -   "
0.12, 15.2152, 0.000188819, NaN, NaN, NaN, 0.09094793, "- N/A -   "
0.14, 16.27675, 2.415774E-4, NaN, NaN, NaN, 0.08118171, "- N/A -   "
0.16, 17.3383, 0.000288782, NaN, NaN, NaN, 0.0750778, "- N/A -   "
0.18, 18.046, 0.000330433, NaN, NaN, NaN, 0.07141549, "- N/A -   "
0.2, 18.8716, 0.000372085, NaN, NaN, NaN, 0.0689739, "- N/A -   "
0.22, 19.57928, 4.081825E-4, NaN, NaN, NaN, 0.06653238, "- N/A -   "
0.24, 20.4049, 0.000447057, NaN, NaN, NaN, 0.0640908, "- N/A -   "
0.26, 21.1126, 0.000485932, NaN, NaN, NaN, 0.06287005, "- N/A -   "
0.28, 21.8203, 0.000522029, NaN, NaN, NaN, 0.06164927, "- N/A -   "
0.3, 22.6459, 0.000560904, NaN, NaN, NaN, 0.0579869, "- N/A -   "
0.32, 23.5895, 6.053319E-4, NaN, NaN, NaN, 0.0531038, "- N/A -   "
0.34, 24.5331, 6.497599E-4, NaN, NaN, NaN, 0.0494415, "- N/A -   "
0.36, 25.2408, 0.000688634, NaN, NaN, NaN, 0.04699994, "- N/A -   "
0.38, 25.8305, 0.000724732, NaN, NaN, NaN, 0.0445584, "- N/A -   "
0.4, 26.6561, 0.000763607, NaN, NaN, NaN, 0.0433376, "- N/A -   "
0.42, 27.3638, 7.997045E-4, NaN, NaN, NaN, 0.04211683, "- N/A -   "
0.44, 28.0715, 8.358023E-4, NaN, NaN, NaN, 0.04089605, "- N/A -   "
0.46, 28.7792, 8.691233E-4, NaN, NaN, NaN, 0.0396753, "- N/A -   "
0.48, 29.4869, 9.052211E-4, NaN, NaN, NaN, 0.0384545, "- N/A -   "
0.5, 30.1946, 9.440956E-4, NaN, NaN, NaN, 0.03601294, "- N/A -   "
0.52, 30.9022, 9.829701E-4, NaN, NaN, NaN, 0.0335714, "- N/A -   "
0.54, 31.6099, 0.001019068, NaN, NaN, NaN, 0.0323506, "- N/A -   "
0.56, 32.1997, 0.00105239, NaN, NaN, NaN, 0.0323506, "- N/A -   "
0.58, 33.02529, 0.00108849, NaN, NaN, NaN, 0.03112983, "- N/A -   "
0.6, 33.61503, 0.00112458, NaN, NaN, NaN, 0.0299091, "- N/A -   "
0.62, 34.4407, 0.00115791, NaN, NaN, NaN, 0.0299091, "- N/A -   "
0.64, 35.0304, 0.00119123, NaN, NaN, NaN, 0.0299091, "- N/A -   "
0.66, 35.6201, 0.00122177, NaN, NaN, NaN, 0.03112983, "- N/A -   "
0.68, 36.2099, 0.00125232, NaN, NaN, NaN, 0.0323506, "- N/A -   "
0.7, 36.79961, 0.00128286, NaN, NaN, NaN, 0.0335714, "- N/A -   "
0.72, 37.2714, 0.00131063, NaN, NaN, NaN, 0.03601294, "- N/A -   "
0.74, 37.8611, 0.00133839, NaN, NaN, NaN, 0.0384545, "- N/A -   "
0.76, 38.4509, 0.00136616, NaN, NaN, NaN, 0.04211683, "- N/A -   "
0.78, 39.04061, 0.00139393, NaN, NaN, NaN, 0.0433376, "- N/A -   "
0.8, 39.6304, 0.00142725, NaN, NaN, NaN, 0.0445584, "- N/A -   "
0.82, 40.22009, 0.00146057, NaN, NaN, NaN, 0.0433376, "- N/A -   "
0.84, 40.9278, 0.00149667, NaN, NaN, NaN, 0.0433376, "- N/A -   "
0.86, 41.51751, 0.00152721, NaN, NaN, NaN, 0.0433376, "- N/A -   "
0.88, 42.2252, 0.00156331, NaN, NaN, NaN, 0.04211683, "- N/A -   "
0.9, 42.93288, 0.00159386, NaN, NaN, NaN, 0.0433376, "- N/A -   "
0.92, 43.6406, 0.00162995, NaN, NaN, NaN, 0.04211683, "- N/A -   "
0.94, 44.34825, 0.00166605, NaN, NaN, NaN, 0.04211683, "- N/A -   "
0.96, 45.05593, 0.00169937, NaN, NaN, NaN, 0.04089605, "- N/A -   "
0.98, 45.76362, 0.00173269, NaN, NaN, NaN, 0.04089605, "- N/A -   "
1, 46.4713, 0.00176879, NaN, NaN, NaN, 0.0396753, "- N/A -   "
1.02, 47.179, 0.001802112, NaN, NaN, NaN, 0.0396753, "- N/A -   "
1.04, 47.8867, 0.001835433, NaN, NaN, NaN, 0.0396753, "- N/A -   "
1.06, 48.47641, 0.00187153, NaN, NaN, NaN, 0.0384545, "- N/A -   "
1.08, 49.30204, 0.00191041, NaN, NaN, NaN, 0.03601294, "- N/A -   "
1.1, 50.2456, 0.00195206, NaN, NaN, NaN, 0.0335714, "- N/A -   "
1.12, 51.0713, 0.001990931, NaN, NaN, NaN, 0.0299091, "- N/A -   "
1.14, 51.89689, 0.00202981, NaN, NaN, NaN, 0.0286883, "- N/A -   "
1.16, 52.48662, 0.00206313, NaN, NaN, NaN, 0.0274675, "- N/A -   "
1.18, 53.3123, 0.00209645, NaN, NaN, NaN, 0.0274675, "- N/A -   "
1.2, 53.902, 0.00212977, NaN, NaN, NaN, 0.0274675, "- N/A -   "
1.22, 54.4917, 0.00216031, NaN, NaN, NaN, 0.0286883, "- N/A -   "
1.24, 55.1994, 0.00219086, NaN, NaN, NaN, 0.0299091, "- N/A -   "
1.26, 55.7892, 0.0022214, NaN, NaN, NaN, 0.03112983, "- N/A -   "
1.28, 56.4968, 0.00225195, NaN, NaN, NaN, 0.0323506, "- N/A -   "
1.3, 57.08658, 0.00228527, NaN, NaN, NaN, 0.0335714, "- N/A -   "
1.32, 57.79426, 0.002315811, NaN, NaN, NaN, 0.0347922, "- N/A -   "
1.34, 58.5019, 0.00234636, NaN, NaN, NaN, 0.0347922, "- N/A -   "
1.36, 59.0917, 0.0023769, NaN, NaN, NaN, 0.03601294, "- N/A -   "
1.38, 59.79937, 0.00241022, NaN, NaN, NaN, 0.0372337, "- N/A -   "
1.4, 60.625, 0.00244632, NaN, NaN, NaN, 0.03601294, "- N/A -   "
1.42, 61.3327, 0.00247964, NaN, NaN, NaN, 0.0347922, "- N/A -   "
1.44, 62.0404, 0.00251018, NaN, NaN, NaN, 0.03601294, "- N/A -   "
1.46, 62.6301, 0.00254073, NaN, NaN, NaN, 0.0372337, "- N/A -   "
1.48, 63.2198, 0.00257127, NaN, NaN, NaN, 0.0384545, "- N/A -   "
1.5, 63.92753, 0.00260182, NaN, NaN, NaN, 0.0396753, "- N/A -   "
1.52, 64.6352, 0.00263514, NaN, NaN, NaN, 0.04089605, "- N/A -   "
1.54, 65.22495, 0.0026629, NaN, NaN, NaN, 0.04211683, "- N/A -   "
1.56, 65.81469, 0.00269345, NaN, NaN, NaN, 0.0445584, "- N/A -   "
1.58, 66.52237, 0.00272399, NaN, NaN, NaN, 0.04577916, "- N/A -   "
1.6, 67.23006, 0.00275731, NaN, NaN, NaN, 0.04577916, "- N/A -   "
1.62, 67.81979, 0.00278786, NaN, NaN, NaN, 0.04577916, "- N/A -   "
1.64, 68.6454, 0.00282118, NaN, NaN, NaN, 0.04577916, "- N/A -   "
1.66, 69.47106, 0.00286005, NaN, NaN, NaN, 0.0433376, "- N/A -   "
1.68, 70.41464, 0.002898929, NaN, NaN, NaN, 0.04089605, "- N/A -   "
1.7, 71.24027, 0.00294058, NaN, NaN, NaN, 0.0372337, "- N/A -   "
1.72, 72.06591, 0.00297668, NaN, NaN, NaN, 0.03601294, "- N/A -   "
1.74, 72.77359, 0.003012776, NaN, NaN, NaN, 0.0347922, "- N/A -   "
1.76, 73.59922, 0.00304887, NaN, NaN, NaN, 0.0335714, "- N/A -   "
1.78, 74.42485, 0.003087748, NaN, NaN, NaN, 0.0323506, "- N/A -   "
1.8, 75.25049, 0.003121069, NaN, NaN, NaN, 0.03112983, "- N/A -   "
1.82, 75.95817, 0.003157167, NaN, NaN, NaN, 0.03112983, "- N/A -   "
1.84, 76.5479, 0.00318493, NaN, NaN, NaN, 0.0323506, "- N/A -   "
1.86, 77.25559, 0.003215479, NaN, NaN, NaN, 0.0335714, "- N/A -   "
1.88, 77.84533, 0.003246023, NaN, NaN, NaN, 0.0347922, "- N/A -   "
1.9, 78.55301, 0.003279344, NaN, NaN, NaN, 0.03601294, "- N/A -   "
1.92, 79.2607, 0.003309888, NaN, NaN, NaN, 0.03601294, "- N/A -   "
1.94, 79.96838, 0.00334321, NaN, NaN, NaN, 0.0372337, "- N/A -   "
1.96, 80.794, 0.003379307, NaN, NaN, NaN, 0.03601294, "- N/A -   "
1.98, 81.5017, 0.003412628, NaN, NaN, NaN, 0.03601294, "- N/A -   "
2, 82.20939, 0.00344595, NaN, NaN, NaN, 0.0347922, "- N/A -   "
2.02, 83.03502, 0.00347927, NaN, NaN, NaN, 0.0347922, "- N/A -   "
2.04, 83.74271, 0.00351259, NaN, NaN, NaN, 0.0347922, "- N/A -   "
2.06, 84.56834, 0.00354591, NaN, NaN, NaN, 0.0347922, "- N/A -   "
2.08, 85.15807, 0.00357646, NaN, NaN, NaN, 0.0372337, "- N/A -   "
2.1, 85.74781, 0.003607, NaN, NaN, NaN, 0.0384545, "- N/A -   "
2.12, 86.4555, 0.00363477, NaN, NaN, NaN, 0.0396753, "- N/A -   "
2.14, 87.28113, 0.00366809, NaN, NaN, NaN, 0.0396753, "- N/A -   "
2.16, 87.8709, 0.00369863, NaN, NaN, NaN, 0.04089605, "- N/A -   "
2.18, 88.4606, 0.00372918, NaN, NaN, NaN, 0.04211683, "- N/A -   "
2.2, 89.40418, 0.00375972, NaN, NaN, NaN, 0.0433376, "- N/A -   "
2.22, 90.11186, 0.00379582, NaN, NaN, NaN, 0.04211683, "- N/A -   "
2.24, 90.81956, 0.00383469, NaN, NaN, NaN, 0.04089605, "- N/A -   "
2.26, 91.76313, 0.00386802, NaN, NaN, NaN, 0.0396753, "- N/A -   "
2.28, 92.58876, 0.00390411, NaN, NaN, NaN, 0.0396753, "- N/A -   "
2.3, 93.2965, 0.00393743, NaN, NaN, NaN, 0.0384545, "- N/A -   "
2.32, 94.1221, 0.00397353, NaN, NaN, NaN, 0.0384545, "- N/A -   "
2.34, 94.9477, 0.00401241, NaN, NaN, NaN, 0.03601294, "- N/A -   "
2.36, 95.7733, 0.0040485, NaN, NaN, NaN, 0.0335714, "- N/A -   "
2.38, 96.599, 0.00408183, NaN, NaN, NaN, 0.0335714, "- N/A -   "
2.4, 97.30666, 0.00411515, NaN, NaN, NaN, 0.0347922, "- N/A -   "
2.42, 98.01435, 0.00414569, NaN, NaN, NaN, 0.03601294, "- N/A -   "
2.44, 98.72203, 0.004176235, NaN, NaN, NaN, 0.03601294, "- N/A -   "
2.46, 99.42972, 0.00420956, NaN, NaN, NaN, 0.03601294, "- N/A -   "
2.48, 100.137, 0.00424288, NaN, NaN, NaN, 0.0372337, "- N/A -   "
2.5, 100.963, 0.004276198, NaN, NaN, NaN, 0.03601294, "- N/A -   "
2.52, 101.789, 0.00431507, NaN, NaN, NaN, 0.0347922, "- N/A -   "
2.54, 102.496, 0.004353947, NaN, NaN, NaN, 0.0323506, "- N/A -   "
2.56, 103.44, 0.00439004, NaN, NaN, NaN, 0.0299091, "- N/A -   "
2.58, 104.148, 0.004423366, NaN, NaN, NaN, 0.0299091, "- N/A -   "
2.6, 104.973, 0.004456687, NaN, NaN, NaN, 0.0299091, "- N/A -   "
2.62, 105.681, 0.00449001, NaN, NaN, NaN, 0.03112983, "- N/A -   "
2.64, 106.389, 0.004520552, NaN, NaN, NaN, 0.0323506, "- N/A -   "
2.66, 107.0963, 0.004551096, NaN, NaN, NaN, 0.0323506, "- N/A -   "
2.68, 107.804, 0.004584417, NaN, NaN, NaN, 0.0335714, "- N/A -   "
2.7, 108.512, 0.004614962, NaN, NaN, NaN, 0.0335714, "- N/A -   "
2.72, 109.219, 0.00464828, NaN, NaN, NaN, 0.0335714, "- N/A -   "
2.74, 110.045, 0.00468438, NaN, NaN, NaN, 0.0335714, "- N/A -   "
2.76, 110.871, 0.004717701, NaN, NaN, NaN, 0.0323506, "- N/A -   "
2.78, 111.696, 0.004751022, NaN, NaN, NaN, 0.0323506, "- N/A -   "
2.8, 112.404, 0.00478712, NaN, NaN, NaN, 0.0323506, "- N/A -   "
2.82, 113.112, 0.00482044, NaN, NaN, NaN, 0.0323506, "- N/A -   "
2.84, 113.819, 0.00484821, NaN, NaN, NaN, 0.0335714, "- N/A -   "
2.86, 114.527, 0.004875976, NaN, NaN, NaN, 0.0372337, "- N/A -   "
2.88, 114.999, 0.00490097, NaN, NaN, NaN, 0.0396753, "- N/A -   "
2.9, 115.706, 0.004934288, NaN, NaN, NaN, 0.0396753, "- N/A -   "
2.92, 116.414, 0.004964832, NaN, NaN, NaN, 0.04089605, "- N/A -   "
2.94, 117.122, 0.004995377, NaN, NaN, NaN, 0.04211683, "- N/A -   "
2.96, 117.947, 0.005028698, NaN, NaN, NaN, 0.0433376, "- N/A -   "
2.98, 118.537, 0.00505924, NaN, NaN, NaN, 0.0445584, "- N/A -   "
3, 119.363, 0.00508979, NaN, NaN, NaN, 0.0445584, "- N/A -   "
3.02, 119.953, 0.005123107, NaN, NaN, NaN, 0.04577916, "- N/A -   "
3.04, 120.778, 0.00515365, NaN, NaN, NaN, 0.04577916, "- N/A -   "
3.06, 121.722, 0.00518975, NaN, NaN, NaN, 0.0445584, "- N/A -   "
3.08, 122.547, 0.005228624, NaN, NaN, NaN, 0.04211683, "- N/A -   "
3.1, 123.491, 0.0052675, NaN, NaN, NaN, 0.04089605, "- N/A -   "
3.12, 124.317, 0.005303596, NaN, NaN, NaN, 0.0384545, "- N/A -   "
3.14, 125.142, 0.00534247, NaN, NaN, NaN, 0.0372337, "- N/A -   "
3.16, 126.086, 0.00537857, NaN, NaN, NaN, 0.0347922, "- N/A -   "
3.18, 126.911, 0.00541189, NaN, NaN, NaN, 0.0347922, "- N/A -   "
3.2, 127.619, 0.00544521, NaN, NaN, NaN, 0.0347922, "- N/A -   "
3.22, 128.4448, 0.00548131, NaN, NaN, NaN, 0.0347922, "- N/A -   "
3.24, 129.152, 0.00551185, NaN, NaN, NaN, 0.0347922, "- N/A -   "
3.26, 129.742, 0.00553962, NaN, NaN, NaN, 0.0372337, "- N/A -   "
3.28, 130.332, 0.005572941, NaN, NaN, NaN, 0.0384545, "- N/A -   "
3.3, 131.1576, 0.00560626, NaN, NaN, NaN, 0.0384545, "- N/A -   "
3.32, 132.101, 0.00563958, NaN, NaN, NaN, 0.0372337, "- N/A -   "
3.34, 132.9268, 0.00567846, NaN, NaN, NaN, 0.0347922, "- N/A -   "
3.36, 133.752, 0.00571456, NaN, NaN, NaN, 0.0335714, "- N/A -   "
3.38, 134.696, 0.00575343, NaN, NaN, NaN, 0.0323506, "- N/A -   "
3.4, 135.522, 0.0057923, NaN, NaN, NaN, 0.0299091, "- N/A -   "
3.42, 136.229, 0.00582563, NaN, NaN, NaN, 0.0286883, "- N/A -   "
3.44, 137.055, 0.00585895, NaN, NaN, NaN, 0.0299091, "- N/A -   "
3.46, 137.6447, 0.005886714, NaN, NaN, NaN, 0.03112983, "- N/A -   "
3.48, 138.352, 0.00591726, NaN, NaN, NaN, 0.0335714, "- N/A -   "
3.5, 138.942, 0.0059478, NaN, NaN, NaN, 0.0347922, "- N/A -   "
3.52, 139.65, 0.005972794, NaN, NaN, NaN, 0.0372337, "- N/A -   "
3.54, 140.1216, 0.00600056, NaN, NaN, NaN, 0.04089605, "- N/A -   "
3.56, 140.711, 0.006025552, NaN, NaN, NaN, 0.0445584, "- N/A -   "
3.58, 141.419, 0.006056096, NaN, NaN, NaN, 0.04577916, "- N/A -   "
3.6, 142.1267, 0.00608664, NaN, NaN, NaN, 0.04577916, "- N/A -   "
3.62, 142.8344, 0.006119961, NaN, NaN, NaN, 0.04699994, "- N/A -   "
3.64, 143.66, 0.00615051, NaN, NaN, NaN, 0.0482207, "- N/A -   "
3.66, 144.368, 0.006183827, NaN, NaN, NaN, 0.0482207, "- N/A -   "
3.68, 145.311, 0.006219924, NaN, NaN, NaN, 0.04699994, "- N/A -   "
3.7, 146.137, 0.0062588, NaN, NaN, NaN, 0.0445584, "- N/A -   "
3.72, 147.0805, 0.006297673, NaN, NaN, NaN, 0.04211683, "- N/A -   "
3.74, 148.142, 0.006336548, NaN, NaN, NaN, 0.0396753, "- N/A -   "
3.76, 148.968, 0.00637542, NaN, NaN, NaN, 0.0384545, "- N/A -   "
3.78, 149.793, 0.00641152, NaN, NaN, NaN, 0.03601294, "- N/A -   "
3.8, 150.619, 0.006444841, NaN, NaN, NaN, 0.03601294, "- N/A -   "
3.82, 151.327, 0.006478162, NaN, NaN, NaN, 0.03601294, "- N/A -   "
3.84, 152.152, 0.00651148, NaN, NaN, NaN, 0.03601294, "- N/A -   "
3.86, 152.978, 0.006547581, NaN, NaN, NaN, 0.03601294, "- N/A -   "
3.88, 153.686, 0.006583679, NaN, NaN, NaN, 0.0335714, "- N/A -   "
3.9, 154.629, 0.00662255, NaN, NaN, NaN, 0.03112983, "- N/A -   "
3.92, 155.573, 0.006661428, NaN, NaN, NaN, 0.0286883, "- N/A -   "
3.94, 156.398, 0.0067003, NaN, NaN, NaN, 0.0274675, "- N/A -   "
3.96, 157.224, 0.00673362, NaN, NaN, NaN, 0.0262467, "- N/A -   "
3.98, 158.0496, 0.006766944, NaN, NaN, NaN, 0.0262467, "- N/A -   "
4, 158.7573, 0.006797489, NaN, NaN, NaN, 0.0274675, "- N/A -   "
4.02, 159.347, 0.006828033, NaN, NaN, NaN, 0.0286883, "- N/A -   "
4.04, 160.055, 0.0068558, NaN, NaN, NaN, 0.03112983, "- N/A -   "
4.06, 160.88, 0.00688912, NaN, NaN, NaN, 0.03112983, "- N/A -   "
4.08, 161.4701, 0.00692244, NaN, NaN, NaN, 0.03112983, "- N/A -   "
4.1, 162.296, 0.00695576, NaN, NaN, NaN, 0.03112983, "- N/A -   "
4.12, 162.885, 0.006986308, NaN, NaN, NaN, 0.0335714, "- N/A -   "
4.14, 163.593, 0.0070113, NaN, NaN, NaN, 0.03601294, "- N/A -   "
4.16, 164.301, 0.007041843, NaN, NaN, NaN, 0.0372337, "- N/A -   "
4.18, 164.891, 0.00706961, NaN, NaN, NaN, 0.0396753, "- N/A -   "
4.2, 165.4803, 0.00709738, NaN, NaN, NaN, 0.04211683, "- N/A -   "
4.22, 166.188, 0.00712792, NaN, NaN, NaN, 0.0433376, "- N/A -   "
4.24, 167.014, 0.00716124, NaN, NaN, NaN, 0.0445584, "- N/A -   "
4.26, 167.7213, 0.00719179, NaN, NaN, NaN, 0.0445584, "- N/A -   "
4.28, 168.429, 0.00722233, NaN, NaN, NaN, 0.04577916, "- N/A -   "
4.3, 169.137, 0.00725565, NaN, NaN, NaN, 0.04577916, "- N/A -   "
4.32, 169.962, 0.007288974, NaN, NaN, NaN, 0.04577916, "- N/A -   "
4.34, 170.67, 0.00732229, NaN, NaN, NaN, 0.04699994, "- N/A -   "
4.36, 171.496, 0.00735562, NaN, NaN, NaN, 0.04577916, "- N/A -   "
4.38, 172.321, 0.007388937, NaN, NaN, NaN, 0.04577916, "- N/A -   "
4.4, 173.265, 0.00742226, NaN, NaN, NaN, 0.04577916, "- N/A -   "
4.42, 173.973, 0.00745836, NaN, NaN, NaN, 0.04577916, "- N/A -   "
4.44, 174.798, 0.00749445, NaN, NaN, NaN, 0.0433376, "- N/A -   "
4.46, 175.624, 0.00753055, NaN, NaN, NaN, 0.04211683, "- N/A -   "
4.48, 176.567, 0.00756943, NaN, NaN, NaN, 0.0396753, "- N/A -   "
4.5, 177.511, 0.0076083, NaN, NaN, NaN, 0.0372337, "- N/A -   "
4.52, 178.572, 0.007647175, NaN, NaN, NaN, 0.0347922, "- N/A -   "
4.54, 179.3981, 0.00768327, NaN, NaN, NaN, 0.0335714, "- N/A -   "
4.56, 180.106, 0.007722147, NaN, NaN, NaN, 0.0323506, "- N/A -   "
4.58, 181.049, 0.007755468, NaN, NaN, NaN, 0.03112983, "- N/A -   "
4.6, 181.757, 0.00779157, NaN, NaN, NaN, 0.03112983, "- N/A -   "
4.62, 182.583, 0.007824887, NaN, NaN, NaN, 0.0299091, "- N/A -   "
4.64, 183.29, 0.007858207, NaN, NaN, NaN, 0.03112983, "- N/A -   "
4.66, 183.998, 0.007885976, NaN, NaN, NaN, 0.0323506, "- N/A -   "
4.68, 184.824, 0.007919297, NaN, NaN, NaN, 0.0323506, "- N/A -   "
4.7, 185.531, 0.007949841, NaN, NaN, NaN, 0.0335714, "- N/A -   "
4.72, 186.239, 0.007980385, NaN, NaN, NaN, 0.0347922, "- N/A -   "
4.74, 186.947, 0.008013706, NaN, NaN, NaN, 0.03601294, "- N/A -   "
4.76, 187.772, 0.00804425, NaN, NaN, NaN, 0.03601294, "- N/A -   "
4.78, 188.48, 0.008077571, NaN, NaN, NaN, 0.0372337, "- N/A -   "
4.8, 189.3057, 0.008110892, NaN, NaN, NaN, 0.0372337, "- N/A -   "
4.82, 190.013, 0.008141437, NaN, NaN, NaN, 0.0372337, "- N/A -   "
4.84, 190.721, 0.008171981, NaN, NaN, NaN, 0.0384545, "- N/A -   "
4.86, 191.429, 0.008205302, NaN, NaN, NaN, 0.0396753, "- N/A -   "
4.88, 192.254, 0.008238623, NaN, NaN, NaN, 0.0384545, "- N/A -   "
4.9, 192.962, 0.00826639, NaN, NaN, NaN, 0.04089605, "- N/A -   "
4.92, 193.5518, 0.008294158, NaN, NaN, NaN, 0.0433376, "- N/A -   "
4.94, 194.259, 0.008324702, NaN, NaN, NaN, 0.0445584, "- N/A -   "
4.96, 195.085, 0.008358023, NaN, NaN, NaN, 0.0445584, "- N/A -   "
4.98, 195.7928, 0.008394121, NaN, NaN, NaN, 0.0445584, "- N/A -   "
5, 196.618, 0.008424665, NaN, NaN, NaN, 0.0445584, "- N/A -   "
5.02, 197.326, 0.008455209, NaN, NaN, NaN, 0.04577916, "- N/A -   "
5.04, 198.27, 0.008494084, NaN, NaN, NaN, 0.0445584, "- N/A -   "
5.06, 199.095, 0.008530182, NaN, NaN, NaN, 0.04211683, "- N/A -   "
5.08, 200.157, 0.008569056, NaN, NaN, NaN, 0.0396753, "- N/A -   "
5.1, 201.1, 0.008610708, NaN, NaN, NaN, 0.03601294, "- N/A -   "
5.12, 201.926, 0.008649582, NaN, NaN, NaN, 0.0347922, "- N/A -   "
5.14, 202.7517, 0.008688456, NaN, NaN, NaN, 0.0323506, "- N/A -   "
5.16, 203.577, 0.008721777, NaN, NaN, NaN, 0.03112983, "- N/A -   "
5.18, 204.403, 0.008755099, NaN, NaN, NaN, 0.03112983, "- N/A -   "
5.2, 205.347, 0.00878842, NaN, NaN, NaN, 0.03112983, "- N/A -   "
5.22, 205.818, 0.008821741, NaN, NaN, NaN, 0.0323506, "- N/A -   "
5.24, 206.644, 0.008849508, NaN, NaN, NaN, 0.0335714, "- N/A -   "
5.26, 207.2337, 0.00888283, NaN, NaN, NaN, 0.0335714, "- N/A -   "
5.28, 208.059, 0.008916151, NaN, NaN, NaN, 0.0335714, "- N/A -   "
5.3, 208.885, 0.008946694, NaN, NaN, NaN, 0.0347922, "- N/A -   "
5.32, 209.711, 0.00898279, NaN, NaN, NaN, 0.0347922, "- N/A -   "
5.34, 210.418, 0.009016113, NaN, NaN, NaN, 0.0347922, "- N/A -   "
5.36, 211.126, 0.009049434, NaN, NaN, NaN, 0.0335714, "- N/A -   "
5.38, 211.9516, 0.009082756, NaN, NaN, NaN, 0.0335714, "- N/A -   "
5.4, 213.013, 0.009118853, NaN, NaN, NaN, 0.0323506, "- N/A -   "
5.42, 213.721, 0.009154951, NaN, NaN, NaN, 0.0323506, "- N/A -   "
5.44, 214.546, 0.009185496, NaN, NaN, NaN, 0.0323506, "- N/A -   "
5.46, 215.254, 0.009218817, NaN, NaN, NaN, 0.0335714, "- N/A -   "
5.48, 215.844, 0.009246584, NaN, NaN, NaN, 0.0347922, "- N/A -   "
5.5, 216.552, 0.009277128, NaN, NaN, NaN, 0.0372337, "- N/A -   "
5.52, 217.259, 0.009307672, NaN, NaN, NaN, 0.0372337, "- N/A -   "
5.54, 217.967, 0.009338217, NaN, NaN, NaN, 0.0384545, "- N/A -   "
5.56, 218.6746, 0.00936876, NaN, NaN, NaN, 0.0396753, "- N/A -   "
5.58, 219.3823, 0.009399305, NaN, NaN, NaN, 0.04089605, "- N/A -   "
5.6, 220.09, 0.009432626, NaN, NaN, NaN, 0.04211683, "- N/A -   "
5.62, 220.916, 0.009463171, NaN, NaN, NaN, 0.04211683, "- N/A -   "
5.64, 221.859, 0.009499268, NaN, NaN, NaN, 0.04089605, "- N/A -   "
5.66, 222.449, 0.009532589, NaN, NaN, NaN, 0.04089605, "- N/A -   "
5.68, 223.3925, 0.009568687, NaN, NaN, NaN, 0.0396753, "- N/A -   "
5.7, 224.1002, 0.009602008, NaN, NaN, NaN, 0.04089605, "- N/A -   "
5.72, 224.926, 0.009635328, NaN, NaN, NaN, 0.04089605, "- N/A -   "
5.74, 225.6335, 0.00966865, NaN, NaN, NaN, 0.04089605, "- N/A -   "
5.76, 226.577, 0.009701971, NaN, NaN, NaN, 0.0396753, "- N/A -   "
5.78, 227.285, 0.009738068, NaN, NaN, NaN, 0.0396753, "- N/A -   "
5.8, 228.11, 0.009771389, NaN, NaN, NaN, 0.0396753, "- N/A -   "
5.82, 228.936, 0.009804711, NaN, NaN, NaN, 0.0384545, "- N/A -   "
5.84, 229.762, 0.009838031, NaN, NaN, NaN, 0.0384545, "- N/A -   "
5.86, 230.705, 0.009871352, NaN, NaN, NaN, 0.0384545, "- N/A -   "
5.88, 231.413, 0.00990745, NaN, NaN, NaN, 0.0384545, "- N/A -   "
5.9, 232.121, 0.00994077, NaN, NaN, NaN, 0.0384545, "- N/A -   "
5.92, 232.828, 0.009971315, NaN, NaN, NaN, 0.0384545, "- N/A -   "
5.94, 233.536, 0.0100074, NaN, NaN, NaN, 0.0384545, "- N/A -   "
5.96, 234.48, 0.0100407, NaN, NaN, NaN, 0.0372337, "- N/A -   "
5.98, 235.423, 0.0100796, NaN, NaN, NaN, 0.0347922, "- N/A -   "
6, 236.249, 0.0101157, NaN, NaN, NaN, 0.0347922, "- N/A -   "
6.02, 236.956, 0.0101463, NaN, NaN, NaN, 0.0347922, "- N/A -   "
6.04, 237.664, 0.0101796, NaN, NaN, NaN, 0.0347922, "- N/A -   "
6.06, 238.49, 0.0102157, NaN, NaN, NaN, 0.0347922, "- N/A -   "
6.08, 239.315, 0.0102462, NaN, NaN, NaN, 0.0347922, "- N/A -   "
6.1, 240.141, 0.0102795, NaN, NaN, NaN, 0.0347922, "- N/A -   "
6.12, 240.849, 0.0103129, NaN, NaN, NaN, 0.0347922, "- N/A -   "
6.14, 241.674, 0.010349, NaN, NaN, NaN, 0.0347922, "- N/A -   "
6.16, 242.382, 0.0103767, NaN, NaN, NaN, 0.03601294, "- N/A -   "
6.18, 243.207, 0.0104128, NaN, NaN, NaN, 0.03601294, "- N/A -   "
6.2, 244.032, 0.0104489, NaN, NaN, NaN, 0.0335714, "- N/A -   "
6.22, 244.7387, 0.0104822, NaN, NaN, NaN, 0.0335714, "- N/A -   "
6.24, 245.563, 0.0105128, NaN, NaN, NaN, 0.0347922, "- N/A -   "
6.26, 246.153, 0.0105433, NaN, NaN, NaN, 0.0372337, "- N/A -   "
6.28, 246.86, 0.0105739, NaN, NaN, NaN, 0.0384545, "- N/A -   "
6.3, 247.684, 0.0106044, NaN, NaN, NaN, 0.0384545, "- N/A -   "
6.32, 248.273, 0.010635, NaN, NaN, NaN, 0.0396753, "- N/A -   "
6.34, 249.216, 0.0106711, NaN, NaN, NaN, 0.0384545, "- N/A -   "
6.36, 249.923, 0.0107016, NaN, NaN, NaN, 0.0396753, "- N/A -   "
6.38, 250.63, 0.0107349, NaN, NaN, NaN, 0.04089605, "- N/A -   "
6.4, 251.337, 0.01076269, NaN, NaN, NaN, 0.04211683, "- N/A -   "
6.42, 252.044, 0.010796, NaN, NaN, NaN, 0.0433376, "- N/A -   "
6.44, 252.987, 0.0108321, NaN, NaN, NaN, 0.04211683, "- N/A -   "
6.46, 253.811, 0.0108654, NaN, NaN, NaN, 0.04089605, "- N/A -   "
6.48, 254.7539, 0.0109043, NaN, NaN, NaN, 0.0396753, "- N/A -   "
6.5, 255.461, 0.0109404, NaN, NaN, NaN, 0.0384545, "- N/A -   "
6.52, 256.5213, 0.0109821, NaN, NaN, NaN, 0.0347922, "- N/A -   "
6.54, 257.4639, 0.0110182, NaN, NaN, NaN, 0.0323506, "- N/A -   "
6.56, 258.2887, 0.0110542, NaN, NaN, NaN, 0.03112983, "- N/A -   "
6.58, 259.113, 0.0110903, NaN, NaN, NaN, 0.03112983, "- N/A -   "
6.6, 259.7026, 0.0111209, NaN, NaN, NaN, 0.0323506, "- N/A -   "
6.62, 260.527, 0.0111514, NaN, NaN, NaN, 0.0323506, "- N/A -   "
6.64, 261.117, 0.011182, NaN, NaN, NaN, 0.0335714, "- N/A -   "
6.66, 261.8235, 0.0112125, NaN, NaN, NaN, 0.0347922, "- N/A -   "
6.68, 262.648, 0.0112458, NaN, NaN, NaN, 0.0347922, "- N/A -   "
6.7, 263.473, 0.0112792, NaN, NaN, NaN, 0.0347922, "- N/A -   "
6.72, 264.298, 0.0113153, NaN, NaN, NaN, 0.0335714, "- N/A -   "
6.74, 265.24, 0.0113486, NaN, NaN, NaN, 0.0335714, "- N/A -   "
6.76, 266.065, 0.0113875, NaN, NaN, NaN, 0.03112983, "- N/A -   "
6.78, 266.89, 0.0114236, NaN, NaN, NaN, 0.0299091, "- N/A -   "
6.8, 267.597, 0.0114569, NaN, NaN, NaN, 0.0299091, "- N/A -   "
6.82, 268.304, 0.0114874, NaN, NaN, NaN, 0.03112983, "- N/A -   "
6.84, 268.893, 0.011518, NaN, NaN, NaN, 0.0335714, "- N/A -   "
6.86, 269.9535, 0.0115513, NaN, NaN, NaN, 0.0323506, "- N/A -   "
6.88, 270.66, 0.0115874, NaN, NaN, NaN, 0.03112983, "- N/A -   "
6.9, 271.367, 0.01161793, NaN, NaN, NaN, 0.0323506, "- N/A -   "
6.92, 272.074, 0.0116457, NaN, NaN, NaN, 0.0347922, "- N/A -   "
6.94, 272.546, 0.0116735, NaN, NaN, NaN, 0.0372337, "- N/A -   "
6.96, 273.253, 0.0117012, NaN, NaN, NaN, 0.0396753, "- N/A -   "
6.98, 273.842, 0.0117318, NaN, NaN, NaN, 0.04211683, "- N/A -   "
7, 274.549, 0.0117595, NaN, NaN, NaN, 0.0433376, "- N/A -   "
7.02, 275.256, 0.0117901, NaN, NaN, NaN, 0.0445584, "- N/A -   "
7.04, 275.8448, 0.0118206, NaN, NaN, NaN, 0.04577916, "- N/A -   "
7.06, 276.67, 0.011854, NaN, NaN, NaN, 0.04577916, "- N/A -   "
7.08, 277.494, 0.0118901, NaN, NaN, NaN, 0.04577916, "- N/A -   "
7.1, 278.319, 0.0119234, NaN, NaN, NaN, 0.0445584, "- N/A -   "
7.12, 279.144, 0.01195947, NaN, NaN, NaN, 0.0433376, "- N/A -   "
7.14, 279.9687, 0.0119983, NaN, NaN, NaN, 0.04089605, "- N/A -   "
7.16, 280.911, 0.0120344, NaN, NaN, NaN, 0.0396753, "- N/A -   "
7.18, 281.618, 0.01207054, NaN, NaN, NaN, 0.0396753, "- N/A -   "
7.2, 282.443, 0.0121066, NaN, NaN, NaN, 0.0384545, "- N/A -   "
7.22, 283.268, 0.0121427, NaN, NaN, NaN, 0.0372337, "- N/A -   "
7.24, 284.093, 0.0121788, NaN, NaN, NaN, 0.03601294, "- N/A -   "
7.26, 284.8, 0.0122122, NaN, NaN, NaN, 0.0347922, "- N/A -   "
7.28, 285.624, 0.0122483, NaN, NaN, NaN, 0.0347922, "- N/A -   "
7.3, 286.567, 0.0122816, NaN, NaN, NaN, 0.0335714, "- N/A -   "
7.32, 287.274, 0.0123177, NaN, NaN, NaN, 0.0335714, "- N/A -   "
7.34, 287.981, 0.012351, NaN, NaN, NaN, 0.0323506, "- N/A -   "
7.36, 288.9235, 0.01238709, NaN, NaN, NaN, 0.03112983, "- N/A -   "
7.38, 289.63, 0.0124232, NaN, NaN, NaN, 0.0299091, "- N/A -   "
7.4, 290.4552, 0.0124593, NaN, NaN, NaN, 0.0286883, "- N/A -   "
7.42, 291.28, 0.0124926, NaN, NaN, NaN, 0.0286883, "- N/A -   "
7.44, 291.987, 0.0125259, NaN, NaN, NaN, 0.0299091, "- N/A -   "
7.46, 292.6939, 0.0125592, NaN, NaN, NaN, 0.0299091, "- N/A -   "
7.48, 293.283, 0.0125926, NaN, NaN, NaN, 0.0299091, "- N/A -   "
7.5, 293.99, 0.0126231, NaN, NaN, NaN, 0.03112983, "- N/A -   "
7.52, 294.5791, 0.0126537, NaN, NaN, NaN, 0.0323506, "- N/A -   "
7.54, 295.404, 0.0126842, NaN, NaN, NaN, 0.0335714, "- N/A -   "
7.56, 295.993, 0.01271197, NaN, NaN, NaN, 0.0347922, "- N/A -   "
7.58, 296.582, 0.0127397, NaN, NaN, NaN, 0.0372337, "- N/A -   "
7.6, 297.0535, 0.0127675, NaN, NaN, NaN, 0.0396753, "- N/A -   "
7.62, 297.6426, 0.0127953, NaN, NaN, NaN, 0.04211683, "- N/A -   "
7.64, 298.35, 0.0128258, NaN, NaN, NaN, 0.0445584, "- N/A -   "
7.66, 299.057, 0.0128564, NaN, NaN, NaN, 0.0445584, "- N/A -   "
7.68, 299.7635, 0.0128897, NaN, NaN, NaN, 0.0445584, "- N/A -   "
7.7, 300.588, 0.0129258, NaN, NaN, NaN, 0.0445584, "- N/A -   "
7.72, 301.295, 0.0129591, NaN, NaN, NaN, 0.0433376, "- N/A -   "
7.74, 302.0022, 0.0129924, NaN, NaN, NaN, 0.0433376, "- N/A -   "
7.76, 302.709, 0.0130257, NaN, NaN, NaN, 0.0433376, "- N/A -   "
7.78, 303.5339, 0.0130591, NaN, NaN, NaN, 0.0433376, "- N/A -   "
7.8, 304.3587, 0.0130979, NaN, NaN, NaN, 0.04211683, "- N/A -   "
7.82, 305.183, 0.0131313, NaN, NaN, NaN, 0.04089605, "- N/A -   "
7.84, 305.8904, 0.0131674, NaN, NaN, NaN, 0.04089605, "- N/A -   "
7.86, 306.7152, 0.0132007, NaN, NaN, NaN, 0.0396753, "- N/A -   "
7.88, 307.658, 0.0132423, NaN, NaN, NaN, 0.03601294, "- N/A -   "
7.9, 308.4826, 0.013284, NaN, NaN, NaN, 0.0335714, "- N/A -   "
7.92, 309.543, 0.0133256, NaN, NaN, NaN, 0.0286883, "- N/A -   "
7.94, 310.486, 0.0133673, NaN, NaN, NaN, 0.0262467, "- N/A -   "
7.96, 311.0748, 0.0134006, NaN, NaN, NaN, 0.0262467, "- N/A -   "
7.98, 311.9, 0.0134339, NaN, NaN, NaN, 0.0262467, "- N/A -   "
8, 312.489, 0.0134645, NaN, NaN, NaN, 0.0262467, "- N/A -   "
8.02, 313.196, 0.013495, NaN, NaN, NaN, 0.0286883, "- N/A -   "
8.04, 313.7848, 0.0135256, NaN, NaN, NaN, 0.0286883, "- N/A -   "
8.06, 314.492, 0.0135589, NaN, NaN, NaN, 0.0286883, "- N/A -   "
8.08, 315.317, 0.0135894, NaN, NaN, NaN, 0.0299091, "- N/A -   "
8.1, 315.906, 0.0136227, NaN, NaN, NaN, 0.03112983, "- N/A -   "
8.12, 316.73, 0.0136561, NaN, NaN, NaN, 0.03112983, "- N/A -   "
8.14, 317.32, 0.0136838, NaN, NaN, NaN, 0.0323506, "- N/A -   "
8.16, 318.027, 0.0137144, NaN, NaN, NaN, 0.0347922, "- N/A -   "
8.18, 318.7335, 0.0137477, NaN, NaN, NaN, 0.0347922, "- N/A -   "
8.2, 319.44, 0.0137782, NaN, NaN, NaN, 0.0372337, "- N/A -   "
8.22, 319.912, 0.01380601, NaN, NaN, NaN, 0.0384545, "- N/A -   "
8.24, 320.619, 0.0138393, NaN, NaN, NaN, 0.0384545, "- N/A -   "
8.26, 321.326, 0.0138727, NaN, NaN, NaN, 0.0384545, "- N/A -   "
8.28, 322.15, 0.013906, NaN, NaN, NaN, 0.0384545, "- N/A -   "
8.3, 322.74, 0.0139365, NaN, NaN, NaN, 0.04089605, "- N/A -   "
8.32, 323.447, 0.0139671, NaN, NaN, NaN, 0.04211683, "- N/A -   "
8.34, 324.153, 0.0139976, NaN, NaN, NaN, 0.04211683, "- N/A -   "
8.36, 324.7426, 0.01402815, NaN, NaN, NaN, 0.0433376, "- N/A -   "
8.38, 325.45, 0.0140587, NaN, NaN, NaN, 0.0445584, "- N/A -   "
8.4, 326.157, 0.014092, NaN, NaN, NaN, 0.0445584, "- N/A -   "
8.42, 326.863, 0.0141253, NaN, NaN, NaN, 0.0445584, "- N/A -   "
8.44, 327.4526, 0.0141587, NaN, NaN, NaN, 0.0445584, "- N/A -   "
8.46, 328.395, 0.0141975, NaN, NaN, NaN, 0.04211683, "- N/A -   "
8.48, 329.22, 0.0142336, NaN, NaN, NaN, 0.04211683, "- N/A -   "
8.5, 330.0448, 0.014267, NaN, NaN, NaN, 0.04089605, "- N/A -   "
8.52, 330.987, 0.0143058, NaN, NaN, NaN, 0.0384545, "- N/A -   "
8.54, 331.812, 0.0143447, NaN, NaN, NaN, 0.03601294, "- N/A -   "
8.56, 332.519, 0.014378, NaN, NaN, NaN, 0.03601294, "- N/A -   "
8.58, 333.344, 0.0144169, NaN, NaN, NaN, 0.0347922, "- N/A -   "
8.6, 334.1687, 0.014453, NaN, NaN, NaN, 0.0335714, "- N/A -   "
8.62, 334.9935, 0.0144863, NaN, NaN, NaN, 0.0323506, "- N/A -   "
8.64, 335.5826, 0.0145196, NaN, NaN, NaN, 0.0323506, "- N/A -   "
8.66, 336.172, 0.0145502, NaN, NaN, NaN, 0.0347922, "- N/A -   "
8.68, 336.8787, 0.0145807, NaN, NaN, NaN, 0.03601294, "- N/A -   "
8.7, 337.586, 0.0146113, NaN, NaN, NaN, 0.03601294, "- N/A -   "
8.72, 338.2926, 0.0146446, NaN, NaN, NaN, 0.0372337, "- N/A -   "
8.74, 339, 0.01467791, NaN, NaN, NaN, 0.0372337, "- N/A -   "
8.76, 339.707, 0.0147085, NaN, NaN, NaN, 0.0372337, "- N/A -   "
8.78, 340.413, 0.0147418, NaN, NaN, NaN, 0.0372337, "- N/A -   "
8.8, 341.238, 0.0147779, NaN, NaN, NaN, 0.03601294, "- N/A -   "
8.82, 342.063, 0.014814, NaN, NaN, NaN, 0.0347922, "- N/A -   "
8.84, 342.77, 0.0148501, NaN, NaN, NaN, 0.0335714, "- N/A -   "
8.86, 343.5948, 0.01488339, NaN, NaN, NaN, 0.0335714, "- N/A -   "
8.88, 344.302, 0.0149167, NaN, NaN, NaN, 0.0335714, "- N/A -   "
8.9, 345.009, 0.0149473, NaN, NaN, NaN, 0.0347922, "- N/A -   "
8.92, 345.48, 0.014975, NaN, NaN, NaN, 0.0372337, "- N/A -   "
8.94, 346.187, 0.0150083, NaN, NaN, NaN, 0.0372337, "- N/A -   "
8.96, 346.894, 0.0150389, NaN, NaN, NaN, 0.0384545, "- N/A -   "
8.98, 347.483, 0.0150667, NaN, NaN, NaN, 0.04089605, "- N/A -   "
8.99, 347.837, 0.0150805, NaN, NaN, NaN, 0.04211683, "- N/A -   "
9, 348.19, 0.0150972, NaN, NaN, NaN, 0.0433376, "- N/A -   "
9.01, 348.5435, 0.0151111, NaN, NaN, NaN, 0.0433376, "- N/A -   "
9.06, 350.4287, 0.0151972, NaN, NaN, NaN, 0.04211683, "- N/A -   "
9.11, 352.55, 0.015286, NaN, NaN, NaN, 0.0396753, "- N/A -   "
9.16, 354.435, 0.0153749, NaN, NaN, NaN, 0.0384545, "- N/A -   "
9.21, 356.32, 0.015461, NaN, NaN, NaN, 0.03601294, "- N/A -   "
9.26, 358.205, 0.015547, NaN, NaN, NaN, 0.03601294, "- N/A -   "
9.31, 360.09, 0.0156303, NaN, NaN, NaN, 0.0347922, "- N/A -   "
9.36, 362.093, 0.0157192, NaN, NaN, NaN, 0.0323506, "- N/A -   "
9.41, 363.9787, 0.0158025, NaN, NaN, NaN, 0.0323506, "- N/A -   "
9.46, 365.628, 0.015883, NaN, NaN, NaN, 0.0335714, "- N/A -   "
9.51, 367.5135, 0.0159663, NaN, NaN, NaN, 0.0335714, "- N/A -   "
9.56, 369.634, 0.0160496, NaN, NaN, NaN, 0.0335714, "- N/A -   "
9.61, 371.2839, 0.0161302, NaN, NaN, NaN, 0.0347922, "- N/A -   "
9.66, 372.933, 0.0162079, NaN, NaN, NaN, 0.0372337, "- N/A -   "
9.71, 374.701, 0.0162829, NaN, NaN, NaN, 0.04089605, "- N/A -   "
9.76, 376.468, 0.0163662, NaN, NaN, NaN, 0.04089605, "- N/A -   "
9.81, 378.236, 0.0164411, NaN, NaN, NaN, 0.0445584, "- N/A -   "
9.86, 380.2387, 0.0165272, NaN, NaN, NaN, 0.0433376, "- N/A -   "
9.91, 382.124, 0.0166133, NaN, NaN, NaN, 0.0433376, "- N/A -   "
9.96, 384.3626, 0.0167105, NaN, NaN, NaN, 0.03601294, "- N/A -   "
10.01, 386.4835, 0.0168021, NaN, NaN, NaN, 0.0335714, "- N/A -   "
10.06, 388.369, 0.0168854, NaN, NaN, NaN, 0.0335714, "- N/A -   "
10.11, 390.2539, 0.016966, NaN, NaN, NaN, 0.0335714, "- N/A -   "
10.16, 392.0213, 0.017052, NaN, NaN, NaN, 0.0323506, "- N/A -   "
10.21, 394.26, 0.0171437, NaN, NaN, NaN, 0.0286883, "- N/A -   "
10.26, 396.027, 0.0172214, NaN, NaN, NaN, 0.03112983, "- N/A -   "
10.31, 397.677, 0.0172964, NaN, NaN, NaN, 0.0347922, "- N/A -   "
10.36, 399.3265, 0.0173686, NaN, NaN, NaN, 0.0396753, "- N/A -   "
10.41, 400.74, 0.017438, NaN, NaN, NaN, 0.04577916, "- N/A -   "
10.46, 402.508, 0.01751575, NaN, NaN, NaN, 0.0482207, "- N/A -   "
10.51, 404.6287, 0.0176074, NaN, NaN, NaN, 0.04577916, "- N/A -   "
10.56, 406.985, 0.0177018, NaN, NaN, NaN, 0.0396753, "- N/A -   "
10.61, 409.106, 0.0177962, NaN, NaN, NaN, 0.0347922, "- N/A -   "
10.66, 411.109, 0.0178823, NaN, NaN, NaN, 0.0335714, "- N/A -   "
10.71, 413.23, 0.0179739, NaN, NaN, NaN, 0.0299091, "- N/A -   "
10.76, 415.233, 0.01806277, NaN, NaN, NaN, 0.0286883, "- N/A -   "
10.81, 417.118, 0.0181433, NaN, NaN, NaN, 0.0286883, "- N/A -   "
10.86, 419.003, 0.0182238, NaN, NaN, NaN, 0.0299091, "- N/A -   "
10.91, 420.771, 0.0183071, NaN, NaN, NaN, 0.0299091, "- N/A -   "
10.96, 422.3026, 0.0183765, NaN, NaN, NaN, 0.03601294, "- N/A -   "
11.01, 424.07, 0.0184487, NaN, NaN, NaN, 0.04089605, "- N/A -   "
11.06, 425.72, 0.0185237, NaN, NaN, NaN, 0.0445584, "- N/A -   "
11.11, 427.6048, 0.018607, NaN, NaN, NaN, 0.0445584, "- N/A -   "
11.16, 429.49, 0.0186903, NaN, NaN, NaN, 0.04577916, "- N/A -   "
11.21, 431.493, 0.0187764, NaN, NaN, NaN, 0.0433376, "- N/A -   "
11.26, 433.732, 0.0188653, NaN, NaN, NaN, 0.04089605, "- N/A -   "
11.31, 435.97, 0.0189652, NaN, NaN, NaN, 0.0335714, "- N/A -   "
11.36, 438.209, 0.0190596, NaN, NaN, NaN, 0.0286883, "- N/A -   "
11.41, 440.2122, 0.0191457, NaN, NaN, NaN, 0.0274675, "- N/A -   "
11.46, 441.862, 0.0192235, NaN, NaN, NaN, 0.0299091, "- N/A -   "
11.51, 443.747, 0.019304, NaN, NaN, NaN, 0.0323506, "- N/A -   "
11.56, 445.632, 0.0193817, NaN, NaN, NaN, 0.0347922, "- N/A -   "
11.61, 447.517, 0.0194623, NaN, NaN, NaN, 0.03601294, "- N/A -   "
11.66, 449.2848, 0.01954278, NaN, NaN, NaN, 0.0372337, "- N/A -   "
11.71, 451.0522, 0.0196178, NaN, NaN, NaN, 0.0396753, "- N/A -   "
11.76, 452.82, 0.0196927, NaN, NaN, NaN, 0.0433376, "- N/A -   "
11.81, 454.705, 0.0197705, NaN, NaN, NaN, 0.04577916, "- N/A -   "
11.86, 456.354, 0.0198538, NaN, NaN, NaN, 0.04699994, "- N/A -   "
11.91, 458.829, 0.0199482, NaN, NaN, NaN, 0.04089605, "- N/A -   "
11.96, 461.303, 0.0200509, NaN, NaN, NaN, 0.0323506, "- N/A -   "
12.01, 463.542, 0.0201453, NaN, NaN, NaN, 0.0274675, "- N/A -   "
12.06, 465.427, 0.0202286, NaN, NaN, NaN, 0.0286883, "- N/A -   "
12.11, 467.194, 0.0203036, NaN, NaN, NaN, 0.03112983, "- N/A -   "
12.16, 468.962, 0.0203814, NaN, NaN, NaN, 0.0335714, "- N/A -   "
12.21, 470.847, 0.0204619, NaN, NaN, NaN, 0.0347922, "- N/A -   "
12.26, 473.086, 0.0205535, NaN, NaN, NaN, 0.03112983, "- N/A -   "
12.31, 474.853, 0.020634, NaN, NaN, NaN, 0.0335714, "- N/A -   "
12.36, 476.62, 0.02071179, NaN, NaN, NaN, 0.03601294, "- N/A -   "
12.41, 478.27, 0.02078121, NaN, NaN, NaN, 0.04089605, "- N/A -   "
12.46, 480.037, 0.0208617, NaN, NaN, NaN, 0.04211683, "- N/A -   "
12.51, 482.158, 0.0209506, NaN, NaN, NaN, 0.0396753, "- N/A -   "
12.56, 484.1613, 0.0210339, NaN, NaN, NaN, 0.0396753, "- N/A -   "
12.61, 486.2822, 0.02112, NaN, NaN, NaN, 0.0384545, "- N/A -   "
12.66, 488.403, 0.0212116, NaN, NaN, NaN, 0.03601294, "- N/A -   "
12.71, 490.4061, 0.0212949, NaN, NaN, NaN, 0.03601294, "- N/A -   "
12.76, 492.291, 0.0213754, NaN, NaN, NaN, 0.0372337, "- N/A -   "
12.81, 494.53, 0.0214671, NaN, NaN, NaN, 0.0335714, "- N/A -   "
12.86, 496.415, 0.0215559, NaN, NaN, NaN, 0.03112983, "- N/A -   "
12.91, 498.536, 0.021642, NaN, NaN, NaN, 0.03112983, "- N/A -   "
12.96, 500.657, 0.0217281, NaN, NaN, NaN, 0.0286883, "- N/A -   "
13.01, 502.424, 0.0218031, NaN, NaN, NaN, 0.0323506, "- N/A -   "
13.06, 504.31, 0.0218808, NaN, NaN, NaN, 0.0347922, "- N/A -   "
13.11, 505.723, 0.0219502, NaN, NaN, NaN, 0.04089605, "- N/A -   "
13.16, 507.727, 0.022028, NaN, NaN, NaN, 0.0433376, "- N/A -   "
13.21, 509.3761, 0.02210572, NaN, NaN, NaN, 0.04577916, "- N/A -   "
13.26, 511.2613, 0.0221807, NaN, NaN, NaN, 0.0494415, "- N/A -   "
13.31, 513.264, 0.0222668, NaN, NaN, NaN, 0.0494415, "- N/A -   "
13.36, 515.9839, 0.0223751, NaN, NaN, NaN, 0.0384545, "- N/A -   "
13.41, 518.4678, 0.0224723, NaN, NaN, NaN, 0.03112983, "- N/A -   "
13.46, 520.4786, 0.0225556, NaN, NaN, NaN, 0.03112983, "- N/A -   "
13.51, 522.3711, 0.0226416, NaN, NaN, NaN, 0.0299091, "- N/A -   "
13.56, 524.264, 0.02272216, NaN, NaN, NaN, 0.0323506, "- N/A -   "
13.61, 526.393, 0.0228082, NaN, NaN, NaN, 0.03112983, "- N/A -   "
13.66, 528.4034, 0.0228915, NaN, NaN, NaN, 0.0299091, "- N/A -   "
13.71, 530.2959, 0.02296929, NaN, NaN, NaN, 0.0323506, "- N/A -   "
13.76, 531.834, 0.0230415, NaN, NaN, NaN, 0.0384545, "- N/A -   "
13.81, 533.489, 0.0231109, NaN, NaN, NaN, 0.0433376, "- N/A -   "
13.86, 535.5, 0.0231914, NaN, NaN, NaN, 0.04577916, "- N/A -   "
13.91, 537.3927, 0.023272, NaN, NaN, NaN, 0.04577916, "- N/A -   "
13.96, 539.6401, 0.02336359, NaN, NaN, NaN, 0.04211683, "- N/A -   "
14.01, 542.0057, 0.023458, NaN, NaN, NaN, 0.0372337, "- N/A -   "
14.06, 544.0164, 0.0235441, NaN, NaN, NaN, 0.03601294, "- N/A -   "
14.11, 546.2638, 0.0236329, NaN, NaN, NaN, 0.0335714, "- N/A -   "
14.16, 548.5111, 0.0237246, NaN, NaN, NaN, 0.03112983, "- N/A -   "
14.21, 550.4036, 0.02380787, NaN, NaN, NaN, 0.0299091, "- N/A -   "
14.26, 552.4144, 0.0238884, NaN, NaN, NaN, 0.03112983, "- N/A -   "
14.31, 554.3069, 0.0239717, NaN, NaN, NaN, 0.03112983, "- N/A -   "
14.36, 556.1994, 0.02404667, NaN, NaN, NaN, 0.0347922, "- N/A -   "
14.41, 557.855, 0.0241189, NaN, NaN, NaN, 0.0396753, "- N/A -   "
14.46, 559.7478, 0.0241966, NaN, NaN, NaN, 0.0433376, "- N/A -   "
14.51, 561.6403, 0.0242744, NaN, NaN, NaN, 0.0445584, "- N/A -   "
14.56, 563.769, 0.0243577, NaN, NaN, NaN, 0.0445584, "- N/A -   "
14.61, 565.78, 0.0244437, NaN, NaN, NaN, 0.0433376, "- N/A -   "
14.66, 568.027, 0.0245326, NaN, NaN, NaN, 0.04089605, "- N/A -   "
14.71, 570.3931, 0.024627, NaN, NaN, NaN, 0.03601294, "- N/A -   "
14.76, 572.877, 0.024727, NaN, NaN, NaN, 0.0286883, "- N/A -   "
14.81, 574.8878, 0.0248103, NaN, NaN, NaN, 0.0299091, "- N/A -   "
14.86, 576.8985, 0.0248936, NaN, NaN, NaN, 0.0286883, "- N/A -   "
14.91, 578.9093, 0.0249741, NaN, NaN, NaN, 0.03112983, "- N/A -   "
14.96, 580.684, 0.0250463, NaN, NaN, NaN, 0.0347922, "- N/A -   "
15.01, 582.694, 0.02512405, NaN, NaN, NaN, 0.0372337, "- N/A -   "
15.06, 584.7051, 0.0252129, NaN, NaN, NaN, 0.03601294, "- N/A -   "
15.11, 586.7158, 0.02529343, NaN, NaN, NaN, 0.0372337, "- N/A -   "
15.16, 588.372, 0.0253656, NaN, NaN, NaN, 0.04089605, "- N/A -   "
15.21, 590.2642, 0.0254434, NaN, NaN, NaN, 0.0433376, "- N/A -   "
15.26, 592.275, 0.0255239, NaN, NaN, NaN, 0.04577916, "- N/A -   "
15.31, 594.6406, 0.0256155, NaN, NaN, NaN, 0.04211683, "- N/A -   "
15.36, 597.243, 0.0257127, NaN, NaN, NaN, 0.0347922, "- N/A -   "
15.41, 599.3719, 0.0258044, NaN, NaN, NaN, 0.03112983, "- N/A -   "
15.46, 601.501, 0.0258877, NaN, NaN, NaN, 0.03112983, "- N/A -   "
15.51, 603.275, 0.0259654, NaN, NaN, NaN, 0.0347922, "- N/A -   "
15.56, 605.4042, 0.0260432, NaN, NaN, NaN, 0.03601294, "- N/A -   "
15.61, 607.415, 0.02612646, NaN, NaN, NaN, 0.03601294, "- N/A -   "
15.66, 609.781, 0.0262153, NaN, NaN, NaN, 0.0335714, "- N/A -   "
15.71, 611.7914, 0.0263014, NaN, NaN, NaN, 0.0323506, "- N/A -   "
15.76, 613.8021, 0.02638192, NaN, NaN, NaN, 0.0335714, "- N/A -   "
15.81, 615.458, 0.0264513, NaN, NaN, NaN, 0.0396753, "- N/A -   "
15.86, 617.4689, 0.0265319, NaN, NaN, NaN, 0.04211683, "- N/A -   "
15.91, 619.7162, 0.0266179, NaN, NaN, NaN, 0.04089605, "- N/A -   "
15.96, 621.8453, 0.026704, NaN, NaN, NaN, 0.0384545, "- N/A -   "
16.01, 624.0926, 0.0267901, NaN, NaN, NaN, 0.0372337, "- N/A -   "
16.06, 626.103, 0.0268734, NaN, NaN, NaN, 0.0372337, "- N/A -   "
16.11, 628.2324, 0.0269595, NaN, NaN, NaN, 0.03601294, "- N/A -   "
16.16, 630.3615, 0.0270428, NaN, NaN, NaN, 0.03601294, "- N/A -   "
16.21, 632.6088, 0.0271316, NaN, NaN, NaN, 0.0335714, "- N/A -   "
[...]
25.91, 1060.343, 0.04331733, NaN, NaN, NaN, 0.0250259, "- N/A -   "
25.96, 1062.01, 0.0433895, NaN, NaN, NaN, 0.03112983, "- N/A -   "
26.01, 1063.92, 0.0434589, NaN, NaN, NaN, 0.03601294, "- N/A -   "
26.06, 1065.95, 0.0435339, NaN, NaN, NaN, 0.0396753, "- N/A -   "
26.11, 1068.33, 0.04362, NaN, NaN, NaN, 0.0396753, "- N/A -   "
26.16, 1070.6, 0.0437061, NaN, NaN, NaN, 0.0372337, "- N/A -   "
26.21, 1072.75, 0.04378382, NaN, NaN, NaN, 0.0396753, "- N/A -   "
26.26, 1074.77, 0.0438588, NaN, NaN, NaN, 0.04577916, "- N/A -   "
26.31, 1076.8, 0.0439338, NaN, NaN, NaN, 0.0494415, "- N/A -   "
26.36, 1079.42, 0.0440282, NaN, NaN, NaN, 0.0433376, "- N/A -   "
26.41, 1082.05, 0.0441226, NaN, NaN, NaN, 0.0384545, "- N/A -   "
26.46, 1084.55, 0.04421144, NaN, NaN, NaN, 0.0372337, "- N/A -   "
26.51, 1086.7, 0.04429197, NaN, NaN, NaN, 0.0372337, "- N/A -   "
26.56, 1089.32, 0.0443808, NaN, NaN, NaN, 0.0347922, "- N/A -   "
26.61, 1091.71, 0.0444669, NaN, NaN, NaN, 0.0335714, "- N/A -   "
26.66, 1093.972, 0.0445502, NaN, NaN, NaN, 0.0335714, "- N/A -   "
26.71, 1096.24, 0.04463351, NaN, NaN, NaN, 0.0347922, "- N/A -   "
26.76, 1098.27, 0.04470848, NaN, NaN, NaN, 0.0372337, "- N/A -   "
26.81, 1100.17, 0.0447807, NaN, NaN, NaN, 0.04211683, "- N/A -   "
26.86, 1102.56, 0.0448612, NaN, NaN, NaN, 0.0433376, "- N/A -   "
26.91, 1104.94, 0.04495006, NaN, NaN, NaN, 0.04211683, "- N/A -   "
26.96, 1107.33, 0.0450361, NaN, NaN, NaN, 0.0396753, "- N/A -   "
27.01, 1110.07, 0.0451361, NaN, NaN, NaN, 0.0335714, "- N/A -   "
27.06, 1112.58, 0.0452222, NaN, NaN, NaN, 0.03112983, "- N/A -   "
27.11, 1114.72, 0.0453027, NaN, NaN, NaN, 0.0323506, "- N/A -   "
27.16, 1116.75, 0.04538323, NaN, NaN, NaN, 0.0347922, "- N/A -   "
27.21, 1119.37, 0.0454721, NaN, NaN, NaN, 0.03112983, "- N/A -   "
27.26, 1121.88, 0.04555817, NaN, NaN, NaN, 0.0299091, "- N/A -   "
27.31, 1124.14, 0.04564425, NaN, NaN, NaN, 0.0299091, "- N/A -   "
27.36, 1126.29, 0.0457192, NaN, NaN, NaN, 0.0323506, "- N/A -   "
27.41, 1128.2, 0.04579419, NaN, NaN, NaN, 0.03601294, "- N/A -   "
27.46, 1129.99, 0.04586361, NaN, NaN, NaN, 0.04211683, "- N/A -   "
27.51, 1132.13, 0.04593858, NaN, NaN, NaN, 0.04577916, "- N/A -   "
27.56, 1134.28, 0.04601911, NaN, NaN, NaN, 0.04699994, "- N/A -   "
27.61, 1137.022, 0.0461135, NaN, NaN, NaN, 0.04211683, "- N/A -   "
27.66, 1139.65, 0.0462079, NaN, NaN, NaN, 0.0372337, "- N/A -   "
27.71, 1142.15, 0.04629956, NaN, NaN, NaN, 0.0347922, "- N/A -   "
27.76, 1144.42, 0.0463801, NaN, NaN, NaN, 0.0347922, "- N/A -   "
27.81, 1146.92, 0.04647172, NaN, NaN, NaN, 0.0323506, "- N/A -   "
27.86, 1149.42, 0.0465606, NaN, NaN, NaN, 0.0286883, "- N/A -   "
27.91, 1151.69, 0.0466439, NaN, NaN, NaN, 0.0299091, "- N/A -   "
27.96, 1153.84, 0.0467216, NaN, NaN, NaN, 0.03112983, "- N/A -   "
28.01, 1155.86, 0.0467938, NaN, NaN, NaN, 0.03601294, "- N/A -   "
28.06, 1157.65, 0.04686602, NaN, NaN, NaN, 0.04211683, "- N/A -   "
28.11, 1159.56, 0.0469382, NaN, NaN, NaN, 0.04577916, "- N/A -   "
28.16, 1161.95, 0.0470215, NaN, NaN, NaN, 0.04699994, "- N/A -   "
28.21, 1164.33, 0.0471076, NaN, NaN, NaN, 0.0445584, "- N/A -   "
28.26, 1166.72, 0.0471964, NaN, NaN, NaN, 0.04211683, "- N/A -   "
28.31, 1169.22, 0.0472853, NaN, NaN, NaN, 0.0396753, "- N/A -   "
28.36, 1171.96, 0.0473797, NaN, NaN, NaN, 0.0347922, "- N/A -   "
28.41, 1174.59, 0.0474769, NaN, NaN, NaN, 0.0286883, "- N/A -   "
28.46, 1176.85, 0.0475602, NaN, NaN, NaN, 0.0286883, "- N/A -   "
28.51, 1179.24, 0.04764351, NaN, NaN, NaN, 0.0286883, "- N/A -   "
28.56, 1181.26, 0.04772126, NaN, NaN, NaN, 0.03112983, "- N/A -   "
28.61, 1183.411, 0.047799, NaN, NaN, NaN, 0.0347922, "- N/A -   "
28.66, 1185.796, 0.04788231, NaN, NaN, NaN, 0.0335714, "- N/A -   "
28.71, 1188.06, 0.0479656, NaN, NaN, NaN, 0.0335714, "- N/A -   "
28.76, 1190.09, 0.0480434, NaN, NaN, NaN, 0.0372337, "- N/A -   "
28.81, 1192, 0.04811278, NaN, NaN, NaN, 0.04211683, "- N/A -   "
28.86, 1194.263, 0.0481905, NaN, NaN, NaN, 0.0445584, "- N/A -   "
28.91, 1196.29, 0.0482683, NaN, NaN, NaN, 0.04699994, "- N/A -   "
28.96, 1199.03, 0.0483599, NaN, NaN, NaN, 0.0433376, "- N/A -   "
29.01, 1201.9, 0.0484599, NaN, NaN, NaN, 0.0372337, "- N/A -   "
29.06, 1204.4, 0.0485543, NaN, NaN, NaN, 0.0323506, "- N/A -   "
29.11, 1206.43, 0.0486293, NaN, NaN, NaN, 0.0347922, "- N/A -   "
29.16, 1208.57, 0.04870978, NaN, NaN, NaN, 0.0372337, "- N/A -   "
29.21, 1210.84, 0.04879031, NaN, NaN, NaN, 0.0384545, "- N/A -   "
29.26, 1213.34, 0.0488764, NaN, NaN, NaN, 0.0372337, "- N/A -   "
29.31, 1215.97, 0.04896802, NaN, NaN, NaN, 0.0335714, "- N/A -   "
29.36, 1218.11, 0.0490485, NaN, NaN, NaN, 0.0335714, "- N/A -   "
29.41, 1220.14, 0.04912352, NaN, NaN, NaN, 0.0372337, "- N/A -   "
29.46, 1222.168, 0.04919849, NaN, NaN, NaN, 0.04089605, "- N/A -   "
29.51, 1224.43, 0.0492762, NaN, NaN, NaN, 0.0433376, "- N/A -   "
29.56, 1226.938, 0.04936787, NaN, NaN, NaN, 0.0396753, "- N/A -   "
29.61, 1229.2, 0.0494512, NaN, NaN, NaN, 0.04089605, "- N/A -   "
29.66, 1231.83, 0.04954, NaN, NaN, NaN, 0.0372337, "- N/A -   "
29.71, 1234.33, 0.0496289, NaN, NaN, NaN, 0.0347922, "- N/A -   "
29.76, 1236.48, 0.0497094, NaN, NaN, NaN, 0.03601294, "- N/A -   "
29.81, 1238.744, 0.04979827, NaN, NaN, NaN, 0.0347922, "- N/A -   "
29.86, 1241.37, 0.0498871, NaN, NaN, NaN, 0.03112983, "- N/A -   "
29.91, 1243.87, 0.0499704, NaN, NaN, NaN, 0.03112983, "- N/A -   "
29.96, 1246.02, 0.05005095, NaN, NaN, NaN, 0.0323506, "- N/A -   "
30.01, 1248.4, 0.05013703, NaN, NaN, NaN, 0.03112983, "- N/A -   "
30.06, 1250.79, 0.0502231, NaN, NaN, NaN, 0.0299091, "- N/A -   "
30.11, 1252.93, 0.0503036, NaN, NaN, NaN, 0.0323506, "- N/A -   "
30.16, 1254.843, 0.05037583, NaN, NaN, NaN, 0.03601294, "- N/A -   "
30.21, 1257.11, 0.05045358, NaN, NaN, NaN, 0.0384545, "- N/A -   "
30.26, 1259.14, 0.0505286, NaN, NaN, NaN, 0.0433376, "- N/A -   "
30.31, 1261.28, 0.0506063, NaN, NaN, NaN, 0.0445584, "- N/A -   "
30.36, 1263.67, 0.0506924, NaN, NaN, NaN, 0.0445584, "- N/A -   "
30.41, 1266.65, 0.0507923, NaN, NaN, NaN, 0.0372337, "- N/A -   "
30.46, 1269.034, 0.0508812, NaN, NaN, NaN, 0.0335714, "- N/A -   "
30.51, 1271.419, 0.0509645, NaN, NaN, NaN, 0.0335714, "- N/A -   "
30.56, 1273.57, 0.05104503, NaN, NaN, NaN, 0.03601294, "- N/A -   "
30.61, 1276.07, 0.0511339, NaN, NaN, NaN, 0.0335714, "- N/A -   "
30.66, 1278.69, 0.05122552, NaN, NaN, NaN, 0.0286883, "- N/A -   "
30.71, 1280.84, 0.0513088, NaN, NaN, NaN, 0.0299091, "- N/A -   "
30.76, 1282.87, 0.051381, NaN, NaN, NaN, 0.0335714, "- N/A -   "
30.81, 1285.01, 0.05145877, NaN, NaN, NaN, 0.0372337, "- N/A -   "
30.86, 1286.8, 0.0515254, NaN, NaN, NaN, 0.0445584, "- N/A -   "
30.91, 1288.83, 0.05160038, NaN, NaN, NaN, 0.0482207, "- N/A -   "
30.96, 1291.1, 0.0516837, NaN, NaN, NaN, 0.0494415, "- N/A -   "
31.01, 1293.72, 0.05177254, NaN, NaN, NaN, 0.04577916, "- N/A -   "
31.06, 1296.34, 0.0518697, NaN, NaN, NaN, 0.04089605, "- N/A -   "
31.11, 1299.2, 0.05196691, NaN, NaN, NaN, 0.0335714, "- N/A -   "
31.16, 1301.59, 0.05205299, NaN, NaN, NaN, 0.0335714, "- N/A -   "
31.21, 1303.97, 0.0521418, NaN, NaN, NaN, 0.03112983, "- N/A -   "
31.26, 1306.48, 0.0522307, NaN, NaN, NaN, 0.0274675, "- N/A -   "
31.31, 1308.86, 0.052314, NaN, NaN, NaN, 0.0286883, "- N/A -   "
31.36, 1311.01, 0.05239453, NaN, NaN, NaN, 0.0286883, "- N/A -   "
31.41, 1313.038, 0.0524695, NaN, NaN, NaN, 0.0323506, "- N/A -   "
31.46, 1315.18, 0.0525417, NaN, NaN, NaN, 0.0372337, "- N/A -   "
31.51, 1317.09, 0.05261667, NaN, NaN, NaN, 0.04089605, "- N/A -   "
31.56, 1319.36, 0.0526972, NaN, NaN, NaN, 0.04211683, "- N/A -   "
31.61, 1321.39, 0.05277217, NaN, NaN, NaN, 0.04577916, "- N/A -   "
31.66, 1323.65, 0.05284992, NaN, NaN, NaN, 0.0482207, "- N/A -   "
31.71, 1326.04, 0.052936, NaN, NaN, NaN, 0.04699994, "- N/A -   "
31.76, 1328.54, 0.05302763, NaN, NaN, NaN, 0.0433376, "- N/A -   "
31.81, 1331.522, 0.0531304, NaN, NaN, NaN, 0.0347922, "- N/A -   "
31.86, 1334.03, 0.053222, NaN, NaN, NaN, 0.03112983, "- N/A -   "
31.91, 1336.17, 0.05330253, NaN, NaN, NaN, 0.0323506, "- N/A -   "
31.96, 1338.68, 0.05338583, NaN, NaN, NaN, 0.0323506, "- N/A -   "
32.01, 1340.82, 0.0534636, NaN, NaN, NaN, 0.0347922, "- N/A -   "
32.06, 1342.97, 0.0535441, NaN, NaN, NaN, 0.03601294, "- N/A -   "
32.11, 1345.236, 0.0536246, NaN, NaN, NaN, 0.0372337, "- N/A -   "
32.16, 1347.62, 0.0537079, NaN, NaN, NaN, 0.0372337, "- N/A -   "
32.21, 1349.529, 0.05378013, NaN, NaN, NaN, 0.04211683, "- N/A -   "
32.26, 1351.68, 0.05385788, NaN, NaN, NaN, 0.04577916, "- N/A -   "
32.31, 1353.94, 0.0539384, NaN, NaN, NaN, 0.04577916, "- N/A -   "
32.36, 1356.565, 0.05403004, NaN, NaN, NaN, 0.0433376, "- N/A -   "
32.41, 1359.43, 0.0541272, NaN, NaN, NaN, 0.03601294, "- N/A -   "
32.46, 1362.17, 0.05422441, NaN, NaN, NaN, 0.0299091, "- N/A -   "
32.51, 1364.44, 0.05431049, NaN, NaN, NaN, 0.0286883, "- N/A -   "
32.56, 1366.7, 0.05438824, NaN, NaN, NaN, 0.03112983, "- N/A -   "
32.61, 1368.85, 0.0544688, NaN, NaN, NaN, 0.0335714, "- N/A -   "
32.66, 1371.23, 0.0545521, NaN, NaN, NaN, 0.0323506, "- N/A -   "
32.71, 1373.74, 0.0546381, NaN, NaN, NaN, 0.03112983, "- N/A -   "
32.76, 1375.76, 0.0547159, NaN, NaN, NaN, 0.0335714, "- N/A -   "
32.81, 1377.911, 0.0547909, NaN, NaN, NaN, 0.0372337, "- N/A -   "
32.86, 1379.94, 0.05486862, NaN, NaN, NaN, 0.0396753, "- N/A -   "
32.91, 1382.2, 0.0549491, NaN, NaN, NaN, 0.04089605, "- N/A -   "
32.96, 1384.47, 0.05503522, NaN, NaN, NaN, 0.04089605, "- N/A -   "
33.01, 1386.97, 0.0551185, NaN, NaN, NaN, 0.0396753, "- N/A -   "
33.06, 1389.24, 0.05520183, NaN, NaN, NaN, 0.04089605, "- N/A -   "
33.11, 1391.625, 0.0552879, NaN, NaN, NaN, 0.0396753, "- N/A -   "
33.16, 1394.25, 0.05537676, NaN, NaN, NaN, 0.03601294, "- N/A -   "
33.21, 1396.63, 0.05546284, NaN, NaN, NaN, 0.03601294, "- N/A -   "
33.26, 1399.02, 0.0555461, NaN, NaN, NaN, 0.0347922, "- N/A -   "
33.31, 1401.28, 0.0556294, NaN, NaN, NaN, 0.0347922, "- N/A -   "
33.36, 1403.431, 0.05570997, NaN, NaN, NaN, 0.03601294, "- N/A -   "
33.41, 1405.816, 0.0557933, NaN, NaN, NaN, 0.03601294, "- N/A -   "
33.46, 1408.2, 0.0558821, NaN, NaN, NaN, 0.0347922, "- N/A -   "
33.51, 1410.586, 0.0559654, NaN, NaN, NaN, 0.0335714, "- N/A -   "
33.56, 1412.61, 0.0560432, NaN, NaN, NaN, 0.0372337, "- N/A -   "
33.61, 1414.88, 0.0561182, NaN, NaN, NaN, 0.0396753, "- N/A -   "
33.66, 1416.91, 0.0561959, NaN, NaN, NaN, 0.0433376, "- N/A -   "
33.71, 1419.17, 0.05627643, NaN, NaN, NaN, 0.0433376, "- N/A -   "
33.76, 1421.56, 0.0563597, NaN, NaN, NaN, 0.0433376, "- N/A -   "
33.81, 1424.42, 0.0564569, NaN, NaN, NaN, 0.0372337, "- N/A -   "
33.86, 1427.04, 0.05655133, NaN, NaN, NaN, 0.0323506, "- N/A -   "
33.91, 1429.43, 0.0566402, NaN, NaN, NaN, 0.0299091, "- N/A -   "
33.96, 1431.57, 0.0567207, NaN, NaN, NaN, 0.0323506, "- N/A -   "
34.01, 1433.84, 0.0567985, NaN, NaN, NaN, 0.0335714, "- N/A -   "
34.06, 1436.34, 0.0568901, NaN, NaN, NaN, 0.0299091, "- N/A -   "
34.11, 1438.85, 0.05697617, NaN, NaN, NaN, 0.0299091, "- N/A -   "
34.16, 1440.76, 0.0570511, NaN, NaN, NaN, 0.0323506, "- N/A -   "
34.21, 1442.9, 0.0571261, NaN, NaN, NaN, 0.03601294, "- N/A -   "
34.26, 1444.93, 0.0572011, NaN, NaN, NaN, 0.0396753, "- N/A -   "
34.31, 1447.08, 0.05727606, NaN, NaN, NaN, 0.0433376, "- N/A -   "
34.36, 1449.22, 0.05735381, NaN, NaN, NaN, 0.04577916, "- N/A -   "
34.41, 1451.728, 0.0574454, NaN, NaN, NaN, 0.04211683, "- N/A -   "
34.46, 1454.23, 0.0575343, NaN, NaN, NaN, 0.04089605, "- N/A -   "
34.51, 1456.86, 0.0576259, NaN, NaN, NaN, 0.03601294, "- N/A -   "
34.56, 1459.24, 0.05771479, NaN, NaN, NaN, 0.0347922, "- N/A -   "
34.61, 1461.626, 0.05779809, NaN, NaN, NaN, 0.0347922, "- N/A -   "
34.66, 1464.13, 0.0578869, NaN, NaN, NaN, 0.03112983, "- N/A -   "
34.71, 1466.396, 0.057973, NaN, NaN, NaN, 0.03112983, "- N/A -   "
34.76, 1468.9, 0.0580591, NaN, NaN, NaN, 0.0286883, "- N/A -   "
34.81, 1471.05, 0.0581396, NaN, NaN, NaN, 0.0299091, "- N/A -   "
34.86, 1473.19, 0.05821183, NaN, NaN, NaN, 0.0347922, "- N/A -   "
34.91, 1474.86, 0.0582812, NaN, NaN, NaN, 0.04089605, "- N/A -   "
34.96, 1477.13, 0.05836177, NaN, NaN, NaN, 0.04211683, "- N/A -   "
35.01, 1479.39, 0.05844507, NaN, NaN, NaN, 0.04211683, "- N/A -   "
35.06, 1481.78, 0.0585312, NaN, NaN, NaN, 0.04089605, "- N/A -   "
35.11, 1484.28, 0.0586172, NaN, NaN, NaN, 0.0396753, "- N/A -   "
35.16, 1486.55, 0.0587005, NaN, NaN, NaN, 0.0396753, "- N/A -   "
35.21, 1489.53, 0.0588005, NaN, NaN, NaN, 0.0323506, "- N/A -   "
35.26, 1492.15, 0.0588949, NaN, NaN, NaN, 0.0286883, "- N/A -   "
35.31, 1494.3, 0.0589782, NaN, NaN, NaN, 0.0299091, "- N/A -   "
35.36, 1496.57, 0.0590615, NaN, NaN, NaN, 0.0299091, "- N/A -   "
35.41, 1498.71, 0.0591365, NaN, NaN, NaN, 0.0335714, "- N/A -   "
35.46, 1500.86, 0.0592142, NaN, NaN, NaN, 0.0347922, "- N/A -   "
35.51, 1503.01, 0.059292, NaN, NaN, NaN, 0.0372337, "- N/A -   "
35.56, 1505.27, 0.0593753, NaN, NaN, NaN, 0.0372337, "- N/A -   "
35.61, 1507.538, 0.059453, NaN, NaN, NaN, 0.04089605, "- N/A -   "
35.66, 1509.57, 0.059528, NaN, NaN, NaN, 0.0445584, "- N/A -   "
35.71, 1511.71, 0.059603, NaN, NaN, NaN, 0.04699994, "- N/A -   "
35.76, 1514.216, 0.05969461, NaN, NaN, NaN, 0.0445584, "- N/A -   "
35.81, 1517.078, 0.0597946, NaN, NaN, NaN, 0.03601294, "- N/A -   "
35.86, 1519.58, 0.0598779, NaN, NaN, NaN, 0.03601294, "- N/A -   "
35.91, 1521.85, 0.0599667, NaN, NaN, NaN, 0.0347922, "- N/A -   "
35.96, 1523.99, 0.06004448, NaN, NaN, NaN, 0.03601294, "- N/A -   "
36.01, 1526.14, 0.0601195, NaN, NaN, NaN, 0.0396753, "- N/A -   "
36.06, 1528.53, 0.06020553, NaN, NaN, NaN, 0.0396753, "- N/A -   "
36.11, 1531.15, 0.0602972, NaN, NaN, NaN, 0.03601294, "- N/A -   "
36.16, 1533.53, 0.0603832, NaN, NaN, NaN, 0.0335714, "- N/A -   "
36.21, 1535.8, 0.060461, NaN, NaN, NaN, 0.03601294, "- N/A -   "
36.26, 1537.83, 0.0605387, NaN, NaN, NaN, 0.0384545, "- N/A -   "
36.31, 1539.97, 0.0606165, NaN, NaN, NaN, 0.04089605, "- N/A -   "
36.36, 1542.24, 0.0606998, NaN, NaN, NaN, 0.04089605, "- N/A -   "
36.41, 1544.506, 0.0607859, NaN, NaN, NaN, 0.04089605, "- N/A -   "
36.46, 1547.01, 0.0608692, NaN, NaN, NaN, 0.0396753, "- N/A -   "
36.51, 1549.51, 0.06096081, NaN, NaN, NaN, 0.03601294, "- N/A -   "
36.56, 1551.9, 0.06104411, NaN, NaN, NaN, 0.03601294, "- N/A -   "
36.61, 1554.05, 0.0611274, NaN, NaN, NaN, 0.0372337, "- N/A -   "
36.66, 1556.55, 0.0612163, NaN, NaN, NaN, 0.0347922, "- N/A -   "
36.71, 1558.94, 0.0613024, NaN, NaN, NaN, 0.0335714, "- N/A -   "
36.76, 1561.32, 0.0613857, NaN, NaN, NaN, 0.0323506, "- N/A -   "
36.81, 1563.59, 0.061469, NaN, NaN, NaN, 0.0323506, "- N/A -   "
36.86, 1565.852, 0.0615467, NaN, NaN, NaN, 0.0347922, "- N/A -   "
36.91, 1568.24, 0.0616328, NaN, NaN, NaN, 0.0335714, "- N/A -   "
36.96, 1570.38, 0.0617105, NaN, NaN, NaN, 0.03601294, "- N/A -   "
37.01, 1572.41, 0.0617855, NaN, NaN, NaN, 0.0396753, "- N/A -   "
37.06, 1574.56, 0.0618633, NaN, NaN, NaN, 0.04211683, "- N/A -   "
37.11, 1576.82, 0.06194378, NaN, NaN, NaN, 0.0433376, "- N/A -   "
37.16, 1579.09, 0.06202708, NaN, NaN, NaN, 0.0433376, "- N/A -   "
37.21, 1581.59, 0.0621187, NaN, NaN, NaN, 0.0396753, "- N/A -   "
37.26, 1584.1, 0.0622076, NaN, NaN, NaN, 0.0372337, "- N/A -   "
37.31, 1586.72, 0.0622992, NaN, NaN, NaN, 0.0347922, "- N/A -   "
37.36, 1589.11, 0.0623853, NaN, NaN, NaN, 0.0335714, "- N/A -   "
37.41, 1591.25, 0.06246303, NaN, NaN, NaN, 0.0347922, "- N/A -   "
37.46, 1593.64, 0.0625491, NaN, NaN, NaN, 0.0347922, "- N/A -   "
37.51, 1596.14, 0.06263519, NaN, NaN, NaN, 0.0323506, "- N/A -   "
37.56, 1598.408, 0.0627213, NaN, NaN, NaN, 0.0323506, "- N/A -   "
37.61, 1600.55, 0.06279624, NaN, NaN, NaN, 0.0347922, "- N/A -   "
37.66, 1602.34, 0.06287121, NaN, NaN, NaN, 0.0396753, "- N/A -   "
37.71, 1604.25, 0.0629406, NaN, NaN, NaN, 0.0445584, "- N/A -   "
37.76, 1606.64, 0.06302116, NaN, NaN, NaN, 0.04699994, "- N/A -   "
37.81, 1609.02, 0.06310724, NaN, NaN, NaN, 0.0445584, "- N/A -   "
37.86, 1611.76, 0.06320165, NaN, NaN, NaN, 0.04089605, "- N/A -   "
37.91, 1614.39, 0.06329606, NaN, NaN, NaN, 0.0347922, "- N/A -   "
37.96, 1616.77, 0.06338214, NaN, NaN, NaN, 0.0335714, "- N/A -   "
38.01, 1619.28, 0.063471, NaN, NaN, NaN, 0.03112983, "- N/A -   "
38.06, 1621.9, 0.0635626, NaN, NaN, NaN, 0.0274675, "- N/A -   "
38.11, 1624.17, 0.06364593, NaN, NaN, NaN, 0.0274675, "- N/A -   "
38.16, 1626.31, 0.0637265, NaN, NaN, NaN, 0.0286883, "- N/A -   "
38.21, 1628.46, 0.0638042, NaN, NaN, NaN, 0.03112983, "- N/A -   "
38.26, 1630.25, 0.06387363, NaN, NaN, NaN, 0.0372337, "- N/A -   "
38.31, 1632.28, 0.06394582, NaN, NaN, NaN, 0.04211683, "- N/A -   "
38.36, 1634.422, 0.06402357, NaN, NaN, NaN, 0.0445584, "- N/A -   "
38.41, 1636.807, 0.0641096, NaN, NaN, NaN, 0.0445584, "- N/A -   "
38.46, 1639.07, 0.06419295, NaN, NaN, NaN, 0.0433376, "- N/A -   "
38.51, 1641.46, 0.06427903, NaN, NaN, NaN, 0.04211683, "- N/A -   "
38.56, 1644.08, 0.06436788, NaN, NaN, NaN, 0.0396753, "- N/A -   "
38.61, 1646.59, 0.06445952, NaN, NaN, NaN, 0.03601294, "- N/A -   "
38.66, 1649.21, 0.06455393, NaN, NaN, NaN, 0.03112983, "- N/A -   "
38.71, 1651.71, 0.06464279, NaN, NaN, NaN, 0.0286883, "- N/A -   "
38.76, 1653.86, 0.0647261, NaN, NaN, NaN, 0.0286883, "- N/A -   "
38.81, 1655.89, 0.0647955, NaN, NaN, NaN, 0.0347922, "- N/A -   "
38.86, 1657.91, 0.06487048, NaN, NaN, NaN, 0.0384545, "- N/A -   "
38.91, 1660.3, 0.06495378, NaN, NaN, NaN, 0.0396753, "- N/A -   "
38.96, 1662.57, 0.06503986, NaN, NaN, NaN, 0.0384545, "- N/A -   "
39.01, 1664.83, 0.0651204, NaN, NaN, NaN, 0.0396753, "- N/A -   "
39.06, 1666.86, 0.06519258, NaN, NaN, NaN, 0.0433376, "- N/A -   "
39.11, 1669.01, 0.0652731, NaN, NaN, NaN, 0.0445584, "- N/A -   "
39.16, 1671.51, 0.06535641, NaN, NaN, NaN, 0.0445584, "- N/A -   "
39.21, 1674.25, 0.06545637, NaN, NaN, NaN, 0.0372337, "- N/A -   "
39.26, 1676.995, 0.06555355, NaN, NaN, NaN, 0.03112983, "- N/A -   "
39.31, 1679.38, 0.06564241, NaN, NaN, NaN, 0.0299091, "- N/A -   "
39.36, 1681.53, 0.06572016, NaN, NaN, NaN, 0.03112983, "- N/A -   "
39.41, 1683.67, 0.06580069, NaN, NaN, NaN, 0.0335714, "- N/A -   "
39.46, 1685.94, 0.0658812, NaN, NaN, NaN, 0.0335714, "- N/A -   "
39.51, 1688.56, 0.06597285, NaN, NaN, NaN, 0.0299091, "- N/A -   "
39.56, 1691.07, 0.0660617, NaN, NaN, NaN, 0.0274675, "- N/A -   "
39.61, 1692.97, 0.0661339, NaN, NaN, NaN, 0.0323506, "- N/A -   "
39.66, 1694.64, 0.06620054, NaN, NaN, NaN, 0.0396753, "- N/A -   "
39.71, 1696.55, 0.0662727, NaN, NaN, NaN, 0.0445584, "- N/A -   "
39.76, 1698.82, 0.06635604, NaN, NaN, NaN, 0.0445584, "- N/A -   "
39.81, 1701.44, 0.0664449, NaN, NaN, NaN, 0.04211683, "- N/A -   "
39.86, 1703.71, 0.0665282, NaN, NaN, NaN, 0.0433376, "- N/A -   "
39.91, 1705.97, 0.0666115, NaN, NaN, NaN, 0.0433376, "- N/A -   "
39.96, 1708.6, 0.06670591, NaN, NaN, NaN, 0.0396753, "- N/A -   "
40.01, 1710.98, 0.06679477, NaN, NaN, NaN, 0.0372337, "- N/A -   "
40.06, 1713.49, 0.0668781, NaN, NaN, NaN, 0.03601294, "- N/A -   "
40.11, 1715.99, 0.0669697, NaN, NaN, NaN, 0.0335714, "- N/A -   "
40.16, 1718.26, 0.0670558, NaN, NaN, NaN, 0.0323506, "- N/A -   "
40.21, 1720.52, 0.0671363, NaN, NaN, NaN, 0.0323506, "- N/A -   "
40.26, 1722.67, 0.06721406, NaN, NaN, NaN, 0.0347922, "- N/A -   "
40.31, 1724.93, 0.06730013, NaN, NaN, NaN, 0.0335714, "- N/A -   "
40.36, 1727.2, 0.06738066, NaN, NaN, NaN, 0.0347922, "- N/A -   "
40.41, 1729.108, 0.0674529, NaN, NaN, NaN, 0.0396753, "- N/A -   "
40.46, 1731.14, 0.06752782, NaN, NaN, NaN, 0.0445584, "- N/A -   "
40.51, 1733.28, 0.06760558, NaN, NaN, NaN, 0.04699994, "- N/A -   "
40.56, 1735.667, 0.0676917, NaN, NaN, NaN, 0.04577916, "- N/A -   "
40.61, 1738.05, 0.06777774, NaN, NaN, NaN, 0.0445584, "- N/A -   "
40.66, 1740.914, 0.06788048, NaN, NaN, NaN, 0.0347922, "- N/A -   "
40.71, 1743.54, 0.06797211, NaN, NaN, NaN, 0.03112983, "- N/A -   "
40.76, 1745.68, 0.06805541, NaN, NaN, NaN, 0.03112983, "- N/A -   "
40.768, 1746.04, 0.0680693, NaN, NaN, NaN, 0.03112983, "- N/A -   "