File: 2_Tensile_Data/Hamel_ForceTest_Bolt7_Test3.csv
Time, Load (lb), Position (in), AxialStrain (in), TransverseStrain (in), Auxiliary (), Control Out (V), Stress (psi)
0.0, 1.06153, 0.0, NaN, NaN, NaN, 0.106818, "- N/A -   "
0.01, 1.41537, 3.054427E-5, NaN, NaN, NaN, 0.104376, "- N/A -   "
0.02, 1.76921, 6.386529E-5, NaN, NaN, NaN, 0.09705182, "- N/A -   "
0.03, 2.241, 9.440956E-5, NaN, NaN, NaN, 0.09094793, "- N/A -   "
0.04, 2.712792, 0.0001194, NaN, NaN, NaN, 0.0872856, "- N/A -   "
0.05, 3.06663, 0.000147168, NaN, NaN, NaN, 0.08240249, "- N/A -   "
0.06, 3.42048, 0.000172159, NaN, NaN, NaN, 0.07874016, "- N/A -   "
0.07, 3.89227, 0.000199926, NaN, NaN, NaN, 0.07385705, "- N/A -   "
0.08, 4.36406, 0.000224917, NaN, NaN, NaN, 0.0701947, "- N/A -   "
0.09, 4.717899, 0.000249908, NaN, NaN, NaN, 0.06653238, "- N/A -   "
0.1, 5.071741, 0.000274898, NaN, NaN, NaN, 0.06287005, "- N/A -   "
0.11, 5.66148, 2.998892E-4, NaN, NaN, NaN, 0.0592077, "- N/A -   "
0.12, 5.779426, 0.00032488, NaN, NaN, NaN, 0.0555454, "- N/A -   "
0.13, 6.251216, 0.000347094, NaN, NaN, NaN, 0.0531038, "- N/A -   "
0.14, 6.60506, 3.69308E-4, NaN, NaN, NaN, 0.05188305, "- N/A -   "
0.15, 6.9589, 0.000391522, NaN, NaN, NaN, 0.0494415, "- N/A -   "
0.16, 7.312743, 0.000410959, NaN, NaN, NaN, 0.04699994, "- N/A -   "
0.17, 7.784533, 4.331733E-4, NaN, NaN, NaN, 0.0445584, "- N/A -   "
0.18, 8.138375, 0.000452611, NaN, NaN, NaN, 0.0433376, "- N/A -   "
0.19, 8.492218, 4.720478E-4, NaN, NaN, NaN, 0.04211683, "- N/A -   "
0.2, 8.846061, 4.942618E-4, NaN, NaN, NaN, 0.0396753, "- N/A -   "
0.21, 9.199903, 5.164758E-4, NaN, NaN, NaN, 0.0372337, "- N/A -   "
0.22, 9.553744, 0.00053869, NaN, NaN, NaN, 0.0347922, "- N/A -   "
0.23, 9.907588, 5.581271E-4, NaN, NaN, NaN, 0.0335714, "- N/A -   "
0.24, 10.3794, 0.000577564, NaN, NaN, NaN, 0.0323506, "- N/A -   "
0.25, 10.73322, 0.000597002, NaN, NaN, NaN, 0.0323506, "- N/A -   "
0.26, 11.0871, 6.136621E-4, NaN, NaN, NaN, 0.03112983, "- N/A -   "
0.27, 11.323, 6.330994E-4, NaN, NaN, NaN, 0.0299091, "- N/A -   "
0.28, 11.6768, 0.000646983, NaN, NaN, NaN, 0.03112983, "- N/A -   "
0.29, 12.0306, 6.636437E-4, NaN, NaN, NaN, 0.03112983, "- N/A -   "
0.3, 12.2665, 6.830809E-4, NaN, NaN, NaN, 0.0299091, "- N/A -   "
0.31, 12.6204, 6.997415E-4, NaN, NaN, NaN, 0.0299091, "- N/A -   "
0.32, 12.9742, 0.000716402, NaN, NaN, NaN, 0.0299091, "- N/A -   "
0.33, 13.2101, 7.302857E-4, NaN, NaN, NaN, 0.03112983, "- N/A -   "
0.34, 13.564, 0.000746946, NaN, NaN, NaN, 0.03112983, "- N/A -   "
0.35, 13.9178, 0.000763607, NaN, NaN, NaN, 0.03112983, "- N/A -   "
0.36, 14.0357, 0.000780267, NaN, NaN, NaN, 0.03112983, "- N/A -   "
0.37, 14.3896, 0.000794151, NaN, NaN, NaN, 0.0323506, "- N/A -   "
0.38, 14.7434, 8.080348E-4, NaN, NaN, NaN, 0.0335714, "- N/A -   "
0.39, 14.9793, 8.246953E-4, NaN, NaN, NaN, 0.0335714, "- N/A -   "
0.4, 15.3332, 8.38579E-4, NaN, NaN, NaN, 0.0347922, "- N/A -   "
0.41, 15.5691, 8.552396E-4, NaN, NaN, NaN, 0.03601294, "- N/A -   "
0.43, 16.1588, 8.830071E-4, NaN, NaN, NaN, 0.0372337, "- N/A -   "
0.45, 16.74854, 0.000913551, NaN, NaN, NaN, 0.0384545, "- N/A -   "
0.47, 17.2203, 0.000941319, NaN, NaN, NaN, 0.04211683, "- N/A -   "
0.49, 17.928, 0.000971863, NaN, NaN, NaN, 0.04211683, "- N/A -   "
0.51, 18.5178, 9.996307E-4, NaN, NaN, NaN, 0.0445584, "- N/A -   "
0.53, 18.9895, 0.0010274, NaN, NaN, NaN, 0.04699994, "- N/A -   "
0.55, 19.6972, 0.001063496, NaN, NaN, NaN, 0.04577916, "- N/A -   "
0.57, 20.52286, 0.001096817, NaN, NaN, NaN, 0.04577916, "- N/A -   "
0.59, 21.1126, 0.001130138, NaN, NaN, NaN, 0.04577916, "- N/A -   "
0.61, 21.8203, 0.001163459, NaN, NaN, NaN, 0.04577916, "- N/A -   "
0.63, 22.528, 0.001194, NaN, NaN, NaN, 0.04699994, "- N/A -   "
0.65, 23.1177, 0.00122732, NaN, NaN, NaN, 0.04699994, "- N/A -   "
0.67, 23.82539, 0.00126065, NaN, NaN, NaN, 0.04699994, "- N/A -   "
0.69, 24.65102, 0.001296743, NaN, NaN, NaN, 0.04699994, "- N/A -   "
0.71, 25.4767, 0.00133284, NaN, NaN, NaN, 0.0445584, "- N/A -   "
0.73, 26.3023, 0.00136894, NaN, NaN, NaN, 0.0433376, "- N/A -   "
0.75, 27.1279, 0.00141059, NaN, NaN, NaN, 0.0396753, "- N/A -   "
0.77, 27.95355, 0.00145224, NaN, NaN, NaN, 0.03601294, "- N/A -   "
0.79, 28.7792, 0.00149112, NaN, NaN, NaN, 0.0335714, "- N/A -   "
0.81, 29.7228, 0.00152999, NaN, NaN, NaN, 0.03112983, "- N/A -   "
0.83, 30.5484, 0.00156609, NaN, NaN, NaN, 0.0299091, "- N/A -   "
0.85, 31.2561, 0.00160219, NaN, NaN, NaN, 0.0299091, "- N/A -   "
0.87, 32.08171, 0.00163551, NaN, NaN, NaN, 0.0286883, "- N/A -   "
0.89, 32.9073, 0.0016716, NaN, NaN, NaN, 0.0274675, "- N/A -   "
0.91, 33.49708, 0.00170215, NaN, NaN, NaN, 0.0299091, "- N/A -   "
0.93, 34.2048, 0.00173269, NaN, NaN, NaN, 0.0299091, "- N/A -   "
0.95, 35.0304, 0.00176324, NaN, NaN, NaN, 0.03112983, "- N/A -   "
0.97, 35.6201, 0.00179378, NaN, NaN, NaN, 0.0323506, "- N/A -   "
0.99, 36.44577, 0.0018271, NaN, NaN, NaN, 0.0323506, "- N/A -   "
1.01, 37.0355, 0.001857647, NaN, NaN, NaN, 0.0335714, "- N/A -   "
1.03, 37.8611, 0.00188819, NaN, NaN, NaN, 0.0347922, "- N/A -   "
1.05, 38.4509, 0.00192151, NaN, NaN, NaN, 0.0347922, "- N/A -   "
1.07, 39.2765, 0.00195206, NaN, NaN, NaN, 0.03601294, "- N/A -   "
1.09, 40.10214, 0.00198538, NaN, NaN, NaN, 0.03601294, "- N/A -   "
1.11, 40.9278, 0.0020187, NaN, NaN, NaN, 0.03601294, "- N/A -   "
1.13, 41.6355, 0.00205202, NaN, NaN, NaN, 0.03601294, "- N/A -   "
1.15, 42.3431, 0.002082564, NaN, NaN, NaN, 0.0372337, "- N/A -   "
1.17, 43.0508, 0.00211033, NaN, NaN, NaN, 0.0396753, "- N/A -   "
1.19, 43.75851, 0.00214088, NaN, NaN, NaN, 0.04211683, "- N/A -   "
1.21, 44.34825, 0.002168643, NaN, NaN, NaN, 0.0433376, "- N/A -   "
1.23, 45.05593, 0.00219919, NaN, NaN, NaN, 0.0445584, "- N/A -   "
1.25, 45.9995, 0.00223251, NaN, NaN, NaN, 0.0445584, "- N/A -   "
1.27, 46.7072, 0.00226583, NaN, NaN, NaN, 0.0445584, "- N/A -   "
1.29, 47.5328, 0.00229915, NaN, NaN, NaN, 0.0445584, "- N/A -   "
1.31, 48.2405, 0.00233247, NaN, NaN, NaN, 0.0445584, "- N/A -   "
1.33, 49.0661, 0.00236857, NaN, NaN, NaN, 0.0433376, "- N/A -   "
1.35, 50.0097, 0.00240744, NaN, NaN, NaN, 0.04089605, "- N/A -   "
1.37, 50.9533, 0.0024491, NaN, NaN, NaN, 0.0384545, "- N/A -   "
1.39, 51.89689, 0.00248519, NaN, NaN, NaN, 0.03601294, "- N/A -   "
1.41, 52.72252, 0.00252129, NaN, NaN, NaN, 0.0347922, "- N/A -   "
1.43, 53.6661, 0.00255739, NaN, NaN, NaN, 0.0335714, "- N/A -   "
1.45, 54.4917, 0.00259626, NaN, NaN, NaN, 0.03112983, "- N/A -   "
1.47, 55.3174, 0.00263236, NaN, NaN, NaN, 0.0299091, "- N/A -   "
1.49, 56.143, 0.0026629, NaN, NaN, NaN, 0.03112983, "- N/A -   "
1.51, 56.9686, 0.002696226, NaN, NaN, NaN, 0.03112983, "- N/A -   "
1.53, 57.6763, 0.00272677, NaN, NaN, NaN, 0.0323506, "- N/A -   "
1.55, 58.384, 0.00275731, NaN, NaN, NaN, 0.0335714, "- N/A -   "
1.57, 59.0917, 0.00279064, NaN, NaN, NaN, 0.0335714, "- N/A -   "
1.59, 60.0353, 0.00282396, NaN, NaN, NaN, 0.0335714, "- N/A -   "
1.61, 60.8609, 0.002854501, NaN, NaN, NaN, 0.0347922, "- N/A -   "
1.63, 61.6865, 0.002887822, NaN, NaN, NaN, 0.0347922, "- N/A -   "
1.65, 62.2763, 0.00292114, NaN, NaN, NaN, 0.0347922, "- N/A -   "
1.67, 63.1019, 0.002954464, NaN, NaN, NaN, 0.0347922, "- N/A -   "
1.69, 64.04548, 0.00299056, NaN, NaN, NaN, 0.0335714, "- N/A -   "
1.71, 64.87111, 0.00302666, NaN, NaN, NaN, 0.0323506, "- N/A -   "
1.73, 65.5788, 0.003057204, NaN, NaN, NaN, 0.0335714, "- N/A -   "
1.75, 66.2865, 0.003087748, NaN, NaN, NaN, 0.0347922, "- N/A -   "
1.77, 67.1121, 0.003121069, NaN, NaN, NaN, 0.03601294, "- N/A -   "
1.79, 67.70185, 0.00314884, NaN, NaN, NaN, 0.0372337, "- N/A -   "
1.81, 68.52748, 0.003179381, NaN, NaN, NaN, 0.0384545, "- N/A -   "
1.83, 69.35311, 0.003209925, NaN, NaN, NaN, 0.0396753, "- N/A -   "
1.85, 69.94285, 0.00324047, NaN, NaN, NaN, 0.04089605, "- N/A -   "
1.87, 70.7685, 0.003271014, NaN, NaN, NaN, 0.0433376, "- N/A -   "
1.89, 71.59412, 0.003301558, NaN, NaN, NaN, 0.0433376, "- N/A -   "
1.91, 72.41975, 0.00333488, NaN, NaN, NaN, 0.0433376, "- N/A -   "
1.93, 73.36333, 0.003370977, NaN, NaN, NaN, 0.04211683, "- N/A -   "
1.95, 74.3069, 0.003409851, NaN, NaN, NaN, 0.0396753, "- N/A -   "
1.97, 75.0146, 0.00344317, NaN, NaN, NaN, 0.0396753, "- N/A -   "
1.99, 75.95817, 0.00347649, NaN, NaN, NaN, 0.04089605, "- N/A -   "
2.01, 76.7838, 0.00350704, NaN, NaN, NaN, 0.04089605, "- N/A -   "
2.03, 77.6094, 0.00354036, NaN, NaN, NaN, 0.04089605, "- N/A -   "
2.05, 78.55301, 0.00357646, NaN, NaN, NaN, 0.0396753, "- N/A -   "
2.07, 79.4966, 0.00361255, NaN, NaN, NaN, 0.0384545, "- N/A -   "
2.09, 80.32223, 0.00364865, NaN, NaN, NaN, 0.0372337, "- N/A -   "
2.11, 81.14786, 0.003681973, NaN, NaN, NaN, 0.0372337, "- N/A -   "
2.13, 81.97349, 0.00371529, NaN, NaN, NaN, 0.0372337, "- N/A -   "
2.15, 82.91707, 0.00375139, NaN, NaN, NaN, 0.03601294, "- N/A -   "
2.17, 83.86065, 0.00378194, NaN, NaN, NaN, 0.0372337, "- N/A -   "
2.19, 84.56834, 0.00381803, NaN, NaN, NaN, 0.03601294, "- N/A -   "
2.21, 85.51192, 0.00385135, NaN, NaN, NaN, 0.03601294, "- N/A -   "
2.23, 86.33755, 0.00388745, NaN, NaN, NaN, 0.03601294, "- N/A -   "
2.25, 87.39908, 0.00392355, NaN, NaN, NaN, 0.0347922, "- N/A -   "
2.27, 88.34265, 0.00395687, NaN, NaN, NaN, 0.0335714, "- N/A -   "
2.29, 89.16828, 0.00399019, NaN, NaN, NaN, 0.0335714, "- N/A -   "
2.31, 89.87598, 0.00402351, NaN, NaN, NaN, 0.0335714, "- N/A -   "
2.33, 90.81956, 0.00405683, NaN, NaN, NaN, 0.0335714, "- N/A -   "
2.35, 91.52724, 0.00409016, NaN, NaN, NaN, 0.0347922, "- N/A -   "
2.37, 92.47082, 0.004123477, NaN, NaN, NaN, 0.0335714, "- N/A -   "
2.39, 93.41439, 0.00415957, NaN, NaN, NaN, 0.0323506, "- N/A -   "
2.41, 94.24, 0.0041929, NaN, NaN, NaN, 0.0323506, "- N/A -   "
2.43, 95.06567, 0.004228993, NaN, NaN, NaN, 0.0323506, "- N/A -   "
2.45, 96.00924, 0.00426231, NaN, NaN, NaN, 0.03112983, "- N/A -   "
2.47, 96.95282, 0.004298412, NaN, NaN, NaN, 0.0299091, "- N/A -   "
2.49, 97.8964, 0.00433451, NaN, NaN, NaN, 0.0299091, "- N/A -   "
2.51, 98.60408, 0.004365054, NaN, NaN, NaN, 0.0299091, "- N/A -   "
2.53, 99.3118, 0.00439004, NaN, NaN, NaN, 0.0335714, "- N/A -   "
2.55, 100.019, 0.00441504, NaN, NaN, NaN, 0.0372337, "- N/A -   "
2.57, 100.6092, 0.004442803, NaN, NaN, NaN, 0.0396753, "- N/A -   "
2.59, 101.435, 0.004473347, NaN, NaN, NaN, 0.04089605, "- N/A -   "
2.61, 102.3784, 0.004506668, NaN, NaN, NaN, 0.04089605, "- N/A -   "
2.63, 103.204, 0.00453721, NaN, NaN, NaN, 0.04211683, "- N/A -   "
2.65, 104.03, 0.004570534, NaN, NaN, NaN, 0.04211683, "- N/A -   "
2.67, 104.973, 0.004601078, NaN, NaN, NaN, 0.0433376, "- N/A -   "
2.69, 105.681, 0.004634399, NaN, NaN, NaN, 0.0445584, "- N/A -   "
2.71, 106.742, 0.004670497, NaN, NaN, NaN, 0.0433376, "- N/A -   "
2.73, 107.686, 0.004706594, NaN, NaN, NaN, 0.04211683, "- N/A -   "
2.75, 108.512, 0.00473714, NaN, NaN, NaN, 0.04211683, "- N/A -   "
2.77, 109.3373, 0.004770459, NaN, NaN, NaN, 0.04211683, "- N/A -   "
2.79, 110.399, 0.004809334, NaN, NaN, NaN, 0.0396753, "- N/A -   "
2.81, 111.46, 0.004845432, NaN, NaN, NaN, 0.0384545, "- N/A -   "
2.83, 112.522, 0.00488431, NaN, NaN, NaN, 0.03601294, "- N/A -   "
2.85, 113.465, 0.004923181, NaN, NaN, NaN, 0.0335714, "- N/A -   "
2.87, 114.2911, 0.004956502, NaN, NaN, NaN, 0.0335714, "- N/A -   "
2.89, 115.235, 0.00498982, NaN, NaN, NaN, 0.0335714, "- N/A -   "
2.91, 116.178, 0.00502592, NaN, NaN, NaN, 0.0335714, "- N/A -   "
2.93, 117.122, 0.00505924, NaN, NaN, NaN, 0.0323506, "- N/A -   "
2.95, 117.947, 0.00509256, NaN, NaN, NaN, 0.0335714, "- N/A -   "
2.97, 118.7731, 0.00512588, NaN, NaN, NaN, 0.0335714, "- N/A -   "
2.99, 119.599, 0.005156428, NaN, NaN, NaN, 0.0335714, "- N/A -   "
3.01, 120.424, 0.00519253, NaN, NaN, NaN, 0.0323506, "- N/A -   "
3.03, 121.486, 0.00522585, NaN, NaN, NaN, 0.0323506, "- N/A -   "
3.05, 122.429, 0.0052675, NaN, NaN, NaN, 0.0299091, "- N/A -   "
3.07, 123.491, 0.0053036, NaN, NaN, NaN, 0.0286883, "- N/A -   "
3.09, 124.317, 0.00533414, NaN, NaN, NaN, 0.0286883, "- N/A -   "
3.11, 125.26, 0.00536746, NaN, NaN, NaN, 0.0286883, "- N/A -   "
3.13, 125.9679, 0.00539801, NaN, NaN, NaN, 0.0299091, "- N/A -   "
3.15, 126.676, 0.00542577, NaN, NaN, NaN, 0.0323506, "- N/A -   "
3.17, 127.619, 0.005459094, NaN, NaN, NaN, 0.0323506, "- N/A -   "
3.19, 128.4448, 0.00548964, NaN, NaN, NaN, 0.0347922, "- N/A -   "
3.21, 129.152, 0.00552018, NaN, NaN, NaN, 0.03601294, "- N/A -   "
3.23, 129.742, 0.00554517, NaN, NaN, NaN, 0.0384545, "- N/A -   "
3.25, 130.568, 0.00557294, NaN, NaN, NaN, 0.04089605, "- N/A -   "
3.27, 131.393, 0.00560071, NaN, NaN, NaN, 0.0433376, "- N/A -   "
3.29, 132.101, 0.00563125, NaN, NaN, NaN, 0.0445584, "- N/A -   "
3.31, 133.045, 0.00566457, NaN, NaN, NaN, 0.0445584, "- N/A -   "
3.33, 133.87, 0.00569512, NaN, NaN, NaN, 0.04577916, "- N/A -   "
3.35, 134.578, 0.005728439, NaN, NaN, NaN, 0.04699994, "- N/A -   "
3.37, 135.522, 0.00576176, NaN, NaN, NaN, 0.04577916, "- N/A -   "
3.39, 136.465, 0.005797858, NaN, NaN, NaN, 0.04577916, "- N/A -   "
3.41, 137.6447, 0.005836732, NaN, NaN, NaN, 0.04211683, "- N/A -   "
3.43, 138.706, 0.00587283, NaN, NaN, NaN, 0.04089605, "- N/A -   "
3.45, 139.65, 0.005908928, NaN, NaN, NaN, 0.0396753, "- N/A -   "
3.47, 140.475, 0.00594225, NaN, NaN, NaN, 0.0396753, "- N/A -   "
3.49, 141.537, 0.005981123, NaN, NaN, NaN, 0.0372337, "- N/A -   "
3.51, 142.481, 0.006014444, NaN, NaN, NaN, 0.0384545, "- N/A -   "
3.53, 143.542, 0.00605332, NaN, NaN, NaN, 0.03601294, "- N/A -   "
3.55, 144.368, 0.00608664, NaN, NaN, NaN, 0.03601294, "- N/A -   "
3.57, 145.193, 0.00612274, NaN, NaN, NaN, 0.03601294, "- N/A -   "
3.59, 146.137, 0.00615328, NaN, NaN, NaN, 0.03601294, "- N/A -   "
3.61, 147.198, 0.006192156, NaN, NaN, NaN, 0.0347922, "- N/A -   "
3.63, 148.142, 0.006228254, NaN, NaN, NaN, 0.0335714, "- N/A -   "
3.65, 148.968, 0.0062588, NaN, NaN, NaN, 0.0335714, "- N/A -   "
3.67, 149.911, 0.0062949, NaN, NaN, NaN, 0.0323506, "- N/A -   "
3.69, 150.973, 0.006330994, NaN, NaN, NaN, 0.03112983, "- N/A -   "
3.71, 151.916, 0.006367092, NaN, NaN, NaN, 0.0299091, "- N/A -   "
3.73, 152.978, 0.00640597, NaN, NaN, NaN, 0.0274675, "- N/A -   "
3.75, 153.8035, 0.00643651, NaN, NaN, NaN, 0.0286883, "- N/A -   "
3.77, 154.511, 0.006467055, NaN, NaN, NaN, 0.0299091, "- N/A -   "
3.79, 155.337, 0.006497599, NaN, NaN, NaN, 0.03112983, "- N/A -   "
3.81, 156.0445, 0.006525367, NaN, NaN, NaN, 0.0335714, "- N/A -   "
3.83, 156.87, 0.00655313, NaN, NaN, NaN, 0.03601294, "- N/A -   "
3.85, 157.578, 0.00658368, NaN, NaN, NaN, 0.0372337, "- N/A -   "
3.87, 158.403, 0.006614223, NaN, NaN, NaN, 0.0396753, "- N/A -   "
3.89, 159.111, 0.00664199, NaN, NaN, NaN, 0.04089605, "- N/A -   "
3.91, 159.937, 0.00667531, NaN, NaN, NaN, 0.04211683, "- N/A -   "
3.93, 160.7624, 0.00670586, NaN, NaN, NaN, 0.04211683, "- N/A -   "
3.95, 161.588, 0.00673362, NaN, NaN, NaN, 0.0445584, "- N/A -   "
3.97, 162.414, 0.006766944, NaN, NaN, NaN, 0.04577916, "- N/A -   "
3.99, 163.2393, 0.00680027, NaN, NaN, NaN, 0.04577916, "- N/A -   "
4.01, 164.183, 0.00683081, NaN, NaN, NaN, 0.04577916, "- N/A -   "
4.03, 165.009, 0.00686413, NaN, NaN, NaN, 0.04577916, "- N/A -   "
4.05, 166.07, 0.00689745, NaN, NaN, NaN, 0.04577916, "- N/A -   "
4.07, 166.896, 0.00693355, NaN, NaN, NaN, 0.0445584, "- N/A -   "
4.09, 167.839, 0.00696687, NaN, NaN, NaN, 0.0445584, "- N/A -   "
4.11, 168.901, 0.00700574, NaN, NaN, NaN, 0.04211683, "- N/A -   "
4.13, 169.726, 0.00703907, NaN, NaN, NaN, 0.04211683, "- N/A -   "
4.15, 170.67, 0.00707516, NaN, NaN, NaN, 0.04089605, "- N/A -   "
4.17, 171.614, 0.00711126, NaN, NaN, NaN, 0.0396753, "- N/A -   "
4.19, 172.6751, 0.007150136, NaN, NaN, NaN, 0.0372337, "- N/A -   "
4.21, 173.855, 0.00719179, NaN, NaN, NaN, 0.0335714, "- N/A -   "
4.23, 174.9161, 0.00722788, NaN, NaN, NaN, 0.0323506, "- N/A -   "
4.25, 175.86, 0.00726398, NaN, NaN, NaN, 0.03112983, "- N/A -   "
4.27, 176.803, 0.00730008, NaN, NaN, NaN, 0.0299091, "- N/A -   "
4.29, 177.629, 0.0073334, NaN, NaN, NaN, 0.0299091, "- N/A -   "
4.31, 178.455, 0.007366723, NaN, NaN, NaN, 0.0299091, "- N/A -   "
4.33, 179.3981, 0.007400044, NaN, NaN, NaN, 0.0299091, "- N/A -   "
4.35, 180.224, 0.00743336, NaN, NaN, NaN, 0.0299091, "- N/A -   "
4.37, 181.049, 0.00746391, NaN, NaN, NaN, 0.03112983, "- N/A -   "
4.39, 181.875, 0.007494453, NaN, NaN, NaN, 0.0323506, "- N/A -   "
4.41, 182.701, 0.007525, NaN, NaN, NaN, 0.0335714, "- N/A -   "
4.43, 183.408, 0.007555542, NaN, NaN, NaN, 0.0347922, "- N/A -   "
4.45, 184.116, 0.007586086, NaN, NaN, NaN, 0.03601294, "- N/A -   "
4.47, 185.178, 0.007619407, NaN, NaN, NaN, 0.03601294, "- N/A -   "
4.49, 185.885, 0.007652728, NaN, NaN, NaN, 0.03601294, "- N/A -   "
4.51, 186.711, 0.007686049, NaN, NaN, NaN, 0.03601294, "- N/A -   "
4.53, 187.536, 0.00771937, NaN, NaN, NaN, 0.03601294, "- N/A -   "
4.55, 188.48, 0.007752691, NaN, NaN, NaN, 0.0372337, "- N/A -   "
4.57, 189.188, 0.007780459, NaN, NaN, NaN, 0.0384545, "- N/A -   "
4.59, 189.895, 0.007811003, NaN, NaN, NaN, 0.0396753, "- N/A -   "
4.61, 190.721, 0.007841547, NaN, NaN, NaN, 0.04089605, "- N/A -   "
4.63, 191.429, 0.007872092, NaN, NaN, NaN, 0.0433376, "- N/A -   "
4.65, 192.254, 0.007899859, NaN, NaN, NaN, 0.0445584, "- N/A -   "
4.67, 193.08, 0.00793318, NaN, NaN, NaN, 0.0445584, "- N/A -   "
4.69, 193.906, 0.007966501, NaN, NaN, NaN, 0.04577916, "- N/A -   "
4.71, 194.849, 0.00799982, NaN, NaN, NaN, 0.0445584, "- N/A -   "
4.73, 195.911, 0.00803592, NaN, NaN, NaN, 0.0433376, "- N/A -   "
4.75, 196.736, 0.008072018, NaN, NaN, NaN, 0.04211683, "- N/A -   "
4.77, 197.798, 0.008108115, NaN, NaN, NaN, 0.04089605, "- N/A -   "
4.79, 198.741, 0.00814699, NaN, NaN, NaN, 0.0384545, "- N/A -   "
4.81, 199.803, 0.008183087, NaN, NaN, NaN, 0.0372337, "- N/A -   "
4.83, 200.7466, 0.008219185, NaN, NaN, NaN, 0.03601294, "- N/A -   "
4.85, 201.69, 0.008258061, NaN, NaN, NaN, 0.0335714, "- N/A -   "
4.87, 202.7517, 0.008296934, NaN, NaN, NaN, 0.03112983, "- N/A -   "
4.89, 203.695, 0.008333032, NaN, NaN, NaN, 0.0299091, "- N/A -   "
4.91, 204.521, 0.008366354, NaN, NaN, NaN, 0.0299091, "- N/A -   "
4.93, 205.2286, 0.008396897, NaN, NaN, NaN, 0.03112983, "- N/A -   "
4.95, 205.936, 0.008427442, NaN, NaN, NaN, 0.0323506, "- N/A -   "
4.97, 206.88, 0.008457987, NaN, NaN, NaN, 0.0335714, "- N/A -   "
4.99, 207.588, 0.008485753, NaN, NaN, NaN, 0.03601294, "- N/A -   "
5.01, 208.4132, 0.008516298, NaN, NaN, NaN, 0.0384545, "- N/A -   "
5.03, 209.121, 0.008549619, NaN, NaN, NaN, 0.0384545, "- N/A -   "
5.05, 210.064, 0.008582939, NaN, NaN, NaN, 0.0372337, "- N/A -   "
5.07, 210.89, 0.008616261, NaN, NaN, NaN, 0.0372337, "- N/A -   "
5.09, 211.9516, 0.008652358, NaN, NaN, NaN, 0.03601294, "- N/A -   "
5.11, 212.777, 0.008691234, NaN, NaN, NaN, 0.0335714, "- N/A -   "
5.13, 213.603, 0.008727331, NaN, NaN, NaN, 0.0335714, "- N/A -   "
5.15, 214.6644, 0.008760652, NaN, NaN, NaN, 0.0323506, "- N/A -   "
5.17, 215.49, 0.008793972, NaN, NaN, NaN, 0.0323506, "- N/A -   "
5.19, 216.198, 0.008824518, NaN, NaN, NaN, 0.0335714, "- N/A -   "
5.21, 217.023, 0.008855062, NaN, NaN, NaN, 0.0347922, "- N/A -   "
5.23, 217.849, 0.008885606, NaN, NaN, NaN, 0.03601294, "- N/A -   "
5.25, 218.557, 0.00891615, NaN, NaN, NaN, 0.0372337, "- N/A -   "
5.27, 219.264, 0.008943918, NaN, NaN, NaN, 0.0396753, "- N/A -   "
5.29, 220.09, 0.008974462, NaN, NaN, NaN, 0.04089605, "- N/A -   "
5.31, 220.916, 0.009007783, NaN, NaN, NaN, 0.04089605, "- N/A -   "
5.33, 221.859, 0.009041104, NaN, NaN, NaN, 0.04089605, "- N/A -   "
5.35, 222.685, 0.009074425, NaN, NaN, NaN, 0.04089605, "- N/A -   "
5.37, 223.3925, 0.009104969, NaN, NaN, NaN, 0.04211683, "- N/A -   "
5.39, 224.218, 0.009141067, NaN, NaN, NaN, 0.04089605, "- N/A -   "
5.41, 225.044, 0.009171611, NaN, NaN, NaN, 0.04211683, "- N/A -   "
5.43, 226.1053, 0.009210486, NaN, NaN, NaN, 0.04089605, "- N/A -   "
5.45, 227.049, 0.009246584, NaN, NaN, NaN, 0.0384545, "- N/A -   "
5.47, 227.875, 0.009282681, NaN, NaN, NaN, 0.0372337, "- N/A -   "
5.49, 228.936, 0.009321556, NaN, NaN, NaN, 0.03601294, "- N/A -   "
5.51, 229.762, 0.009354877, NaN, NaN, NaN, 0.03601294, "- N/A -   "
5.53, 230.705, 0.009388198, NaN, NaN, NaN, 0.03601294, "- N/A -   "
5.55, 231.413, 0.009421519, NaN, NaN, NaN, 0.03601294, "- N/A -   "
5.57, 232.239, 0.009452064, NaN, NaN, NaN, 0.03601294, "- N/A -   "
5.59, 233.0642, 0.009482607, NaN, NaN, NaN, 0.0372337, "- N/A -   "
5.61, 233.89, 0.009515929, NaN, NaN, NaN, 0.0372337, "- N/A -   "
5.63, 234.715, 0.009549249, NaN, NaN, NaN, 0.0372337, "- N/A -   "
5.65, 235.659, 0.009585347, NaN, NaN, NaN, 0.03601294, "- N/A -   "
5.67, 236.485, 0.009621446, NaN, NaN, NaN, 0.0347922, "- N/A -   "
5.69, 237.5462, 0.00966032, NaN, NaN, NaN, 0.0323506, "- N/A -   "
5.71, 238.49, 0.009693641, NaN, NaN, NaN, 0.0323506, "- N/A -   "
5.73, 239.197, 0.009729739, NaN, NaN, NaN, 0.0323506, "- N/A -   "
5.75, 240.141, 0.009765836, NaN, NaN, NaN, 0.03112983, "- N/A -   "
5.77, 240.967, 0.009796382, NaN, NaN, NaN, 0.03112983, "- N/A -   "
5.79, 241.674, 0.009829702, NaN, NaN, NaN, 0.0323506, "- N/A -   "
5.81, 242.5, 0.00985747, NaN, NaN, NaN, 0.0335714, "- N/A -   "
5.83, 243.207, 0.00989079, NaN, NaN, NaN, 0.0347922, "- N/A -   "
5.85, 244.032, 0.009924112, NaN, NaN, NaN, 0.0347922, "- N/A -   "
5.87, 244.857, 0.009957432, NaN, NaN, NaN, 0.0335714, "- N/A -   "
5.89, 245.799, 0.009990754, NaN, NaN, NaN, 0.0335714, "- N/A -   "
5.91, 246.742, 0.0100296, NaN, NaN, NaN, 0.0323506, "- N/A -   "
5.93, 247.4487, 0.0100574, NaN, NaN, NaN, 0.0335714, "- N/A -   "
5.95, 247.92, 0.0100852, NaN, NaN, NaN, 0.03601294, "- N/A -   "
5.97, 248.627, 0.0101157, NaN, NaN, NaN, 0.0372337, "- N/A -   "
5.99, 249.57, 0.0101463, NaN, NaN, NaN, 0.0384545, "- N/A -   "
6.01, 250.159, 0.01017402, NaN, NaN, NaN, 0.04089605, "- N/A -   "
6.03, 251.101, 0.0102101, NaN, NaN, NaN, 0.04089605, "- N/A -   "
6.05, 251.69, 0.0102407, NaN, NaN, NaN, 0.04089605, "- N/A -   "
6.07, 252.515, 0.0102684, NaN, NaN, NaN, 0.0433376, "- N/A -   "
6.09, 253.222, 0.01030175, NaN, NaN, NaN, 0.0445584, "- N/A -   "
6.11, 254.047, 0.0103323, NaN, NaN, NaN, 0.0445584, "- N/A -   "
6.13, 254.872, 0.0103656, NaN, NaN, NaN, 0.0445584, "- N/A -   "
6.15, 255.814, 0.0103989, NaN, NaN, NaN, 0.0445584, "- N/A -   "
6.17, 256.639, 0.010435, NaN, NaN, NaN, 0.0433376, "- N/A -   "
6.19, 257.4639, 0.0104711, NaN, NaN, NaN, 0.04211683, "- N/A -   "
6.21, 258.407, 0.01050723, NaN, NaN, NaN, 0.04089605, "- N/A -   "
6.23, 259.585, 0.0105461, NaN, NaN, NaN, 0.0384545, "- N/A -   "
6.25, 260.41, 0.010585, NaN, NaN, NaN, 0.03601294, "- N/A -   "
6.27, 261.352, 0.0106239, NaN, NaN, NaN, 0.0347922, "- N/A -   "
6.29, 262.295, 0.0106572, NaN, NaN, NaN, 0.0347922, "- N/A -   "
6.31, 263.12, 0.0106905, NaN, NaN, NaN, 0.0335714, "- N/A -   "
6.33, 263.944, 0.0107266, NaN, NaN, NaN, 0.0335714, "- N/A -   "
6.35, 264.769, 0.0107571, NaN, NaN, NaN, 0.0335714, "- N/A -   "
6.37, 265.476, 0.0107905, NaN, NaN, NaN, 0.0335714, "- N/A -   "
6.39, 266.183, 0.010821, NaN, NaN, NaN, 0.0347922, "- N/A -   "
6.41, 267.0078, 0.0108543, NaN, NaN, NaN, 0.0347922, "- N/A -   "
6.43, 267.95, 0.0108876, NaN, NaN, NaN, 0.0347922, "- N/A -   "
6.45, 268.7752, 0.0109237, NaN, NaN, NaN, 0.0335714, "- N/A -   "
6.47, 269.836, 0.0109626, NaN, NaN, NaN, 0.0323506, "- N/A -   "
6.49, 270.778, 0.0109987, NaN, NaN, NaN, 0.0299091, "- N/A -   "
6.51, 271.603, 0.0110348, NaN, NaN, NaN, 0.0286883, "- N/A -   "
6.53, 272.31, 0.0110681, NaN, NaN, NaN, 0.0299091, "- N/A -   "
6.55, 273.1348, 0.0110987, NaN, NaN, NaN, 0.0299091, "- N/A -   "
6.57, 273.96, 0.0111292, NaN, NaN, NaN, 0.03112983, "- N/A -   "
6.59, 274.549, 0.0111625, NaN, NaN, NaN, 0.0323506, "- N/A -   "
6.61, 275.373, 0.0111903, NaN, NaN, NaN, 0.0335714, "- N/A -   "
6.63, 275.963, 0.0112153, NaN, NaN, NaN, 0.0372337, "- N/A -   "
6.65, 276.67, 0.0112431, NaN, NaN, NaN, 0.0396753, "- N/A -   "
6.67, 277.2587, 0.0112736, NaN, NaN, NaN, 0.04089605, "- N/A -   "
6.69, 278.0835, 0.0113042, NaN, NaN, NaN, 0.04211683, "- N/A -   "
6.71, 278.908, 0.0113375, NaN, NaN, NaN, 0.0433376, "- N/A -   "
6.73, 279.497, 0.0113652, NaN, NaN, NaN, 0.0445584, "- N/A -   "
6.75, 280.322, 0.0113958, NaN, NaN, NaN, 0.04577916, "- N/A -   "
6.77, 281.0291, 0.0114263, NaN, NaN, NaN, 0.04699994, "- N/A -   "
6.79, 281.972, 0.0114624, NaN, NaN, NaN, 0.04699994, "- N/A -   "
6.81, 283.032, 0.0115013, NaN, NaN, NaN, 0.0445584, "- N/A -   "
6.83, 284.093, 0.0115402, NaN, NaN, NaN, 0.04089605, "- N/A -   "
6.85, 285.035, 0.0115791, NaN, NaN, NaN, 0.0384545, "- N/A -   "
6.87, 285.978, 0.0116179, NaN, NaN, NaN, 0.03601294, "- N/A -   "
6.89, 286.9204, 0.0116568, NaN, NaN, NaN, 0.0335714, "- N/A -   "
6.91, 287.7452, 0.0116901, NaN, NaN, NaN, 0.0335714, "- N/A -   "
6.93, 288.57, 0.0117234, NaN, NaN, NaN, 0.0335714, "- N/A -   "
6.95, 289.159, 0.011754, NaN, NaN, NaN, 0.0347922, "- N/A -   "
6.97, 289.8661, 0.0117818, NaN, NaN, NaN, 0.0372337, "- N/A -   "
6.99, 290.8087, 0.0118151, NaN, NaN, NaN, 0.0372337, "- N/A -   "
7.01, 291.516, 0.0118512, NaN, NaN, NaN, 0.03601294, "- N/A -   "
7.03, 292.458, 0.0118901, NaN, NaN, NaN, 0.0335714, "- N/A -   "
7.05, 293.519, 0.0119261, NaN, NaN, NaN, 0.0323506, "- N/A -   "
7.07, 294.343, 0.011965, NaN, NaN, NaN, 0.0299091, "- N/A -   "
7.09, 295.168, 0.0119983, NaN, NaN, NaN, 0.0299091, "- N/A -   "
7.11, 296.111, 0.0120344, NaN, NaN, NaN, 0.0286883, "- N/A -   "
7.13, 297.0535, 0.0120705, NaN, NaN, NaN, 0.0274675, "- N/A -   "
7.15, 297.76, 0.0121039, NaN, NaN, NaN, 0.0274675, "- N/A -   "
7.17, 298.467, 0.0121344, NaN, NaN, NaN, 0.0286883, "- N/A -   "
7.19, 299.174, 0.0121649, NaN, NaN, NaN, 0.03112983, "- N/A -   "
7.21, 299.8813, 0.0121927, NaN, NaN, NaN, 0.0323506, "- N/A -   "
7.23, 300.588, 0.0122205, NaN, NaN, NaN, 0.0347922, "- N/A -   "
7.25, 301.1774, 0.01225103, NaN, NaN, NaN, 0.03601294, "- N/A -   "
7.27, 302.0022, 0.0122816, NaN, NaN, NaN, 0.0384545, "- N/A -   "
7.29, 302.827, 0.0123121, NaN, NaN, NaN, 0.0396753, "- N/A -   "
7.31, 303.298, 0.0123427, NaN, NaN, NaN, 0.0396753, "- N/A -   "
7.33, 304.241, 0.0123732, NaN, NaN, NaN, 0.04089605, "- N/A -   "
7.35, 304.83, 0.0124065, NaN, NaN, NaN, 0.04211683, "- N/A -   "
7.37, 305.7726, 0.0124371, NaN, NaN, NaN, 0.04211683, "- N/A -   "
7.39, 306.597, 0.0124704, NaN, NaN, NaN, 0.04211683, "- N/A -   "
7.41, 307.422, 0.0125037, NaN, NaN, NaN, 0.04211683, "- N/A -   "
7.43, 308.129, 0.0125343, NaN, NaN, NaN, 0.0433376, "- N/A -   "
7.45, 308.9539, 0.0125648, NaN, NaN, NaN, 0.0445584, "- N/A -   "
7.47, 309.7787, 0.0126009, NaN, NaN, NaN, 0.0433376, "- N/A -   "
7.49, 310.486, 0.012637, NaN, NaN, NaN, 0.0433376, "- N/A -   "
7.51, 311.428, 0.0126703, NaN, NaN, NaN, 0.04211683, "- N/A -   "
7.53, 312.371, 0.0127064, NaN, NaN, NaN, 0.04089605, "- N/A -   "
7.55, 313.313, 0.0127453, NaN, NaN, NaN, 0.0384545, "- N/A -   "
7.57, 314.256, 0.0127869, NaN, NaN, NaN, 0.03601294, "- N/A -   "
7.59, 315.1987, 0.0128258, NaN, NaN, NaN, 0.0323506, "- N/A -   "
7.61, 316.259, 0.0128647, NaN, NaN, NaN, 0.0299091, "- N/A -   "
7.63, 317.084, 0.0129036, NaN, NaN, NaN, 0.0286883, "- N/A -   "
7.65, 317.9087, 0.0129369, NaN, NaN, NaN, 0.0274675, "- N/A -   "
7.67, 318.616, 0.0129674, NaN, NaN, NaN, 0.0286883, "- N/A -   "
7.69, 319.44, 0.0130008, NaN, NaN, NaN, 0.0286883, "- N/A -   "
7.71, 320.1474, 0.0130313, NaN, NaN, NaN, 0.0299091, "- N/A -   "
7.73, 320.854, 0.0130646, NaN, NaN, NaN, 0.0299091, "- N/A -   "
7.75, 321.5613, 0.0130952, NaN, NaN, NaN, 0.03112983, "- N/A -   "
7.77, 322.268, 0.0131257, NaN, NaN, NaN, 0.0323506, "- N/A -   "
7.79, 322.9752, 0.01315625, NaN, NaN, NaN, 0.0335714, "- N/A -   "
7.81, 323.8, 0.0131868, NaN, NaN, NaN, 0.0347922, "- N/A -   "
7.83, 324.507, 0.0132201, NaN, NaN, NaN, 0.0347922, "- N/A -   "
7.85, 325.332, 0.01325066, NaN, NaN, NaN, 0.0372337, "- N/A -   "
7.87, 326.0387, 0.013284, NaN, NaN, NaN, 0.0372337, "- N/A -   "
7.89, 326.863, 0.0133173, NaN, NaN, NaN, 0.03601294, "- N/A -   "
7.91, 327.8061, 0.0133534, NaN, NaN, NaN, 0.0347922, "- N/A -   "
7.93, 328.631, 0.0133867, NaN, NaN, NaN, 0.0347922, "- N/A -   "
7.95, 329.456, 0.01342, NaN, NaN, NaN, 0.0347922, "- N/A -   "
7.97, 330.1626, 0.0134534, NaN, NaN, NaN, 0.03601294, "- N/A -   "
7.99, 330.87, 0.0134811, NaN, NaN, NaN, 0.0372337, "- N/A -   "
8, 331.105, 0.013495, NaN, NaN, NaN, 0.0384545, "- N/A -   "
8.01, 331.4587, 0.0135089, NaN, NaN, NaN, 0.0396753, "- N/A -   "
8.04, 332.519, 0.0135533, NaN, NaN, NaN, 0.0433376, "- N/A -   "
8.07, 333.697, 0.0136033, NaN, NaN, NaN, 0.0433376, "- N/A -   "
8.1, 334.64, 0.0136477, NaN, NaN, NaN, 0.04577916, "- N/A -   "
8.13, 335.7, 0.0136922, NaN, NaN, NaN, 0.0482207, "- N/A -   "
8.16, 336.8787, 0.0137421, NaN, NaN, NaN, 0.0482207, "- N/A -   "
8.19, 338.2926, 0.0138032, NaN, NaN, NaN, 0.0433376, "- N/A -   "
8.22, 339.824, 0.0138671, NaN, NaN, NaN, 0.0372337, "- N/A -   "
8.25, 341.3561, 0.0139282, NaN, NaN, NaN, 0.0323506, "- N/A -   "
8.28, 342.652, 0.0139837, NaN, NaN, NaN, 0.0299091, "- N/A -   "
8.31, 343.5948, 0.0140309, NaN, NaN, NaN, 0.0323506, "- N/A -   "
8.34, 344.537, 0.0140726, NaN, NaN, NaN, 0.0347922, "- N/A -   "
8.37, 345.362, 0.0141142, NaN, NaN, NaN, 0.0384545, "- N/A -   "
8.4, 346.658, 0.0141614, NaN, NaN, NaN, 0.0396753, "- N/A -   "
8.43, 347.837, 0.0142142, NaN, NaN, NaN, 0.0396753, "- N/A -   "
8.46, 349.1326, 0.0142697, NaN, NaN, NaN, 0.03601294, "- N/A -   "
8.49, 350.5465, 0.01432804, NaN, NaN, NaN, 0.0335714, "- N/A -   "
8.52, 351.7248, 0.0143836, NaN, NaN, NaN, 0.03112983, "- N/A -   "
8.55, 353.1387, 0.0144336, NaN, NaN, NaN, 0.0299091, "- N/A -   "
8.58, 354.081, 0.014478, NaN, NaN, NaN, 0.0323506, "- N/A -   "
8.61, 355.0239, 0.0145224, NaN, NaN, NaN, 0.0347922, "- N/A -   "
8.64, 356.084, 0.0145668, NaN, NaN, NaN, 0.0372337, "- N/A -   "
8.67, 357.027, 0.0146113, NaN, NaN, NaN, 0.04089605, "- N/A -   "
8.7, 358.0874, 0.0146557, NaN, NaN, NaN, 0.04211683, "- N/A -   "
8.73, 359.383, 0.0147057, NaN, NaN, NaN, 0.04211683, "- N/A -   "
8.76, 360.562, 0.0147612, NaN, NaN, NaN, 0.04089605, "- N/A -   "
8.79, 361.976, 0.014814, NaN, NaN, NaN, 0.0396753, "- N/A -   "
8.82, 363.036, 0.0148612, NaN, NaN, NaN, 0.0396753, "- N/A -   "
8.85, 364.214, 0.0149112, NaN, NaN, NaN, 0.0396753, "- N/A -   "
8.88, 365.51, 0.0149639, NaN, NaN, NaN, 0.0384545, "- N/A -   "
8.91, 366.924, 0.0150195, NaN, NaN, NaN, 0.03601294, "- N/A -   "
8.94, 367.985, 0.01507221, NaN, NaN, NaN, 0.0347922, "- N/A -   "
8.97, 369.163, 0.0151194, NaN, NaN, NaN, 0.03601294, "- N/A -   "
9, 370.3413, 0.0151694, NaN, NaN, NaN, 0.03601294, "- N/A -   "
9.03, 371.52, 0.0152194, NaN, NaN, NaN, 0.03601294, "- N/A -   "
9.06, 372.6978, 0.0152721, NaN, NaN, NaN, 0.0347922, "- N/A -   "
9.09, 374.112, 0.0153277, NaN, NaN, NaN, 0.0323506, "- N/A -   "
9.12, 375.054, 0.0153749, NaN, NaN, NaN, 0.0335714, "- N/A -   "
9.15, 376.2326, 0.01542208, NaN, NaN, NaN, 0.0347922, "- N/A -   "
9.18, 377.4109, 0.0154693, NaN, NaN, NaN, 0.03601294, "- N/A -   "
9.21, 378.4713, 0.0155193, NaN, NaN, NaN, 0.03601294, "- N/A -   "
9.24, 379.65, 0.0155692, NaN, NaN, NaN, 0.0372337, "- N/A -   "
9.27, 380.828, 0.0156192, NaN, NaN, NaN, 0.03601294, "- N/A -   "
9.3, 382.124, 0.0156748, NaN, NaN, NaN, 0.0347922, "- N/A -   "
9.33, 383.302, 0.0157247, NaN, NaN, NaN, 0.0335714, "- N/A -   "
9.36, 384.127, 0.0157664, NaN, NaN, NaN, 0.0372337, "- N/A -   "
9.39, 385.423, 0.0158136, NaN, NaN, NaN, 0.0384545, "- N/A -   "
9.42, 386.4835, 0.01585803, NaN, NaN, NaN, 0.04089605, "- N/A -   "
9.45, 387.662, 0.0159108, NaN, NaN, NaN, 0.04089605, "- N/A -   "
9.48, 388.722, 0.0159552, NaN, NaN, NaN, 0.04211683, "- N/A -   "
9.51, 389.783, 0.0159996, NaN, NaN, NaN, 0.0445584, "- N/A -   "
9.54, 390.843, 0.01604685, NaN, NaN, NaN, 0.04577916, "- N/A -   "
9.57, 392.0213, 0.0160968, NaN, NaN, NaN, 0.04577916, "- N/A -   "
9.6, 393.435, 0.0161524, NaN, NaN, NaN, 0.0433376, "- N/A -   "
9.63, 395.085, 0.0162162, NaN, NaN, NaN, 0.0372337, "- N/A -   "
9.66, 396.499, 0.0162801, NaN, NaN, NaN, 0.0323506, "- N/A -   "
9.69, 397.677, 0.0163329, NaN, NaN, NaN, 0.0299091, "- N/A -   "
9.72, 398.855, 0.0163773, NaN, NaN, NaN, 0.0323506, "- N/A -   "
9.75, 399.68, 0.0164217, NaN, NaN, NaN, 0.0347922, "- N/A -   "
9.78, 400.858, 0.0164717, NaN, NaN, NaN, 0.0347922, "- N/A -   "
9.81, 402.154, 0.01652445, NaN, NaN, NaN, 0.0335714, "- N/A -   "
9.84, 403.4504, 0.01658, NaN, NaN, NaN, 0.03112983, "- N/A -   "
9.87, 404.747, 0.01663552, NaN, NaN, NaN, 0.0286883, "- N/A -   "
9.9, 406.0426, 0.0166911, NaN, NaN, NaN, 0.0262467, "- N/A -   "
9.93, 407.2209, 0.01673826, NaN, NaN, NaN, 0.0274675, "- N/A -   "
9.96, 408.2813, 0.0167855, NaN, NaN, NaN, 0.0286883, "- N/A -   "
9.99, 409.342, 0.0168299, NaN, NaN, NaN, 0.03112983, "- N/A -   "
10.02, 410.284, 0.0168715, NaN, NaN, NaN, 0.0347922, "- N/A -   "
10.05, 411.227, 0.0169132, NaN, NaN, NaN, 0.0384545, "- N/A -   "
10.08, 412.1696, 0.0169521, NaN, NaN, NaN, 0.0433376, "- N/A -   "
10.11, 413.23, 0.0169993, NaN, NaN, NaN, 0.0445584, "- N/A -   "
10.14, 414.29, 0.0170437, NaN, NaN, NaN, 0.04699994, "- N/A -   "
10.17, 415.587, 0.0170937, NaN, NaN, NaN, 0.04699994, "- N/A -   "
10.2, 416.765, 0.0171464, NaN, NaN, NaN, 0.04577916, "- N/A -   "
10.23, 418.061, 0.017202, NaN, NaN, NaN, 0.0445584, "- N/A -   "
10.26, 419.475, 0.0172575, NaN, NaN, NaN, 0.04211683, "- N/A -   "
10.29, 420.8887, 0.0173158, NaN, NaN, NaN, 0.0372337, "- N/A -   "
10.32, 422.3026, 0.0173741, NaN, NaN, NaN, 0.0335714, "- N/A -   "
10.35, 423.4809, 0.0174241, NaN, NaN, NaN, 0.0335714, "- N/A -   "
10.38, 424.659, 0.0174741, NaN, NaN, NaN, 0.0335714, "- N/A -   "
10.41, 425.8374, 0.01752408, NaN, NaN, NaN, 0.0335714, "- N/A -   "
10.44, 427.133, 0.01757684, NaN, NaN, NaN, 0.0323506, "- N/A -   "
10.47, 428.43, 0.0176324, NaN, NaN, NaN, 0.0299091, "- N/A -   "
10.5, 429.726, 0.0176824, NaN, NaN, NaN, 0.0299091, "- N/A -   "
10.53, 430.786, 0.0177323, NaN, NaN, NaN, 0.0299091, "- N/A -   "
10.56, 431.964, 0.0177795, NaN, NaN, NaN, 0.03112983, "- N/A -   "
10.59, 433.1426, 0.0178267, NaN, NaN, NaN, 0.0335714, "- N/A -   "
10.62, 434.0852, 0.017874, NaN, NaN, NaN, 0.0335714, "- N/A -   "
10.65, 435.2635, 0.01791838, NaN, NaN, NaN, 0.03601294, "- N/A -   "
10.68, 436.3239, 0.01796281, NaN, NaN, NaN, 0.0384545, "- N/A -   "
10.71, 437.267, 0.0180072, NaN, NaN, NaN, 0.04089605, "- N/A -   "
10.74, 438.327, 0.0180517, NaN, NaN, NaN, 0.0433376, "- N/A -   "
10.77, 439.3874, 0.0180989, NaN, NaN, NaN, 0.0445584, "- N/A -   "
10.8, 440.683, 0.0181516, NaN, NaN, NaN, 0.0433376, "- N/A -   "
10.83, 442.097, 0.0182044, NaN, NaN, NaN, 0.0433376, "- N/A -   "
10.86, 443.1578, 0.0182544, NaN, NaN, NaN, 0.04211683, "- N/A -   "
10.89, 444.3361, 0.01830435, NaN, NaN, NaN, 0.04211683, "- N/A -   "
10.92, 445.632, 0.01835433, NaN, NaN, NaN, 0.04211683, "- N/A -   "
10.95, 446.81, 0.01840709, NaN, NaN, NaN, 0.04089605, "- N/A -   "
10.98, 448.342, 0.0184654, NaN, NaN, NaN, 0.0372337, "- N/A -   "
11.01, 449.992, 0.0185265, NaN, NaN, NaN, 0.0323506, "- N/A -   "
11.04, 451.406, 0.0185848, NaN, NaN, NaN, 0.0286883, "- N/A -   "
11.07, 452.584, 0.0186376, NaN, NaN, NaN, 0.0274675, "- N/A -   "
11.1, 453.644, 0.0186848, NaN, NaN, NaN, 0.0286883, "- N/A -   "
11.13, 454.8226, 0.018732, NaN, NaN, NaN, 0.0299091, "- N/A -   "
11.16, 455.883, 0.0187792, NaN, NaN, NaN, 0.03112983, "- N/A -   "
11.19, 457.0613, 0.0188264, NaN, NaN, NaN, 0.0323506, "- N/A -   "
11.22, 458.2396, 0.0188764, NaN, NaN, NaN, 0.0335714, "- N/A -   "
11.25, 459.3, 0.0189236, NaN, NaN, NaN, 0.0335714, "- N/A -   "
11.28, 460.5961, 0.0189763, NaN, NaN, NaN, 0.0323506, "- N/A -   "
11.31, 461.892, 0.0190235, NaN, NaN, NaN, 0.0335714, "- N/A -   "
11.34, 463.07, 0.0190735, NaN, NaN, NaN, 0.0335714, "- N/A -   "
11.37, 464.131, 0.0191179, NaN, NaN, NaN, 0.03601294, "- N/A -   "
11.4, 465.0735, 0.0191624, NaN, NaN, NaN, 0.0384545, "- N/A -   "
11.43, 466.252, 0.019204, NaN, NaN, NaN, 0.04211683, "- N/A -   "
11.46, 467.3122, 0.019254, NaN, NaN, NaN, 0.04211683, "- N/A -   "
11.49, 468.608, 0.01930398, NaN, NaN, NaN, 0.04211683, "- N/A -   "
11.52, 469.6687, 0.0193484, NaN, NaN, NaN, 0.0445584, "- N/A -   "
11.55, 470.847, 0.0193984, NaN, NaN, NaN, 0.0445584, "- N/A -   "
11.58, 472.2609, 0.0194511, NaN, NaN, NaN, 0.0433376, "- N/A -   "
11.61, 473.7926, 0.0195122, NaN, NaN, NaN, 0.0384545, "- N/A -   "
11.64, 475.324, 0.0195733, NaN, NaN, NaN, 0.0335714, "- N/A -   "
11.67, 476.62, 0.0196289, NaN, NaN, NaN, 0.0323506, "- N/A -   "
11.7, 478.034, 0.0196816, NaN, NaN, NaN, 0.0299091, "- N/A -   "
11.73, 479.2126, 0.0197316, NaN, NaN, NaN, 0.0299091, "- N/A -   "
11.76, 480.037, 0.019776, NaN, NaN, NaN, 0.0323506, "- N/A -   "
11.79, 481.216, 0.0198205, NaN, NaN, NaN, 0.0347922, "- N/A -   "
11.82, 482.394, 0.0198677, NaN, NaN, NaN, 0.03601294, "- N/A -   "
11.85, 483.572, 0.0199149, NaN, NaN, NaN, 0.0372337, "- N/A -   "
11.88, 484.868, 0.0199648, NaN, NaN, NaN, 0.0372337, "- N/A -   "
11.91, 486.164, 0.02002038, NaN, NaN, NaN, 0.0347922, "- N/A -   "
11.94, 487.46, 0.0200731, NaN, NaN, NaN, 0.0335714, "- N/A -   "
11.97, 488.757, 0.0201231, NaN, NaN, NaN, 0.0335714, "- N/A -   "
12, 489.935, 0.0201731, NaN, NaN, NaN, 0.0335714, "- N/A -   "
12.03, 491.113, 0.0202203, NaN, NaN, NaN, 0.0347922, "- N/A -   "
12.06, 492.291, 0.0202647, NaN, NaN, NaN, 0.0372337, "- N/A -   "
12.09, 493.2339, 0.0203092, NaN, NaN, NaN, 0.0396753, "- N/A -   "
12.12, 494.53, 0.0203564, NaN, NaN, NaN, 0.04089605, "- N/A -   "
12.15, 495.708, 0.0204091, NaN, NaN, NaN, 0.04089605, "- N/A -   "
12.18, 497.004, 0.0204591, NaN, NaN, NaN, 0.0396753, "- N/A -   "
12.21, 498.3, 0.0205091, NaN, NaN, NaN, 0.0396753, "- N/A -   "
12.24, 499.5965, 0.0205646, NaN, NaN, NaN, 0.0384545, "- N/A -   "
12.27, 500.8926, 0.0206146, NaN, NaN, NaN, 0.0372337, "- N/A -   "
12.3, 502.1887, 0.0206674, NaN, NaN, NaN, 0.03601294, "- N/A -   "
12.33, 503.485, 0.0207173, NaN, NaN, NaN, 0.0372337, "- N/A -   "
12.36, 504.5452, 0.0207646, NaN, NaN, NaN, 0.0384545, "- N/A -   "
12.39, 505.723, 0.0208118, NaN, NaN, NaN, 0.0384545, "- N/A -   "
12.42, 507.1374, 0.0208645, NaN, NaN, NaN, 0.0372337, "- N/A -   "
12.45, 508.433, 0.02092005, NaN, NaN, NaN, 0.0347922, "- N/A -   "
12.48, 509.847, 0.02097836, NaN, NaN, NaN, 0.0323506, "- N/A -   "
12.51, 511.143, 0.02103112, NaN, NaN, NaN, 0.03112983, "- N/A -   "
12.54, 512.4396, 0.0210783, NaN, NaN, NaN, 0.03112983, "- N/A -   "
12.57, 513.6183, 0.0211255, NaN, NaN, NaN, 0.0335714, "- N/A -   "
12.6, 515.038, 0.0211811, NaN, NaN, NaN, 0.03112983, "- N/A -   "
12.63, 516.22, 0.021231, NaN, NaN, NaN, 0.03112983, "- N/A -   "
12.66, 517.403, 0.0212783, NaN, NaN, NaN, 0.0323506, "- N/A -   "
12.69, 518.586, 0.0213282, NaN, NaN, NaN, 0.0323506, "- N/A -   "
12.72, 520.005, 0.021381, NaN, NaN, NaN, 0.03112983, "- N/A -   "
12.75, 521.07, 0.0214254, NaN, NaN, NaN, 0.0335714, "- N/A -   "
12.78, 522.0162, 0.0214671, NaN, NaN, NaN, 0.0372337, "- N/A -   "
12.81, 523.199, 0.0215115, NaN, NaN, NaN, 0.0396753, "- N/A -   "
12.84, 524.382, 0.0215587, NaN, NaN, NaN, 0.04089605, "- N/A -   "
12.87, 525.446, 0.02160313, NaN, NaN, NaN, 0.0433376, "- N/A -   "
12.9, 526.629, 0.0216503, NaN, NaN, NaN, 0.0445584, "- N/A -   "
12.93, 527.812, 0.02169754, NaN, NaN, NaN, 0.04577916, "- N/A -   "
12.96, 529.2313, 0.0217503, NaN, NaN, NaN, 0.0445584, "- N/A -   "
12.99, 530.4142, 0.0218031, NaN, NaN, NaN, 0.0445584, "- N/A -   "
13.02, 531.834, 0.021853, NaN, NaN, NaN, 0.0433376, "- N/A -   "
13.05, 533.135, 0.0219086, NaN, NaN, NaN, 0.04089605, "- N/A -   "
13.08, 534.7905, 0.0219669, NaN, NaN, NaN, 0.0372337, "- N/A -   "
13.11, 536.2099, 0.0220252, NaN, NaN, NaN, 0.0347922, "- N/A -   "
13.14, 537.511, 0.0220752, NaN, NaN, NaN, 0.0335714, "- N/A -   "
13.17, 538.6938, 0.0221252, NaN, NaN, NaN, 0.0347922, "- N/A -   "
13.2, 539.9949, 0.0221724, NaN, NaN, NaN, 0.0347922, "- N/A -   "
13.23, 541.059, 0.0222223, NaN, NaN, NaN, 0.03601294, "- N/A -   "
13.26, 542.5971, 0.02227788, NaN, NaN, NaN, 0.0323506, "- N/A -   "
13.29, 544.1347, 0.0223334, NaN, NaN, NaN, 0.0299091, "- N/A -   "
13.32, 545.3175, 0.0223862, NaN, NaN, NaN, 0.0286883, "- N/A -   "
[...]
21.45, 899.805, 0.0359256, NaN, NaN, NaN, 0.0323506, "- N/A -   "
21.48, 901.2246, 0.0359756, NaN, NaN, NaN, 0.0323506, "- N/A -   "
21.51, 902.4074, 0.03602, NaN, NaN, NaN, 0.0347922, "- N/A -   "
21.54, 903.7085, 0.03607, NaN, NaN, NaN, 0.0347922, "- N/A -   "
21.57, 904.8913, 0.03611999, NaN, NaN, NaN, 0.0347922, "- N/A -   "
21.6, 906.192, 0.0361672, NaN, NaN, NaN, 0.03601294, "- N/A -   "
21.63, 907.493, 0.0362144, NaN, NaN, NaN, 0.0396753, "- N/A -   "
21.66, 908.558, 0.0362588, NaN, NaN, NaN, 0.04211683, "- N/A -   "
21.69, 909.741, 0.0363005, NaN, NaN, NaN, 0.0445584, "- N/A -   "
21.72, 911.0419, 0.03635046, NaN, NaN, NaN, 0.04577916, "- N/A -   "
21.75, 912.343, 0.0363977, NaN, NaN, NaN, 0.04577916, "- N/A -   "
21.78, 913.408, 0.03644487, NaN, NaN, NaN, 0.04699994, "- N/A -   "
21.81, 915.182, 0.03650318, NaN, NaN, NaN, 0.0433376, "- N/A -   "
21.84, 916.8377, 0.0365643, NaN, NaN, NaN, 0.0384545, "- N/A -   "
21.87, 918.4936, 0.03662536, NaN, NaN, NaN, 0.0335714, "- N/A -   "
21.9, 919.913, 0.0366809, NaN, NaN, NaN, 0.03112983, "- N/A -   "
21.93, 921.4506, 0.03673365, NaN, NaN, NaN, 0.0299091, "- N/A -   "
21.96, 922.7517, 0.03678641, NaN, NaN, NaN, 0.0286883, "- N/A -   "
21.99, 924.0528, 0.0368336, NaN, NaN, NaN, 0.0299091, "- N/A -   "
22.02, 925.3539, 0.0368808, NaN, NaN, NaN, 0.0323506, "- N/A -   "
22.05, 926.4184, 0.03692247, NaN, NaN, NaN, 0.0347922, "- N/A -   "
22.08, 927.601, 0.0369697, NaN, NaN, NaN, 0.03601294, "- N/A -   "
22.11, 929.021, 0.0370197, NaN, NaN, NaN, 0.03601294, "- N/A -   "
22.14, 930.5582, 0.03707519, NaN, NaN, NaN, 0.0335714, "- N/A -   "
22.17, 932.214, 0.0371335, NaN, NaN, NaN, 0.0299091, "- N/A -   "
22.2, 933.515, 0.03718626, NaN, NaN, NaN, 0.0286883, "- N/A -   "
22.23, 934.5798, 0.0372251, NaN, NaN, NaN, 0.0335714, "- N/A -   "
22.26, 935.644, 0.0372696, NaN, NaN, NaN, 0.03601294, "- N/A -   "
22.29, 936.5906, 0.03730844, NaN, NaN, NaN, 0.04089605, "- N/A -   "
22.32, 937.7734, 0.0373529, NaN, NaN, NaN, 0.0433376, "- N/A -   "
22.35, 939.074, 0.0374028, NaN, NaN, NaN, 0.0433376, "- N/A -   "
22.38, 940.3756, 0.0374528, NaN, NaN, NaN, 0.0433376, "- N/A -   "
22.41, 941.7949, 0.03750559, NaN, NaN, NaN, 0.0433376, "- N/A -   "
22.44, 943.2143, 0.0375583, NaN, NaN, NaN, 0.04089605, "- N/A -   "
22.47, 944.5154, 0.03760833, NaN, NaN, NaN, 0.04089605, "- N/A -   "
22.5, 946.053, 0.0376611, NaN, NaN, NaN, 0.0396753, "- N/A -   "
22.53, 947.4724, 0.0377138, NaN, NaN, NaN, 0.0384545, "- N/A -   "
22.56, 948.8918, 0.0377638, NaN, NaN, NaN, 0.0384545, "- N/A -   "
22.59, 950.1929, 0.0378166, NaN, NaN, NaN, 0.0372337, "- N/A -   "
22.62, 951.494, 0.0378638, NaN, NaN, NaN, 0.0384545, "- N/A -   "
22.65, 952.795, 0.03791377, NaN, NaN, NaN, 0.0384545, "- N/A -   "
22.68, 954.0961, 0.03796375, NaN, NaN, NaN, 0.0384545, "- N/A -   "
22.71, 955.634, 0.03801929, NaN, NaN, NaN, 0.03601294, "- N/A -   "
22.74, 957.171, 0.0380748, NaN, NaN, NaN, 0.0335714, "- N/A -   "
22.77, 958.3543, 0.038122, NaN, NaN, NaN, 0.0347922, "- N/A -   "
22.8, 959.7736, 0.03817201, NaN, NaN, NaN, 0.0347922, "- N/A -   "
22.83, 960.9565, 0.03822199, NaN, NaN, NaN, 0.0347922, "- N/A -   "
22.86, 962.3758, 0.0382747, NaN, NaN, NaN, 0.0335714, "- N/A -   "
22.89, 963.795, 0.03832473, NaN, NaN, NaN, 0.0335714, "- N/A -   "
22.92, 964.8597, 0.0383719, NaN, NaN, NaN, 0.0347922, "- N/A -   "
22.95, 966.1608, 0.0384219, NaN, NaN, NaN, 0.0347922, "- N/A -   "
22.98, 967.6984, 0.03847467, NaN, NaN, NaN, 0.0335714, "- N/A -   "
23.01, 968.8813, 0.0385191, NaN, NaN, NaN, 0.03601294, "- N/A -   "
23.04, 969.9458, 0.03856353, NaN, NaN, NaN, 0.0384545, "- N/A -   "
23.07, 971.01, 0.0386107, NaN, NaN, NaN, 0.04089605, "- N/A -   "
23.1, 972.1931, 0.03865516, NaN, NaN, NaN, 0.04211683, "- N/A -   "
23.13, 973.4942, 0.0387024, NaN, NaN, NaN, 0.0433376, "- N/A -   "
23.16, 974.9136, 0.03874957, NaN, NaN, NaN, 0.0445584, "- N/A -   "
23.19, 976.2146, 0.0388023, NaN, NaN, NaN, 0.0433376, "- N/A -   "
23.22, 977.634, 0.03885231, NaN, NaN, NaN, 0.0433376, "- N/A -   "
23.25, 979.0534, 0.0389078, NaN, NaN, NaN, 0.04089605, "- N/A -   "
23.28, 980.7093, 0.0389662, NaN, NaN, NaN, 0.0372337, "- N/A -   "
23.31, 982.3653, 0.0390272, NaN, NaN, NaN, 0.0335714, "- N/A -   "
23.34, 983.7846, 0.03908, NaN, NaN, NaN, 0.03112983, "- N/A -   "
23.37, 985.086, 0.0391328, NaN, NaN, NaN, 0.0299091, "- N/A -   "
23.4, 986.3868, 0.03918, NaN, NaN, NaN, 0.03112983, "- N/A -   "
23.43, 987.57, 0.0392244, NaN, NaN, NaN, 0.0335714, "- N/A -   "
23.46, 988.871, 0.0392744, NaN, NaN, NaN, 0.0335714, "- N/A -   "
23.49, 990.1718, 0.0393244, NaN, NaN, NaN, 0.0335714, "- N/A -   "
23.52, 991.946, 0.03938545, NaN, NaN, NaN, 0.0286883, "- N/A -   "
23.55, 993.484, 0.0394438, NaN, NaN, NaN, 0.0250259, "- N/A -   "
23.58, 994.548, 0.03948819, NaN, NaN, NaN, 0.0274675, "- N/A -   "
23.61, 995.731, 0.0395354, NaN, NaN, NaN, 0.0286883, "- N/A -   "
23.64, 996.796, 0.03957982, NaN, NaN, NaN, 0.03112983, "- N/A -   "
23.67, 997.7418, 0.0396187, NaN, NaN, NaN, 0.03601294, "- N/A -   "
23.7, 998.8063, 0.0396603, NaN, NaN, NaN, 0.0396753, "- N/A -   "
23.73, 999.989, 0.039702, NaN, NaN, NaN, 0.0433376, "- N/A -   "
23.76, 1001.05, 0.0397436, NaN, NaN, NaN, 0.04699994, "- N/A -   "
23.79, 1002.35, 0.0397909, NaN, NaN, NaN, 0.0482207, "- N/A -   "
23.82, 1003.66, 0.0398381, NaN, NaN, NaN, 0.0494415, "- N/A -   "
23.85, 1005.08, 0.0398936, NaN, NaN, NaN, 0.04699994, "- N/A -   "
23.88, 1006.61, 0.0399519, NaN, NaN, NaN, 0.0433376, "- N/A -   "
23.91, 1008.15, 0.0400074, NaN, NaN, NaN, 0.04089605, "- N/A -   "
23.94, 1009.57, 0.0400602, NaN, NaN, NaN, 0.0396753, "- N/A -   "
23.97, 1011.11, 0.04011573, NaN, NaN, NaN, 0.0372337, "- N/A -   "
24, 1012.41, 0.04016849, NaN, NaN, NaN, 0.03601294, "- N/A -   "
24.03, 1013.72, 0.0402185, NaN, NaN, NaN, 0.03601294, "- N/A -   "
24.06, 1015.15, 0.0402712, NaN, NaN, NaN, 0.0347922, "- N/A -   "
24.09, 1016.58, 0.0403268, NaN, NaN, NaN, 0.0323506, "- N/A -   "
24.12, 1018.01, 0.0403795, NaN, NaN, NaN, 0.03112983, "- N/A -   "
24.15, 1019.44, 0.0404295, NaN, NaN, NaN, 0.03112983, "- N/A -   "
24.18, 1020.75, 0.0404823, NaN, NaN, NaN, 0.0299091, "- N/A -   "
24.21, 1022.18, 0.0405322, NaN, NaN, NaN, 0.0299091, "- N/A -   "
24.24, 1023.49, 0.0405822, NaN, NaN, NaN, 0.0299091, "- N/A -   "
24.27, 1024.57, 0.0406267, NaN, NaN, NaN, 0.0323506, "- N/A -   "
24.3, 1025.64, 0.0406683, NaN, NaN, NaN, 0.03601294, "- N/A -   "
24.33, 1026.83, 0.0407127, NaN, NaN, NaN, 0.0384545, "- N/A -   "
24.36, 1027.91, 0.04075716, NaN, NaN, NaN, 0.04211683, "- N/A -   "
24.39, 1028.98, 0.0407988, NaN, NaN, NaN, 0.0445584, "- N/A -   "
24.42, 1030.29, 0.040846, NaN, NaN, NaN, 0.04577916, "- N/A -   "
24.45, 1031.72, 0.0409016, NaN, NaN, NaN, 0.0433376, "- N/A -   "
24.48, 1033.15, 0.04095431, NaN, NaN, NaN, 0.04211683, "- N/A -   "
24.51, 1034.47, 0.0410043, NaN, NaN, NaN, 0.04211683, "- N/A -   "
24.54, 1035.78, 0.04105705, NaN, NaN, NaN, 0.04211683, "- N/A -   "
24.57, 1037.09, 0.0411043, NaN, NaN, NaN, 0.04211683, "- N/A -   "
24.6, 1038.52, 0.041157, NaN, NaN, NaN, 0.04211683, "- N/A -   "
24.63, 1040.07, 0.0412153, NaN, NaN, NaN, 0.0384545, "- N/A -   "
24.66, 1041.859, 0.0412792, NaN, NaN, NaN, 0.0323506, "- N/A -   "
24.69, 1043.41, 0.0413347, NaN, NaN, NaN, 0.0286883, "- N/A -   "
24.72, 1044.84, 0.0413875, NaN, NaN, NaN, 0.0274675, "- N/A -   "
24.75, 1046.15, 0.0414402, NaN, NaN, NaN, 0.0274675, "- N/A -   "
24.78, 1047.46, 0.04148467, NaN, NaN, NaN, 0.0286883, "- N/A -   "
24.81, 1048.78, 0.0415347, NaN, NaN, NaN, 0.0286883, "- N/A -   "
24.84, 1049.97, 0.04157908, NaN, NaN, NaN, 0.03112983, "- N/A -   "
24.87, 1051.04, 0.04162351, NaN, NaN, NaN, 0.0335714, "- N/A -   "
24.9, 1052.35, 0.0416679, NaN, NaN, NaN, 0.03601294, "- N/A -   "
24.93, 1053.55, 0.0417179, NaN, NaN, NaN, 0.03601294, "- N/A -   "
24.96, 1054.86, 0.0417679, NaN, NaN, NaN, 0.0372337, "- N/A -   "
24.99, 1056.41, 0.04182343, NaN, NaN, NaN, 0.0335714, "- N/A -   "
25.02, 1057.84, 0.0418734, NaN, NaN, NaN, 0.0335714, "- N/A -   "
25.05, 1058.912, 0.0419151, NaN, NaN, NaN, 0.0372337, "- N/A -   "
25.08, 1059.866, 0.04195672, NaN, NaN, NaN, 0.04211683, "- N/A -   "
25.11, 1061.18, 0.0420011, NaN, NaN, NaN, 0.0433376, "- N/A -   "
25.14, 1062.37, 0.04205113, NaN, NaN, NaN, 0.0433376, "- N/A -   "
25.17, 1063.682, 0.0420983, NaN, NaN, NaN, 0.0445584, "- N/A -   "
25.2, 1064.99, 0.0421483, NaN, NaN, NaN, 0.0445584, "- N/A -   "
25.23, 1066.54, 0.04220385, NaN, NaN, NaN, 0.04211683, "- N/A -   "
25.26, 1068.21, 0.0422622, NaN, NaN, NaN, 0.0384545, "- N/A -   "
25.29, 1069.88, 0.04232047, NaN, NaN, NaN, 0.0347922, "- N/A -   "
25.32, 1071.31, 0.0423788, NaN, NaN, NaN, 0.0323506, "- N/A -   "
25.35, 1072.626, 0.0424288, NaN, NaN, NaN, 0.03112983, "- N/A -   "
25.38, 1073.94, 0.042476, NaN, NaN, NaN, 0.0323506, "- N/A -   "
25.41, 1075.13, 0.0425232, NaN, NaN, NaN, 0.0335714, "- N/A -   "
25.44, 1076.32, 0.0425676, NaN, NaN, NaN, 0.03601294, "- N/A -   "
25.47, 1077.63, 0.0426176, NaN, NaN, NaN, 0.03601294, "- N/A -   "
25.5, 1078.95, 0.0426676, NaN, NaN, NaN, 0.03601294, "- N/A -   "
25.53, 1080.258, 0.04271755, NaN, NaN, NaN, 0.03601294, "- N/A -   "
25.56, 1081.69, 0.0427703, NaN, NaN, NaN, 0.0347922, "- N/A -   "
25.59, 1083.24, 0.0428258, NaN, NaN, NaN, 0.0335714, "- N/A -   "
25.62, 1084.43, 0.0428758, NaN, NaN, NaN, 0.0323506, "- N/A -   "
25.65, 1085.62, 0.0429203, NaN, NaN, NaN, 0.0347922, "- N/A -   "
25.68, 1086.94, 0.0429675, NaN, NaN, NaN, 0.03601294, "- N/A -   "
25.71, 1088.13, 0.04301466, NaN, NaN, NaN, 0.0372337, "- N/A -   "
25.74, 1089.32, 0.0430563, NaN, NaN, NaN, 0.04089605, "- N/A -   "
25.77, 1090.51, 0.0431035, NaN, NaN, NaN, 0.04211683, "- N/A -   "
25.8, 1091.94, 0.0431563, NaN, NaN, NaN, 0.04089605, "- N/A -   "
25.83, 1093.38, 0.04321181, NaN, NaN, NaN, 0.0384545, "- N/A -   "
25.86, 1094.69, 0.04326179, NaN, NaN, NaN, 0.0396753, "- N/A -   "
25.89, 1096, 0.043309, NaN, NaN, NaN, 0.0396753, "- N/A -   "
25.92, 1097.43, 0.0433618, NaN, NaN, NaN, 0.0384545, "- N/A -   "
25.95, 1098.86, 0.0434145, NaN, NaN, NaN, 0.0372337, "- N/A -   "
25.98, 1100.17, 0.0434645, NaN, NaN, NaN, 0.0372337, "- N/A -   "
26.01, 1101.485, 0.0435173, NaN, NaN, NaN, 0.03601294, "- N/A -   "
26.04, 1102.8, 0.0435645, NaN, NaN, NaN, 0.0372337, "- N/A -   "
26.07, 1104.23, 0.04361999, NaN, NaN, NaN, 0.03601294, "- N/A -   "
26.1, 1105.54, 0.04367, NaN, NaN, NaN, 0.0347922, "- N/A -   "
26.13, 1107.09, 0.04372551, NaN, NaN, NaN, 0.0323506, "- N/A -   "
26.16, 1108.64, 0.043781, NaN, NaN, NaN, 0.03112983, "- N/A -   "
26.19, 1110.07, 0.043831, NaN, NaN, NaN, 0.03112983, "- N/A -   "
26.22, 1111.26, 0.04387823, NaN, NaN, NaN, 0.0323506, "- N/A -   "
26.25, 1112.456, 0.04392266, NaN, NaN, NaN, 0.0347922, "- N/A -   "
26.28, 1113.65, 0.0439726, NaN, NaN, NaN, 0.0347922, "- N/A -   "
26.31, 1114.96, 0.0440226, NaN, NaN, NaN, 0.0347922, "- N/A -   "
26.34, 1116.51, 0.0440782, NaN, NaN, NaN, 0.0335714, "- N/A -   "
26.37, 1117.94, 0.04412814, NaN, NaN, NaN, 0.0323506, "- N/A -   "
26.4, 1119.25, 0.04417534, NaN, NaN, NaN, 0.0335714, "- N/A -   "
26.43, 1120.21, 0.044217, NaN, NaN, NaN, 0.0372337, "- N/A -   "
26.46, 1121.4, 0.0442586, NaN, NaN, NaN, 0.04089605, "- N/A -   "
26.49, 1122.47, 0.0443059, NaN, NaN, NaN, 0.04211683, "- N/A -   "
26.52, 1123.9, 0.0443558, NaN, NaN, NaN, 0.04211683, "- N/A -   "
26.55, 1124.98, 0.04440026, NaN, NaN, NaN, 0.0445584, "- N/A -   "
26.58, 1126.17, 0.0444447, NaN, NaN, NaN, 0.04699994, "- N/A -   "
26.61, 1127.72, 0.0445002, NaN, NaN, NaN, 0.0445584, "- N/A -   "
26.64, 1129.27, 0.04455576, NaN, NaN, NaN, 0.0433376, "- N/A -   "
26.67, 1130.7, 0.04461129, NaN, NaN, NaN, 0.0396753, "- N/A -   "
26.7, 1132.25, 0.0446668, NaN, NaN, NaN, 0.0372337, "- N/A -   "
26.73, 1133.683, 0.0447196, NaN, NaN, NaN, 0.03601294, "- N/A -   "
26.76, 1134.99, 0.04477234, NaN, NaN, NaN, 0.0347922, "- N/A -   "
26.79, 1136.31, 0.0448196, NaN, NaN, NaN, 0.03601294, "- N/A -   "
26.82, 1137.62, 0.04486953, NaN, NaN, NaN, 0.03601294, "- N/A -   "
26.85, 1139.05, 0.04492229, NaN, NaN, NaN, 0.03601294, "- N/A -   "
26.88, 1140.36, 0.04497227, NaN, NaN, NaN, 0.0347922, "- N/A -   "
26.91, 1141.91, 0.0450278, NaN, NaN, NaN, 0.0323506, "- N/A -   "
26.94, 1143.46, 0.04508612, NaN, NaN, NaN, 0.0286883, "- N/A -   "
26.97, 1145.012, 0.0451444, NaN, NaN, NaN, 0.0250259, "- N/A -   "
27, 1146.32, 0.0451916, NaN, NaN, NaN, 0.0274675, "- N/A -   "
27.03, 1147.28, 0.0452333, NaN, NaN, NaN, 0.0299091, "- N/A -   "
27.06, 1148.47, 0.0452749, NaN, NaN, NaN, 0.0335714, "- N/A -   "
27.09, 1149.42, 0.0453138, NaN, NaN, NaN, 0.0396753, "- N/A -   "
27.12, 1150.38, 0.0453555, NaN, NaN, NaN, 0.04211683, "- N/A -   "
27.15, 1151.45, 0.0453971, NaN, NaN, NaN, 0.04577916, "- N/A -   "
27.18, 1152.76, 0.04544154, NaN, NaN, NaN, 0.0482207, "- N/A -   "
27.21, 1153.96, 0.0454887, NaN, NaN, NaN, 0.0494415, "- N/A -   "
27.24, 1155.15, 0.0455332, NaN, NaN, NaN, 0.05188305, "- N/A -   "
27.27, 1156.46, 0.04558316, NaN, NaN, NaN, 0.05188305, "- N/A -   "
27.3, 1158.01, 0.04564147, NaN, NaN, NaN, 0.0482207, "- N/A -   "
27.33, 1159.56, 0.045697, NaN, NaN, NaN, 0.04577916, "- N/A -   "
27.36, 1161.35, 0.04575809, NaN, NaN, NaN, 0.04089605, "- N/A -   "
27.39, 1162.78, 0.0458164, NaN, NaN, NaN, 0.0384545, "- N/A -   "
27.42, 1164.57, 0.04587749, NaN, NaN, NaN, 0.0323506, "- N/A -   "
27.45, 1166.12, 0.045933, NaN, NaN, NaN, 0.0299091, "- N/A -   "
27.48, 1167.67, 0.04599134, NaN, NaN, NaN, 0.0262467, "- N/A -   "
27.51, 1169.1, 0.0460469, NaN, NaN, NaN, 0.0238052, "- N/A -   "
27.54, 1170.41, 0.0460969, NaN, NaN, NaN, 0.0238052, "- N/A -   "
27.57, 1171.72, 0.04614406, NaN, NaN, NaN, 0.0250259, "- N/A -   "
27.6, 1172.8, 0.0461913, NaN, NaN, NaN, 0.0262467, "- N/A -   "
27.63, 1173.99, 0.04623569, NaN, NaN, NaN, 0.0286883, "- N/A -   "
27.66, 1175.06, 0.0462773, NaN, NaN, NaN, 0.0323506, "- N/A -   "
27.69, 1176.256, 0.046319, NaN, NaN, NaN, 0.03601294, "- N/A -   "
27.72, 1177.45, 0.0463662, NaN, NaN, NaN, 0.0372337, "- N/A -   "
27.75, 1178.641, 0.0464106, NaN, NaN, NaN, 0.0396753, "- N/A -   "
27.78, 1179.83, 0.0464578, NaN, NaN, NaN, 0.04089605, "- N/A -   "
27.81, 1181.03, 0.0465023, NaN, NaN, NaN, 0.0433376, "- N/A -   "
27.84, 1182.1, 0.04654669, NaN, NaN, NaN, 0.04577916, "- N/A -   "
27.87, 1183.411, 0.0465967, NaN, NaN, NaN, 0.04699994, "- N/A -   "
27.9, 1184.6, 0.0466439, NaN, NaN, NaN, 0.04699994, "- N/A -   "
27.93, 1186.03, 0.0466966, NaN, NaN, NaN, 0.04699994, "- N/A -   "
27.96, 1187.47, 0.0467466, NaN, NaN, NaN, 0.04577916, "- N/A -   "
27.99, 1188.9, 0.04680215, NaN, NaN, NaN, 0.0433376, "- N/A -   "
28.02, 1190.57, 0.0468577, NaN, NaN, NaN, 0.04089605, "- N/A -   "
28.05, 1192.12, 0.046916, NaN, NaN, NaN, 0.0372337, "- N/A -   "
28.08, 1193.786, 0.0469771, NaN, NaN, NaN, 0.0323506, "- N/A -   "
28.11, 1195.34, 0.04703262, NaN, NaN, NaN, 0.0299091, "- N/A -   "
28.14, 1196.65, 0.04708538, NaN, NaN, NaN, 0.0286883, "- N/A -   "
28.17, 1197.96, 0.0471326, NaN, NaN, NaN, 0.0299091, "- N/A -   "
28.2, 1199.15, 0.04717979, NaN, NaN, NaN, 0.03112983, "- N/A -   "
28.23, 1200.34, 0.04722699, NaN, NaN, NaN, 0.0323506, "- N/A -   "
28.26, 1201.66, 0.0472742, NaN, NaN, NaN, 0.0335714, "- N/A -   "
28.29, 1202.97, 0.0473214, NaN, NaN, NaN, 0.0347922, "- N/A -   "
28.32, 1204.16, 0.0473658, NaN, NaN, NaN, 0.0372337, "- N/A -   "
28.35, 1205.35, 0.047413, NaN, NaN, NaN, 0.0384545, "- N/A -   "
28.38, 1206.67, 0.04746024, NaN, NaN, NaN, 0.0396753, "- N/A -   "
28.41, 1208.22, 0.0475158, NaN, NaN, NaN, 0.0372337, "- N/A -   "
28.44, 1209.53, 0.0475685, NaN, NaN, NaN, 0.03601294, "- N/A -   "
28.47, 1210.84, 0.047613, NaN, NaN, NaN, 0.0384545, "- N/A -   "
28.5, 1211.91, 0.04765739, NaN, NaN, NaN, 0.04089605, "- N/A -   "
28.53, 1213.1, 0.04770182, NaN, NaN, NaN, 0.0433376, "- N/A -   "
28.56, 1214.3, 0.047749, NaN, NaN, NaN, 0.0445584, "- N/A -   "
28.59, 1215.61, 0.047799, NaN, NaN, NaN, 0.0445584, "- N/A -   "
28.62, 1217.04, 0.047849, NaN, NaN, NaN, 0.0445584, "- N/A -   "
28.65, 1218.71, 0.0479101, NaN, NaN, NaN, 0.0396753, "- N/A -   "
28.68, 1220.38, 0.0479684, NaN, NaN, NaN, 0.03601294, "- N/A -   "
28.71, 1221.81, 0.04802392, NaN, NaN, NaN, 0.0335714, "- N/A -   "
28.74, 1223.24, 0.0480795, NaN, NaN, NaN, 0.03112983, "- N/A -   "
28.77, 1224.79, 0.04813499, NaN, NaN, NaN, 0.0299091, "- N/A -   "
28.8, 1226.1, 0.048185, NaN, NaN, NaN, 0.0286883, "- N/A -   "
28.83, 1227.3, 0.04823218, NaN, NaN, NaN, 0.0299091, "- N/A -   "
28.86, 1228.49, 0.0482766, NaN, NaN, NaN, 0.0323506, "- N/A -   "
28.89, 1229.8, 0.0483238, NaN, NaN, NaN, 0.0335714, "- N/A -   "
28.92, 1231.11, 0.0483738, NaN, NaN, NaN, 0.0335714, "- N/A -   "
28.95, 1232.54, 0.0484238, NaN, NaN, NaN, 0.0335714, "- N/A -   "
28.98, 1233.97, 0.0484765, NaN, NaN, NaN, 0.0323506, "- N/A -   "
29.01, 1235.29, 0.0485265, NaN, NaN, NaN, 0.0323506, "- N/A -   "
29.04, 1236.48, 0.0485709, NaN, NaN, NaN, 0.0347922, "- N/A -   "
29.07, 1237.67, 0.0486181, NaN, NaN, NaN, 0.03601294, "- N/A -   "
29.1, 1238.98, 0.04866535, NaN, NaN, NaN, 0.0372337, "- N/A -   "
29.13, 1240.175, 0.04871256, NaN, NaN, NaN, 0.0396753, "- N/A -   "
29.16, 1241.37, 0.048757, NaN, NaN, NaN, 0.04089605, "- N/A -   "
29.19, 1242.56, 0.04880419, NaN, NaN, NaN, 0.04211683, "- N/A -   "
29.22, 1243.87, 0.0488542, NaN, NaN, NaN, 0.04211683, "- N/A -   "
29.25, 1245.18, 0.04890415, NaN, NaN, NaN, 0.04211683, "- N/A -   "
29.28, 1246.5, 0.0489541, NaN, NaN, NaN, 0.04211683, "- N/A -   "
29.31, 1247.93, 0.0490041, NaN, NaN, NaN, 0.04211683, "- N/A -   "
29.34, 1249.48, 0.0490596, NaN, NaN, NaN, 0.04089605, "- N/A -   "
29.37, 1250.79, 0.04910963, NaN, NaN, NaN, 0.0396753, "- N/A -   "
29.4, 1252.34, 0.0491652, NaN, NaN, NaN, 0.0372337, "- N/A -   "
29.43, 1253.65, 0.0492151, NaN, NaN, NaN, 0.0372337, "- N/A -   "
29.46, 1255.08, 0.0492679, NaN, NaN, NaN, 0.03601294, "- N/A -   "
29.49, 1256.51, 0.04931789, NaN, NaN, NaN, 0.03601294, "- N/A -   "
29.52, 1257.82, 0.04936787, NaN, NaN, NaN, 0.03601294, "- N/A -   "
29.55, 1259.14, 0.04942063, NaN, NaN, NaN, 0.0347922, "- N/A -   "
29.58, 1260.45, 0.0494762, NaN, NaN, NaN, 0.0323506, "- N/A -   "
29.61, 1261.88, 0.0495261, NaN, NaN, NaN, 0.0335714, "- N/A -   "
29.64, 1263.19, 0.0495733, NaN, NaN, NaN, 0.0335714, "- N/A -   "
29.67, 1264.62, 0.0496261, NaN, NaN, NaN, 0.0323506, "- N/A -   "
29.7, 1265.81, 0.0496733, NaN, NaN, NaN, 0.0347922, "- N/A -   "
29.73, 1267.01, 0.04972052, NaN, NaN, NaN, 0.0347922, "- N/A -   "
29.76, 1268.44, 0.0497733, NaN, NaN, NaN, 0.0347922, "- N/A -   "
29.79, 1269.99, 0.0498288, NaN, NaN, NaN, 0.0323506, "- N/A -   "
29.82, 1271.06, 0.0498732, NaN, NaN, NaN, 0.0335714, "- N/A -   "
29.85, 1272.13, 0.04991489, NaN, NaN, NaN, 0.0372337, "- N/A -   "
29.88, 1273.45, 0.0499621, NaN, NaN, NaN, 0.0384545, "- N/A -   "
29.91, 1274.758, 0.0500121, NaN, NaN, NaN, 0.0384545, "- N/A -   "
29.94, 1275.95, 0.05005928, NaN, NaN, NaN, 0.0396753, "- N/A -   "
29.97, 1277.26, 0.0501037, NaN, NaN, NaN, 0.04211683, "- N/A -   "
30, 1278.45, 0.05015369, NaN, NaN, NaN, 0.04211683, "- N/A -   "
30.03, 1279.77, 0.0502009, NaN, NaN, NaN, 0.0433376, "- N/A -   "
30.06, 1281.2, 0.0502537, NaN, NaN, NaN, 0.04211683, "- N/A -   "
30.09, 1282.75, 0.05030919, NaN, NaN, NaN, 0.0396753, "- N/A -   "
30.12, 1284.3, 0.0503703, NaN, NaN, NaN, 0.0347922, "- N/A -   "
30.15, 1285.73, 0.050423, NaN, NaN, NaN, 0.0335714, "- N/A -   "
30.18, 1287.16, 0.05047302, NaN, NaN, NaN, 0.0335714, "- N/A -   "
30.21, 1288.35, 0.050523, NaN, NaN, NaN, 0.0335714, "- N/A -   "
30.24, 1289.78, 0.0505758, NaN, NaN, NaN, 0.0323506, "- N/A -   "
30.27, 1291.21, 0.0506285, NaN, NaN, NaN, 0.0323506, "- N/A -   "
30.3, 1292.53, 0.0506813, NaN, NaN, NaN, 0.0299091, "- N/A -   "
30.33, 1293.96, 0.0507368, NaN, NaN, NaN, 0.0274675, "- N/A -   "
30.36, 1295.51, 0.05078957, NaN, NaN, NaN, 0.0262467, "- N/A -   "
30.39, 1296.82, 0.0508395, NaN, NaN, NaN, 0.0274675, "- N/A -   "
30.42, 1297.89, 0.05088398, NaN, NaN, NaN, 0.0299091, "- N/A -   "