File: 2_Tensile_Data/Hamel_ForceTest_Bolt1_Test1.csv
Time, Load (lb), Position (in), AxialStrain (in), TransverseStrain (in), Auxiliary (), Control Out (V), Stress (psi)
0.0,1.29742,0.0, NaN, NaN, NaN,0.09949338," ""- N/A -   """
0.01,1.76921,2.49908e-05, NaN, NaN, NaN,0.108039," ""- N/A -   """
0.02,2.12305,5.5535e-05, NaN, NaN, NaN,0.108039," ""- N/A -   """
0.03,2.59484,8.33026e-05, NaN, NaN, NaN,0.103156," ""- N/A -   """
0.04,2.94869,0.00011107, NaN, NaN, NaN,0.0982726," ""- N/A -   """
0.06,3.89227,0.000166605, NaN, NaN, NaN,0.0897272," ""- N/A -   """
0.08,4.482,0.000216587, NaN, NaN, NaN,0.08118171," ""- N/A -   """
0.1,5.307636,0.000263791, NaN, NaN, NaN,0.0750778," ""- N/A -   """
0.12,5.897373,0.0003109962, NaN, NaN, NaN,0.0701947," ""- N/A -   """
0.14,6.487111,0.000352647, NaN, NaN, NaN,0.06653238," ""- N/A -   """
0.16,7.07685,0.000394299, NaN, NaN, NaN,0.06164927," ""- N/A -   """
0.18,7.90248,0.0004387268, NaN, NaN, NaN,0.05676616," ""- N/A -   """
0.2,8.610166,0.0004887083, NaN, NaN, NaN,0.05066227," ""- N/A -   """
0.22,9.31785,0.000533136, NaN, NaN, NaN,0.0445584," ""- N/A -   """
0.24,10.0255,0.000577564, NaN, NaN, NaN,0.04089605," ""- N/A -   """
0.26,10.6153,0.0006164389, NaN, NaN, NaN,0.0372337," ""- N/A -   """
0.28,11.0871,0.0006525367, NaN, NaN, NaN,0.03601294," ""- N/A -   """
0.3,11.6768,0.000688634, NaN, NaN, NaN,0.0347922," ""- N/A -   """
0.32,12.2665,0.000724732, NaN, NaN, NaN,0.0335714," ""- N/A -   """
0.34,12.8563,0.00076083, NaN, NaN, NaN,0.0335714," ""- N/A -   """
0.36,13.3281,0.0007885975, NaN, NaN, NaN,0.0347922," ""- N/A -   """
0.38,13.7999,0.000821919, NaN, NaN, NaN,0.0347922," ""- N/A -   """
0.4,14.3896,0.0008552396, NaN, NaN, NaN,0.0347922," ""- N/A -   """
0.42,14.8614,0.0008885606, NaN, NaN, NaN,0.0347922," ""- N/A -   """
0.44,15.3332,0.0009218816, NaN, NaN, NaN,0.0347922," ""- N/A -   """
0.46,15.9229,0.0009524259, NaN, NaN, NaN,0.03601294," ""- N/A -   """
0.48,16.27675,0.0009857469, NaN, NaN, NaN,0.03601294," ""- N/A -   """
0.5,16.86649,0.001019068, NaN, NaN, NaN,0.03601294," ""- N/A -   """
0.52,17.4562,0.00105239, NaN, NaN, NaN,0.03601294," ""- N/A -   """
0.54,17.928,0.00108571, NaN, NaN, NaN,0.0372337," ""- N/A -   """
0.56,18.5178,0.001119031, NaN, NaN, NaN,0.0372337," ""- N/A -   """
0.58,19.1075,0.001152352, NaN, NaN, NaN,0.03601294," ""- N/A -   """
0.6,19.57928,0.0011829, NaN, NaN, NaN,0.0372337," ""- N/A -   """
0.62,20.05107,0.00121344, NaN, NaN, NaN,0.0384545," ""- N/A -   """
0.64,20.52286,0.00124398, NaN, NaN, NaN,0.0396753," ""- N/A -   """
0.66,20.99465,0.001274529, NaN, NaN, NaN,0.04089605," ""- N/A -   """
0.68,21.5844,0.00130785, NaN, NaN, NaN,0.04089605," ""- N/A -   """
0.7,22.1741,0.00134117, NaN, NaN, NaN,0.04211683," ""- N/A -   """
0.72,22.7639,0.00137172, NaN, NaN, NaN,0.04211683," ""- N/A -   """
0.74,23.2357,0.00140226, NaN, NaN, NaN,0.0433376," ""- N/A -   """
0.76,23.82539,0.00143836, NaN, NaN, NaN,0.04211683," ""- N/A -   """
0.78,24.4151,0.00147446, NaN, NaN, NaN,0.04089605," ""- N/A -   """
0.8,25.1228,0.00151333, NaN, NaN, NaN,0.0384545," ""- N/A -   """
0.82,25.7125,0.00154943, NaN, NaN, NaN,0.0372337," ""- N/A -   """
0.84,26.3023,0.0015883, NaN, NaN, NaN,0.03601294," ""- N/A -   """
0.86,27.01,0.0016244, NaN, NaN, NaN,0.0347922," ""- N/A -   """
0.88,27.5997,0.0016605, NaN, NaN, NaN,0.0335714," ""- N/A -   """
0.9,28.1894,0.0016966, NaN, NaN, NaN,0.03112983," ""- N/A -   """
0.92,28.6612,0.00173269, NaN, NaN, NaN,0.0299091," ""- N/A -   """
0.94,29.251,0.00176324, NaN, NaN, NaN,0.03112983," ""- N/A -   """
0.96,29.7228,0.001791, NaN, NaN, NaN,0.0335714," ""- N/A -   """
0.98,30.1946,0.00182433, NaN, NaN, NaN,0.0347922," ""- N/A -   """
1.0,30.6663,0.00185209, NaN, NaN, NaN,0.03601294," ""- N/A -   """
1.02,31.2561,0.00188264, NaN, NaN, NaN,0.0372337," ""- N/A -   """
1.04,31.8458,0.00191596, NaN, NaN, NaN,0.0372337," ""- N/A -   """
1.06,32.4356,0.00195206, NaN, NaN, NaN,0.03601294," ""- N/A -   """
1.08,33.02529,0.00198538, NaN, NaN, NaN,0.03601294," ""- N/A -   """
1.1,33.61503,0.0020187, NaN, NaN, NaN,0.03601294," ""- N/A -   """
1.12,34.08682,0.0020548, NaN, NaN, NaN,0.0347922," ""- N/A -   """
1.14,34.7945,0.00208812, NaN, NaN, NaN,0.0347922," ""- N/A -   """
1.16,35.3842,0.00212422, NaN, NaN, NaN,0.0347922," ""- N/A -   """
1.18,35.7381,0.002157536, NaN, NaN, NaN,0.0347922," ""- N/A -   """
1.2,36.44577,0.00218808, NaN, NaN, NaN,0.0347922," ""- N/A -   """
1.22,37.0355,0.0022214, NaN, NaN, NaN,0.0347922," ""- N/A -   """
1.24,37.5073,0.002249169, NaN, NaN, NaN,0.0372337," ""- N/A -   """
1.26,37.9791,0.00227694, NaN, NaN, NaN,0.0396753," ""- N/A -   """
1.28,38.4509,0.002304704, NaN, NaN, NaN,0.04211683," ""- N/A -   """
1.3,38.9227,0.00233803, NaN, NaN, NaN,0.0433376," ""- N/A -   """
1.32,39.3945,0.002371346, NaN, NaN, NaN,0.04211683," ""- N/A -   """
1.34,40.10214,0.00240467, NaN, NaN, NaN,0.04211683," ""- N/A -   """
1.36,40.69188,0.00243799, NaN, NaN, NaN,0.04211683," ""- N/A -   """
1.38,41.16367,0.00247409, NaN, NaN, NaN,0.04211683," ""- N/A -   """
1.4,41.7534,0.00250741, NaN, NaN, NaN,0.04089605," ""- N/A -   """
1.42,42.3431,0.0025435, NaN, NaN, NaN,0.0396753," ""- N/A -   """
1.44,42.93288,0.00257683, NaN, NaN, NaN,0.0396753," ""- N/A -   """
1.46,43.5226,0.00261292, NaN, NaN, NaN,0.0396753," ""- N/A -   """
1.48,44.1124,0.00264624, NaN, NaN, NaN,0.0384545," ""- N/A -   """
1.5,44.70209,0.00268234, NaN, NaN, NaN,0.0372337," ""- N/A -   """
1.52,45.29183,0.00271844, NaN, NaN, NaN,0.0372337," ""- N/A -   """
1.54,45.8816,0.00275176, NaN, NaN, NaN,0.03601294," ""- N/A -   """
1.56,46.3534,0.00278786, NaN, NaN, NaN,0.03601294," ""- N/A -   """
1.58,47.061,0.00282118, NaN, NaN, NaN,0.0347922," ""- N/A -   """
1.6,47.5328,0.00285728, NaN, NaN, NaN,0.0347922," ""- N/A -   """
1.62,48.12257,0.002887822, NaN, NaN, NaN,0.0347922," ""- N/A -   """
1.64,48.7123,0.00292114, NaN, NaN, NaN,0.0347922," ""- N/A -   """
1.66,49.30204,0.002957241, NaN, NaN, NaN,0.0335714," ""- N/A -   """
1.68,49.7738,0.00299056, NaN, NaN, NaN,0.0335714," ""- N/A -   """
1.7,50.3636,0.00302666, NaN, NaN, NaN,0.0323506," ""- N/A -   """
1.72,50.9533,0.00305998, NaN, NaN, NaN,0.0323506," ""- N/A -   """
1.74,51.543,0.0030933, NaN, NaN, NaN,0.0335714," ""- N/A -   """
1.76,52.01483,0.00312662, NaN, NaN, NaN,0.0335714," ""- N/A -   """
1.78,52.6046,0.00315994, NaN, NaN, NaN,0.0323506," ""- N/A -   """
1.8,53.19431,0.00319326, NaN, NaN, NaN,0.0323506," ""- N/A -   """
1.82,53.784,0.003223809, NaN, NaN, NaN,0.0335714," ""- N/A -   """
1.84,54.3738,0.003259907, NaN, NaN, NaN,0.0335714," ""- N/A -   """
1.86,54.8456,0.00329323, NaN, NaN, NaN,0.0335714," ""- N/A -   """
1.88,55.55326,0.003323772, NaN, NaN, NaN,0.0335714," ""- N/A -   """
1.9,56.02505,0.00335987, NaN, NaN, NaN,0.0323506," ""- N/A -   """
1.92,56.6148,0.00339041, NaN, NaN, NaN,0.0335714," ""- N/A -   """
1.94,57.08658,0.003423735, NaN, NaN, NaN,0.0347922," ""- N/A -   """
1.96,57.6763,0.00345428, NaN, NaN, NaN,0.0347922," ""- N/A -   """
1.98,58.1481,0.003482047, NaN, NaN, NaN,0.0372337," ""- N/A -   """
2.0,58.6199,0.00351259, NaN, NaN, NaN,0.0384545," ""- N/A -   """
2.02,59.2096,0.00354591, NaN, NaN, NaN,0.0396753," ""- N/A -   """
2.04,59.79937,0.00357923, NaN, NaN, NaN,0.0384545," ""- N/A -   """
2.06,60.27116,0.00361255, NaN, NaN, NaN,0.0396753," ""- N/A -   """
2.08,60.8609,0.0036431, NaN, NaN, NaN,0.0396753," ""- N/A -   """
2.1,61.45063,0.00367642, NaN, NaN, NaN,0.0396753," ""- N/A -   """
2.12,61.9224,0.00370696, NaN, NaN, NaN,0.04089605," ""- N/A -   """
2.14,62.6301,0.00374028, NaN, NaN, NaN,0.04089605," ""- N/A -   """
2.16,63.2198,0.00377361, NaN, NaN, NaN,0.04089605," ""- N/A -   """
2.18,63.6916,0.00380693, NaN, NaN, NaN,0.04089605," ""- N/A -   """
2.2,64.28137,0.00383747, NaN, NaN, NaN,0.04211683," ""- N/A -   """
2.22,64.75317,0.00387357, NaN, NaN, NaN,0.04089605," ""- N/A -   """
2.24,65.5788,0.00391244, NaN, NaN, NaN,0.0384545," ""- N/A -   """
2.26,66.2865,0.00395409, NaN, NaN, NaN,0.0347922," ""- N/A -   """
2.28,66.99416,0.00399019, NaN, NaN, NaN,0.0335714," ""- N/A -   """
2.3,67.5839,0.00402629, NaN, NaN, NaN,0.0323506," ""- N/A -   """
2.32,68.17364,0.00405961, NaN, NaN, NaN,0.0323506," ""- N/A -   """
2.34,68.7634,0.00409293, NaN, NaN, NaN,0.0335714," ""- N/A -   """
2.36,69.23517,0.004123477, NaN, NaN, NaN,0.0335714," ""- N/A -   """
2.38,69.707,0.004154021, NaN, NaN, NaN,0.0347922," ""- N/A -   """
2.4,70.29669,0.004184565, NaN, NaN, NaN,0.03601294," ""- N/A -   """
2.42,71.00438,0.00422066, NaN, NaN, NaN,0.03601294," ""- N/A -   """
2.44,71.59412,0.00425676, NaN, NaN, NaN,0.0347922," ""- N/A -   """
2.46,72.1838,0.00429286, NaN, NaN, NaN,0.0323506," ""- N/A -   """
2.48,72.89154,0.004328956, NaN, NaN, NaN,0.03112983," ""- N/A -   """
2.5,73.59922,0.004365054, NaN, NaN, NaN,0.0299091," ""- N/A -   """
2.52,74.189,0.00440115, NaN, NaN, NaN,0.0286883," ""- N/A -   """
2.54,74.7787,0.004434473, NaN, NaN, NaN,0.0299091," ""- N/A -   """
2.56,75.25049,0.004465017, NaN, NaN, NaN,0.0299091," ""- N/A -   """
2.58,75.7223,0.004495561, NaN, NaN, NaN,0.0323506," ""- N/A -   """
2.6,76.31202,0.004523329, NaN, NaN, NaN,0.0335714," ""- N/A -   """
2.62,76.7838,0.004553873, NaN, NaN, NaN,0.0347922," ""- N/A -   """
2.64,77.37354,0.004584417, NaN, NaN, NaN,0.0372337," ""- N/A -   """
2.66,77.84533,0.004609408, NaN, NaN, NaN,0.0396753," ""- N/A -   """
2.68,78.19917,0.00463718, NaN, NaN, NaN,0.04211683," ""- N/A -   """
2.7,78.67096,0.004664943, NaN, NaN, NaN,0.0445584," ""- N/A -   """
2.72,79.2607,0.004695487, NaN, NaN, NaN,0.04699994," ""- N/A -   """
2.74,79.85043,0.004723255, NaN, NaN, NaN,0.0482207," ""- N/A -   """
2.76,80.32223,0.004756576, NaN, NaN, NaN,0.0482207," ""- N/A -   """
2.78,80.912,0.0047899, NaN, NaN, NaN,0.0482207," ""- N/A -   """
2.8,81.5017,0.004825995, NaN, NaN, NaN,0.0482207," ""- N/A -   """
2.82,82.44528,0.004864869, NaN, NaN, NaN,0.0445584," ""- N/A -   """
2.84,83.15297,0.00490097, NaN, NaN, NaN,0.0433376," ""- N/A -   """
2.86,83.86065,0.004939842, NaN, NaN, NaN,0.04089605," ""- N/A -   """
2.88,84.45039,0.004978716, NaN, NaN, NaN,0.0396753," ""- N/A -   """
2.9,85.04012,0.005014814, NaN, NaN, NaN,0.0384545," ""- N/A -   """
2.92,85.74781,0.005050912, NaN, NaN, NaN,0.03601294," ""- N/A -   """
2.94,86.4555,0.005087009, NaN, NaN, NaN,0.0347922," ""- N/A -   """
2.96,87.04523,0.005123107, NaN, NaN, NaN,0.0335714," ""- N/A -   """
2.98,87.75292,0.005156428, NaN, NaN, NaN,0.0335714," ""- N/A -   """
3.0,88.34265,0.005192526, NaN, NaN, NaN,0.0323506," ""- N/A -   """
3.02,89.05035,0.0052314, NaN, NaN, NaN,0.03112983," ""- N/A -   """
3.04,89.758,0.0052675, NaN, NaN, NaN,0.0286883," ""- N/A -   """
3.06,90.4657,0.005303596, NaN, NaN, NaN,0.0286883," ""- N/A -   """
3.08,91.05545,0.00533692, NaN, NaN, NaN,0.0274675," ""- N/A -   """
3.1,91.64519,0.00537024, NaN, NaN, NaN,0.0274675," ""- N/A -   """
3.12,92.23492,0.005403559, NaN, NaN, NaN,0.0274675," ""- N/A -   """
3.14,92.82466,0.00543966, NaN, NaN, NaN,0.0262467," ""- N/A -   """
3.16,93.53234,0.0054702, NaN, NaN, NaN,0.0274675," ""- N/A -   """
3.18,94.0041,0.00550075, NaN, NaN, NaN,0.0286883," ""- N/A -   """
3.2,94.47592,0.00553407, NaN, NaN, NaN,0.0299091," ""- N/A -   """
3.22,95.06567,0.005561834, NaN, NaN, NaN,0.03112983," ""- N/A -   """
3.24,95.5374,0.005586825, NaN, NaN, NaN,0.0347922," ""- N/A -   """
3.26,96.00924,0.00561737, NaN, NaN, NaN,0.03601294," ""- N/A -   """
3.28,96.599,0.00564791, NaN, NaN, NaN,0.0372337," ""- N/A -   """
3.3,97.18872,0.00567846, NaN, NaN, NaN,0.0384545," ""- N/A -   """
3.32,97.6605,0.00570623, NaN, NaN, NaN,0.04089605," ""- N/A -   """
3.34,98.2502,0.00573677, NaN, NaN, NaN,0.04211683," ""- N/A -   """
3.36,98.72203,0.00577009, NaN, NaN, NaN,0.0433376," ""- N/A -   """
3.38,99.42972,0.00580063, NaN, NaN, NaN,0.0433376," ""- N/A -   """
3.4,100.019,0.00583396, NaN, NaN, NaN,0.0433376," ""- N/A -   """
3.42,100.727,0.00587005, NaN, NaN, NaN,0.0433376," ""- N/A -   """
3.44,101.435,0.00590337, NaN, NaN, NaN,0.0433376," ""- N/A -   """
3.46,101.907,0.0059367, NaN, NaN, NaN,0.04211683," ""- N/A -   """
3.48,102.6143,0.00597002, NaN, NaN, NaN,0.0433376," ""- N/A -   """
3.5,103.204,0.00600611, NaN, NaN, NaN,0.04089605," ""- N/A -   """
3.52,104.03,0.006042212, NaN, NaN, NaN,0.04089605," ""- N/A -   """
3.54,104.619,0.006075533, NaN, NaN, NaN,0.04089605," ""- N/A -   """
3.56,105.209,0.00611163, NaN, NaN, NaN,0.0396753," ""- N/A -   """
3.58,105.917,0.006144952, NaN, NaN, NaN,0.0396753," ""- N/A -   """
3.6,106.625,0.00618105, NaN, NaN, NaN,0.0384545," ""- N/A -   """
3.62,107.3322,0.00621715, NaN, NaN, NaN,0.0372337," ""- N/A -   """
3.64,108.04,0.00625325, NaN, NaN, NaN,0.03601294," ""- N/A -   """
3.66,108.748,0.00629212, NaN, NaN, NaN,0.0347922," ""- N/A -   """
3.68,109.455,0.00632822, NaN, NaN, NaN,0.0323506," ""- N/A -   """
3.7,110.045,0.00636432, NaN, NaN, NaN,0.03112983," ""- N/A -   """
3.72,110.635,0.006400413, NaN, NaN, NaN,0.03112983," ""- N/A -   """
3.74,111.342,0.006430957, NaN, NaN, NaN,0.03112983," ""- N/A -   """
3.76,111.932,0.00646428, NaN, NaN, NaN,0.0323506," ""- N/A -   """
3.78,112.522,0.006494823, NaN, NaN, NaN,0.0335714," ""- N/A -   """
3.8,112.994,0.006525367, NaN, NaN, NaN,0.0335714," ""- N/A -   """
3.82,113.465,0.006555911, NaN, NaN, NaN,0.0347922," ""- N/A -   """
3.84,114.2911,0.006589232, NaN, NaN, NaN,0.0347922," ""- N/A -   """
3.86,114.763,0.006617, NaN, NaN, NaN,0.0372337," ""- N/A -   """
3.88,115.471,0.006650321, NaN, NaN, NaN,0.0384545," ""- N/A -   """
3.9,116.178,0.006683642, NaN, NaN, NaN,0.0372337," ""- N/A -   """
3.92,116.65,0.006716963, NaN, NaN, NaN,0.0372337," ""- N/A -   """
3.94,117.358,0.006750284, NaN, NaN, NaN,0.0372337," ""- N/A -   """
3.96,118.065,0.006783605, NaN, NaN, NaN,0.0384545," ""- N/A -   """
3.98,118.655,0.006816926, NaN, NaN, NaN,0.0372337," ""- N/A -   """
4,119.245,0.00684747, NaN, NaN, NaN,0.0384545," ""- N/A -   """
4.02,119.835,0.006878014, NaN, NaN, NaN,0.04089605," ""- N/A -   """
4.04,120.306,0.006905782, NaN, NaN, NaN,0.04211683," ""- N/A -   """
4.06,120.896,0.006936326, NaN, NaN, NaN,0.0433376," ""- N/A -   """
4.08,121.486,0.00696687, NaN, NaN, NaN,0.0445584," ""- N/A -   """
4.1,122.076,0.00699742, NaN, NaN, NaN,0.04577916," ""- N/A -   """
4.12,122.665,0.00702796, NaN, NaN, NaN,0.04699994," ""- N/A -   """
4.14,123.255,0.00706128, NaN, NaN, NaN,0.0482207," ""- N/A -   """
4.16,123.963,0.007094601, NaN, NaN, NaN,0.04699994," ""- N/A -   """
4.18,124.67,0.00713348, NaN, NaN, NaN,0.0445584," ""- N/A -   """
4.2,125.496,0.00717235, NaN, NaN, NaN,0.0433376," ""- N/A -   """
4.22,126.322,0.00721122, NaN, NaN, NaN,0.0396753," ""- N/A -   """
4.24,127.147,0.007252876, NaN, NaN, NaN,0.03601294," ""- N/A -   """
4.26,127.737,0.007288974, NaN, NaN, NaN,0.0347922," ""- N/A -   """
4.28,128.563,0.00733063, NaN, NaN, NaN,0.0323506," ""- N/A -   """
4.3,129.27,0.007363946, NaN, NaN, NaN,0.03112983," ""- N/A -   """
4.32,129.86,0.00740282, NaN, NaN, NaN,0.0299091," ""- N/A -   """
4.34,130.568,0.007436142, NaN, NaN, NaN,0.0286883," ""- N/A -   """
4.36,131.1576,0.007466686, NaN, NaN, NaN,0.0299091," ""- N/A -   """
4.38,131.865,0.00749723, NaN, NaN, NaN,0.03112983," ""- N/A -   """
4.4,132.219,0.00752777, NaN, NaN, NaN,0.0323506," ""- N/A -   """
4.42,132.9268,0.007558319, NaN, NaN, NaN,0.0335714," ""- N/A -   """
4.44,133.517,0.00759164, NaN, NaN, NaN,0.0335714," ""- N/A -   """
4.46,134.224,0.00762218, NaN, NaN, NaN,0.0347922," ""- N/A -   """
4.48,134.696,0.00765273, NaN, NaN, NaN,0.03601294," ""- N/A -   """
4.5,135.522,0.0076916, NaN, NaN, NaN,0.0347922," ""- N/A -   """
4.52,136.229,0.00773048, NaN, NaN, NaN,0.03112983," ""- N/A -   """
4.54,137.055,0.007766575, NaN, NaN, NaN,0.0299091," ""- N/A -   """
4.56,137.527,0.007799896, NaN, NaN, NaN,0.03112983," ""- N/A -   """
4.58,138.352,0.007830441, NaN, NaN, NaN,0.03112983," ""- N/A -   """
4.6,138.824,0.007863762, NaN, NaN, NaN,0.03112983," ""- N/A -   """
4.62,139.532,0.00789431, NaN, NaN, NaN,0.0323506," ""- N/A -   """
4.64,140.004,0.00792485, NaN, NaN, NaN,0.0335714," ""- N/A -   """
4.66,140.711,0.007958171, NaN, NaN, NaN,0.0335714," ""- N/A -   """
4.68,141.301,0.007991492, NaN, NaN, NaN,0.0335714," ""- N/A -   """
4.7,142.009,0.008024813, NaN, NaN, NaN,0.0347922," ""- N/A -   """
4.72,142.5985,0.008055357, NaN, NaN, NaN,0.0347922," ""- N/A -   """
4.74,143.188,0.008088678, NaN, NaN, NaN,0.0347922," ""- N/A -   """
4.76,143.896,0.008121999, NaN, NaN, NaN,0.0347922," ""- N/A -   """
4.78,144.486,0.00815532, NaN, NaN, NaN,0.0347922," ""- N/A -   """
4.8,145.0754,0.008183088, NaN, NaN, NaN,0.0372337," ""- N/A -   """
4.82,145.547,0.008213632, NaN, NaN, NaN,0.0384545," ""- N/A -   """
4.84,146.137,0.0082414, NaN, NaN, NaN,0.04089605," ""- N/A -   """
4.86,146.8446,0.008271944, NaN, NaN, NaN,0.04211683," ""- N/A -   """
4.88,147.316,0.008305265, NaN, NaN, NaN,0.04211683," ""- N/A -   """
4.9,148.024,0.008338586, NaN, NaN, NaN,0.0433376," ""- N/A -   """
4.92,148.6138,0.00836913, NaN, NaN, NaN,0.0433376," ""- N/A -   """
4.94,149.3215,0.008402451, NaN, NaN, NaN,0.0433376," ""- N/A -   """
4.96,150.029,0.008435773, NaN, NaN, NaN,0.0433376," ""- N/A -   """
4.98,150.619,0.008469094, NaN, NaN, NaN,0.0433376," ""- N/A -   """
5,151.327,0.008502414, NaN, NaN, NaN,0.0433376," ""- N/A -   """
5.02,151.798,0.008532958, NaN, NaN, NaN,0.0445584," ""- N/A -   """
5.04,152.506,0.008563503, NaN, NaN, NaN,0.04577916," ""- N/A -   """
5.06,152.978,0.008594047, NaN, NaN, NaN,0.04699994," ""- N/A -   """
5.08,153.686,0.008630145, NaN, NaN, NaN,0.04577916," ""- N/A -   """
5.1,154.511,0.00866902, NaN, NaN, NaN,0.0433376," ""- N/A -   """
5.12,155.337,0.00871345, NaN, NaN, NaN,0.0396753," ""- N/A -   """
5.14,156.2804,0.008749546, NaN, NaN, NaN,0.0372337," ""- N/A -   """
5.16,156.988,0.00878842, NaN, NaN, NaN,0.0347922," ""- N/A -   """
5.18,157.696,0.008827294, NaN, NaN, NaN,0.0323506," ""- N/A -   """
5.2,158.521,0.008863392, NaN, NaN, NaN,0.03112983," ""- N/A -   """
5.22,159.111,0.008902267, NaN, NaN, NaN,0.0299091," ""- N/A -   """
5.24,159.819,0.00893559, NaN, NaN, NaN,0.0286883," ""- N/A -   """
5.26,160.5265,0.008968908, NaN, NaN, NaN,0.0286883," ""- N/A -   """
5.28,161.116,0.009002229, NaN, NaN, NaN,0.0286883," ""- N/A -   """
5.3,161.706,0.009032774, NaN, NaN, NaN,0.0299091," ""- N/A -   """
5.32,162.414,0.009068872, NaN, NaN, NaN,0.0286883," ""- N/A -   """
5.34,163.121,0.009102193, NaN, NaN, NaN,0.0299091," ""- N/A -   """
5.36,163.593,0.00912996, NaN, NaN, NaN,0.03112983," ""- N/A -   """
5.38,164.183,0.00915773, NaN, NaN, NaN,0.0335714," ""- N/A -   """
5.4,164.773,0.009188272, NaN, NaN, NaN,0.0347922," ""- N/A -   """
5.42,165.362,0.009218817, NaN, NaN, NaN,0.03601294," ""- N/A -   """
5.44,165.834,0.009246584, NaN, NaN, NaN,0.0384545," ""- N/A -   """
5.46,166.424,0.009277128, NaN, NaN, NaN,0.0396753," ""- N/A -   """
5.48,167.014,0.009307672, NaN, NaN, NaN,0.04089605," ""- N/A -   """
5.5,167.603,0.009338217, NaN, NaN, NaN,0.04211683," ""- N/A -   """
5.52,168.311,0.009371538, NaN, NaN, NaN,0.0433376," ""- N/A -   """
5.54,169.019,0.009402082, NaN, NaN, NaN,0.0433376," ""- N/A -   """
5.56,169.726,0.009435403, NaN, NaN, NaN,0.0433376," ""- N/A -   """
5.58,170.316,0.009468724, NaN, NaN, NaN,0.0433376," ""- N/A -   """
5.6,171.142,0.009507598, NaN, NaN, NaN,0.04211683," ""- N/A -   """
5.62,171.849,0.009543696, NaN, NaN, NaN,0.0396753," ""- N/A -   """
5.64,172.6751,0.009585347, NaN, NaN, NaN,0.0372337," ""- N/A -   """
5.66,173.501,0.009624222, NaN, NaN, NaN,0.0335714," ""- N/A -   """
5.68,174.208,0.00966032, NaN, NaN, NaN,0.0335714," ""- N/A -   """
5.7,174.798,0.00969364, NaN, NaN, NaN,0.0323506," ""- N/A -   """
5.72,175.506,0.009732515, NaN, NaN, NaN,0.03112983," ""- N/A -   """
5.74,176.214,0.009763059, NaN, NaN, NaN,0.03112983," ""- N/A -   """
5.76,176.803,0.00979638, NaN, NaN, NaN,0.03112983," ""- N/A -   """
5.78,177.511,0.009826925, NaN, NaN, NaN,0.0323506," ""- N/A -   """
5.8,177.983,0.009857468, NaN, NaN, NaN,0.0335714," ""- N/A -   """
5.82,178.572,0.00989079, NaN, NaN, NaN,0.0335714," ""- N/A -   """
5.84,179.3981,0.009926887, NaN, NaN, NaN,0.0323506," ""- N/A -   """
5.86,180.106,0.009962985, NaN, NaN, NaN,0.03112983," ""- N/A -   """
5.88,180.813,0.009999082, NaN, NaN, NaN,0.03112983," ""- N/A -   """
5.9,181.521,0.0100352, NaN, NaN, NaN,0.0286883," ""- N/A -   """
5.92,182.229,0.0100713, NaN, NaN, NaN,0.0274675," ""- N/A -   """
5.94,183.054,0.0101046, NaN, NaN, NaN,0.0274675," ""- N/A -   """
5.96,183.644,0.0101351, NaN, NaN, NaN,0.0286883," ""- N/A -   """
5.98,184.234,0.0101685, NaN, NaN, NaN,0.0286883," ""- N/A -   """
6,184.706,0.0101962, NaN, NaN, NaN,0.03112983," ""- N/A -   """
6.02,185.295,0.0102212, NaN, NaN, NaN,0.0347922," ""- N/A -   """
6.04,185.767,0.0102518, NaN, NaN, NaN,0.03601294," ""- N/A -   """
6.06,186.357,0.0102795, NaN, NaN, NaN,0.0384545," ""- N/A -   """
6.08,186.829,0.0103073, NaN, NaN, NaN,0.04089605," ""- N/A -   """
6.1,187.419,0.01033507, NaN, NaN, NaN,0.0433376," ""- N/A -   """
6.12,188.008,0.0103656, NaN, NaN, NaN,0.04577916," ""- N/A -   """
6.14,188.598,0.0103962, NaN, NaN, NaN,0.04577916," ""- N/A -   """
6.16,189.3057,0.0104295, NaN, NaN, NaN,0.04699994," ""- N/A -   """
6.18,190.013,0.0104628, NaN, NaN, NaN,0.04577916," ""- N/A -   """
6.2,190.839,0.0104961, NaN, NaN, NaN,0.04577916," ""- N/A -   """
6.22,191.547,0.010535, NaN, NaN, NaN,0.0445584," ""- N/A -   """
6.24,192.254,0.0105683, NaN, NaN, NaN,0.0433376," ""- N/A -   """
6.26,192.962,0.0106072, NaN, NaN, NaN,0.04089605," ""- N/A -   """
6.28,193.7877,0.0106461, NaN, NaN, NaN,0.0384545," ""- N/A -   """
6.3,194.613,0.0106849, NaN, NaN, NaN,0.03601294," ""- N/A -   """
6.32,195.321,0.010721, NaN, NaN, NaN,0.0347922," ""- N/A -   """
6.34,196.0287,0.0107544, NaN, NaN, NaN,0.0347922," ""- N/A -   """
6.36,196.736,0.0107905, NaN, NaN, NaN,0.0347922," ""- N/A -   """
6.38,197.208,0.010821, NaN, NaN, NaN,0.03601294," ""- N/A -   """
6.4,197.916,0.0108515, NaN, NaN, NaN,0.03601294," ""- N/A -   """
6.42,198.506,0.0108876, NaN, NaN, NaN,0.0347922," ""- N/A -   """
6.44,199.449,0.0109265, NaN, NaN, NaN,0.0323506," ""- N/A -   """
6.46,200.275,0.0109682, NaN, NaN, NaN,0.0299091," ""- N/A -   """
6.48,200.9825,0.011007, NaN, NaN, NaN,0.0262467," ""- N/A -   """
6.5,201.69,0.0110431, NaN, NaN, NaN,0.0262467," ""- N/A -   """
6.52,202.162,0.0110709, NaN, NaN, NaN,0.0274675," ""- N/A -   """
6.54,202.7517,0.0110987, NaN, NaN, NaN,0.0299091," ""- N/A -   """
6.56,203.341,0.0111292, NaN, NaN, NaN,0.03112983," ""- N/A -   """
6.58,203.931,0.0111625, NaN, NaN, NaN,0.0323506," ""- N/A -   """
6.6,204.521,0.0111931, NaN, NaN, NaN,0.0335714," ""- N/A -   """
6.62,205.111,0.0112236, NaN, NaN, NaN,0.0335714," ""- N/A -   """
6.64,205.7,0.0112542, NaN, NaN, NaN,0.0347922," ""- N/A -   """
6.66,206.29,0.0112819, NaN, NaN, NaN,0.0372337," ""- N/A -   """
6.68,206.88,0.0113097, NaN, NaN, NaN,0.0396753," ""- N/A -   """
6.7,207.352,0.011343, NaN, NaN, NaN,0.0396753," ""- N/A -   """
6.72,207.941,0.0113764, NaN, NaN, NaN,0.0396753," ""- N/A -   """
6.74,208.767,0.0114069, NaN, NaN, NaN,0.04089605," ""- N/A -   """
6.76,209.357,0.0114402, NaN, NaN, NaN,0.04211683," ""- N/A -   """
6.78,209.946,0.0114708, NaN, NaN, NaN,0.04211683," ""- N/A -   """
6.8,210.654,0.0115069, NaN, NaN, NaN,0.04211683," ""- N/A -   """
6.82,211.244,0.01154018, NaN, NaN, NaN,0.04089605," ""- N/A -   """
6.84,212.07,0.0115735, NaN, NaN, NaN,0.04211683," ""- N/A -   """
6.86,212.6593,0.011604, NaN, NaN, NaN,0.04211683," ""- N/A -   """
6.88,213.249,0.0116401, NaN, NaN, NaN,0.04211683," ""- N/A -   """
6.9,213.957,0.0116707, NaN, NaN, NaN,0.04211683," ""- N/A -   """
6.92,214.546,0.0117068, NaN, NaN, NaN,0.04089605," ""- N/A -   """
6.94,215.254,0.01173733, NaN, NaN, NaN,0.04211683," ""- N/A -   """
6.96,215.844,0.01177065, NaN, NaN, NaN,0.04211683," ""- N/A -   """
6.98,216.552,0.0118095, NaN, NaN, NaN,0.04089605," ""- N/A -   """
7,217.495,0.0118484, NaN, NaN, NaN,0.0372337," ""- N/A -   """
7.02,218.321,0.0118901, NaN, NaN, NaN,0.0347922," ""- N/A -   """
7.04,219.028,0.0119289, NaN, NaN, NaN,0.03112983," ""- N/A -   """
7.06,219.8541,0.0119678, NaN, NaN, NaN,0.0299091," ""- N/A -   """
7.08,220.68,0.0120039, NaN, NaN, NaN,0.0286883," ""- N/A -   """
7.1,221.152,0.0120344, NaN, NaN, NaN,0.0286883," ""- N/A -   """
7.12,221.859,0.01207054, NaN, NaN, NaN,0.0286883," ""- N/A -   """
7.14,222.567,0.0121011, NaN, NaN, NaN,0.0286883," ""- N/A -   """
7.16,223.157,0.0121344, NaN, NaN, NaN,0.0286883," ""- N/A -   """
7.18,223.746,0.0121677, NaN, NaN, NaN,0.0299091," ""- N/A -   """
7.2,224.336,0.01219827, NaN, NaN, NaN,0.0299091," ""- N/A -   """
7.22,225.044,0.0122316, NaN, NaN, NaN,0.0299091," ""- N/A -   """
7.24,225.6335,0.0122621, NaN, NaN, NaN,0.03112983," ""- N/A -   """
7.26,226.3412,0.0122955, NaN, NaN, NaN,0.03112983," ""- N/A -   """
7.28,226.931,0.0123288, NaN, NaN, NaN,0.03112983," ""- N/A -   """
7.3,227.521,0.0123593, NaN, NaN, NaN,0.0323506," ""- N/A -   """
7.32,228.11,0.0123899, NaN, NaN, NaN,0.0335714," ""- N/A -   """
7.34,228.7,0.0124232, NaN, NaN, NaN,0.0347922," ""- N/A -   """
7.36,229.408,0.0124537, NaN, NaN, NaN,0.0347922," ""- N/A -   """
7.38,229.998,0.0124871, NaN, NaN, NaN,0.0347922," ""- N/A -   """
7.4,230.587,0.0125176, NaN, NaN, NaN,0.03601294," ""- N/A -   """
7.42,231.177,0.01254814, NaN, NaN, NaN,0.0384545," ""- N/A -   """
7.44,231.649,0.0125787, NaN, NaN, NaN,0.0396753," ""- N/A -   """
7.46,232.239,0.0126065, NaN, NaN, NaN,0.04089605," ""- N/A -   """
7.48,232.828,0.012637, NaN, NaN, NaN,0.04211683," ""- N/A -   """
7.5,233.536,0.0126675, NaN, NaN, NaN,0.0433376," ""- N/A -   """
7.52,234.126,0.0127009, NaN, NaN, NaN,0.0445584," ""- N/A -   """
7.54,234.715,0.0127342, NaN, NaN, NaN,0.0433376," ""- N/A -   """
7.56,235.423,0.0127647, NaN, NaN, NaN,0.0445584," ""- N/A -   """
7.58,236.131,0.0128008, NaN, NaN, NaN,0.0433376," ""- N/A -   """
7.6,236.956,0.0128397, NaN, NaN, NaN,0.04089605," ""- N/A -   """
7.62,237.7821,0.0128814, NaN, NaN, NaN,0.0384545," ""- N/A -   """
7.64,238.726,0.0129202, NaN, NaN, NaN,0.0347922," ""- N/A -   """
7.66,239.433,0.0129591, NaN, NaN, NaN,0.0323506," ""- N/A -   """
7.68,240.259,0.0129952, NaN, NaN, NaN,0.0323506," ""- N/A -   """
7.7,240.849,0.0130285, NaN, NaN, NaN,0.03112983," ""- N/A -   """
7.72,241.438,0.0130646, NaN, NaN, NaN,0.03112983," ""- N/A -   """
7.74,242.028,0.0130952, NaN, NaN, NaN,0.0323506," ""- N/A -   """
7.76,242.618,0.0131229, NaN, NaN, NaN,0.0335714," ""- N/A -   """
7.78,243.089,0.0131535, NaN, NaN, NaN,0.0347922," ""- N/A -   """
7.8,243.678,0.013184, NaN, NaN, NaN,0.03601294," ""- N/A -   """
7.82,244.2674,0.0132173, NaN, NaN, NaN,0.0372337," ""- N/A -   """
7.84,245.092,0.0132507, NaN, NaN, NaN,0.03601294," ""- N/A -   """
7.86,245.799,0.0132868, NaN, NaN, NaN,0.03601294," ""- N/A -   """
7.88,246.506,0.0133173, NaN, NaN, NaN,0.03601294," ""- N/A -   """
7.9,247.095,0.0133534, NaN, NaN, NaN,0.0347922," ""- N/A -   """
7.92,247.92,0.0133895, NaN, NaN, NaN,0.0335714," ""- N/A -   """
7.94,248.509,0.0134228, NaN, NaN, NaN,0.0335714," ""- N/A -   """
7.96,249.098,0.0134561, NaN, NaN, NaN,0.0335714," ""- N/A -   """
7.98,249.805,0.0134895, NaN, NaN, NaN,0.0335714," ""- N/A -   """
7.99,250.041,0.0135061, NaN, NaN, NaN,0.0347922," ""- N/A -   """
8,250.512,0.01352, NaN, NaN, NaN,0.0347922," ""- N/A -   """
8.01,250.63,0.0135367, NaN, NaN, NaN,0.0347922," ""- N/A -   """
8.02,250.983,0.0135533, NaN, NaN, NaN,0.03601294," ""- N/A -   """
8.03,251.337,0.0135672, NaN, NaN, NaN,0.03601294," ""- N/A -   """
8.04,251.69,0.01358387, NaN, NaN, NaN,0.03601294," ""- N/A -   """
8.05,251.926,0.0136005, NaN, NaN, NaN,0.0372337," ""- N/A -   """
8.06,252.28,0.0136144, NaN, NaN, NaN,0.0384545," ""- N/A -   """
8.07,252.515,0.0136283, NaN, NaN, NaN,0.0396753," ""- N/A -   """
8.08,252.8687,0.013645, NaN, NaN, NaN,0.04089605," ""- N/A -   """
8.09,253.104,0.0136616, NaN, NaN, NaN,0.04089605," ""- N/A -   """
8.1,253.458,0.0136755, NaN, NaN, NaN,0.04089605," ""- N/A -   """
8.11,253.811,0.0136922, NaN, NaN, NaN,0.04089605," ""- N/A -   """
8.12,254.047,0.0137088, NaN, NaN, NaN,0.04089605," ""- N/A -   """
8.13,254.4,0.0137255, NaN, NaN, NaN,0.04089605," ""- N/A -   """
8.14,254.7539,0.0137421, NaN, NaN, NaN,0.04089605," ""- N/A -   """
8.15,255.225,0.0137588, NaN, NaN, NaN,0.04089605," ""- N/A -   """
8.16,255.461,0.0137755, NaN, NaN, NaN,0.04089605," ""- N/A -   """
8.17,255.932,0.0137921, NaN, NaN, NaN,0.04089605," ""- N/A -   """
8.18,256.286,0.0138116, NaN, NaN, NaN,0.0396753," ""- N/A -   """
8.19,256.639,0.0138282, NaN, NaN, NaN,0.04089605," ""- N/A -   """
8.2,256.8748,0.0138449, NaN, NaN, NaN,0.0396753," ""- N/A -   """
8.21,257.228,0.0138615, NaN, NaN, NaN,0.0396753," ""- N/A -   """
8.22,257.582,0.0138782, NaN, NaN, NaN,0.0396753," ""- N/A -   """
8.23,257.9352,0.0138949, NaN, NaN, NaN,0.0396753," ""- N/A -   """
8.24,258.171,0.0139115, NaN, NaN, NaN,0.0396753," ""- N/A -   """
8.25,258.407,0.0139282, NaN, NaN, NaN,0.0396753," ""- N/A -   """
8.26,258.878,0.0139448, NaN, NaN, NaN,0.0396753," ""- N/A -   """
8.27,259.349,0.0139615, NaN, NaN, NaN,0.0396753," ""- N/A -   """
8.28,259.585,0.0139809, NaN, NaN, NaN,0.0396753," ""- N/A -   """
8.29,259.938,0.0139976, NaN, NaN, NaN,0.0396753," ""- N/A -   """
8.3,260.292,0.0140143, NaN, NaN, NaN,0.0384545," ""- N/A -   """
8.31,260.6452,0.0140337, NaN, NaN, NaN,0.0384545," ""- N/A -   """
8.32,260.9987,0.0140504, NaN, NaN, NaN,0.0372337," ""- N/A -   """
8.33,261.352,0.014067, NaN, NaN, NaN,0.0372337," ""- N/A -   """
8.34,261.706,0.0140837, NaN, NaN, NaN,0.0384545," ""- N/A -   """
8.35,261.9413,0.0141003, NaN, NaN, NaN,0.0372337," ""- N/A -   """
8.36,262.295,0.014117, NaN, NaN, NaN,0.0372337," ""- N/A -   """
8.37,262.648,0.0141337, NaN, NaN, NaN,0.0372337," ""- N/A -   """
8.38,263.12,0.0141531, NaN, NaN, NaN,0.0372337," ""- N/A -   """
8.39,263.473,0.0141725, NaN, NaN, NaN,0.03601294," ""- N/A -   """
8.4,263.7087,0.0141892, NaN, NaN, NaN,0.0347922," ""- N/A -   """
8.41,264.0622,0.0142059, NaN, NaN, NaN,0.03601294," ""- N/A -   """
8.42,264.298,0.0142225, NaN, NaN, NaN,0.03601294," ""- N/A -   """
8.43,264.6513,0.0142392, NaN, NaN, NaN,0.03601294," ""- N/A -   """
8.44,264.887,0.0142531, NaN, NaN, NaN,0.03601294," ""- N/A -   """
8.45,265.358,0.0142725, NaN, NaN, NaN,0.0347922," ""- N/A -   """
8.46,265.712,0.0142892, NaN, NaN, NaN,0.0347922," ""- N/A -   """
8.47,265.9474,0.0143058, NaN, NaN, NaN,0.0347922," ""- N/A -   """
8.48,266.4187,0.0143225, NaN, NaN, NaN,0.0347922," ""- N/A -   """
8.49,266.7722,0.0143419, NaN, NaN, NaN,0.0347922," ""- N/A -   """
8.5,267.126,0.0143586, NaN, NaN, NaN,0.0335714," ""- N/A -   """
8.51,267.479,0.014378, NaN, NaN, NaN,0.0335714," ""- N/A -   """
8.52,267.8326,0.0143947, NaN, NaN, NaN,0.0323506," ""- N/A -   """
8.53,268.1861,0.0144141, NaN, NaN, NaN,0.0323506," ""- N/A -   """
8.54,268.54,0.014428, NaN, NaN, NaN,0.0323506," ""- N/A -   """
8.55,268.7752,0.0144447, NaN, NaN, NaN,0.0323506," ""- N/A -   """
8.56,269.247,0.0144613, NaN, NaN, NaN,0.0323506," ""- N/A -   """
8.57,269.482,0.014478, NaN, NaN, NaN,0.0323506," ""- N/A -   """
8.58,269.9535,0.0144946, NaN, NaN, NaN,0.0323506," ""- N/A -   """
8.59,270.307,0.0145113, NaN, NaN, NaN,0.0323506," ""- N/A -   """
8.6,270.5426,0.014528, NaN, NaN, NaN,0.0323506," ""- N/A -   """
8.61,270.8961,0.0145446, NaN, NaN, NaN,0.0323506," ""- N/A -   """
8.62,271.132,0.0145613, NaN, NaN, NaN,0.0323506," ""- N/A -   """
8.63,271.485,0.0145779, NaN, NaN, NaN,0.0335714," ""- N/A -   """
8.64,271.7209,0.0145918, NaN, NaN, NaN,0.0335714," ""- N/A -   """
8.65,272.192,0.0146085, NaN, NaN, NaN,0.0335714," ""- N/A -   """
8.66,272.428,0.0146252, NaN, NaN, NaN,0.0335714," ""- N/A -   """
8.67,272.7813,0.0146418, NaN, NaN, NaN,0.0335714," ""- N/A -   """
8.68,273.253,0.0146585, NaN, NaN, NaN,0.0335714," ""- N/A -   """
8.69,273.606,0.01467791, NaN, NaN, NaN,0.0335714," ""- N/A -   """
8.7,273.842,0.0146918, NaN, NaN, NaN,0.0335714," ""- N/A -   """
8.71,274.195,0.0147112, NaN, NaN, NaN,0.0335714," ""- N/A -   """
8.72,274.549,0.0147279, NaN, NaN, NaN,0.0335714," ""- N/A -   """
8.73,274.9022,0.0147446, NaN, NaN, NaN,0.0323506," ""- N/A -   """
8.74,275.256,0.0147612, NaN, NaN, NaN,0.0323506," ""- N/A -   """
8.75,275.4913,0.0147751, NaN, NaN, NaN,0.0335714," ""- N/A -   """
8.76,275.8448,0.0147918, NaN, NaN, NaN,0.0347922," ""- N/A -   """
8.77,276.08,0.01480564, NaN, NaN, NaN,0.0347922," ""- N/A -   """
8.78,276.3161,0.0148195, NaN, NaN, NaN,0.03601294," ""- N/A -   """
8.79,276.67,0.0148362, NaN, NaN, NaN,0.0372337," ""- N/A -   """
8.8,276.9052,0.0148501, NaN, NaN, NaN,0.0372337," ""- N/A -   """
8.81,277.377,0.0148667, NaN, NaN, NaN,0.0372337," ""- N/A -   """
8.82,277.494,0.01488339, NaN, NaN, NaN,0.0384545," ""- N/A -   """
8.83,277.8478,0.0148945, NaN, NaN, NaN,0.0396753," ""- N/A -   """
8.84,278.2013,0.0149112, NaN, NaN, NaN,0.0396753," ""- N/A -   """
8.85,278.437,0.0149278, NaN, NaN, NaN,0.0396753," ""- N/A -   """
8.86,278.79,0.0149445, NaN, NaN, NaN,0.04089605," ""- N/A -   """
8.87,279.144,0.0149584, NaN, NaN, NaN,0.04089605," ""- N/A -   """
8.88,279.497,0.014975, NaN, NaN, NaN,0.04089605," ""- N/A -   """
8.89,279.851,0.0149917, NaN, NaN, NaN,0.04089605," ""- N/A -   """
8.9,280.087,0.0150083, NaN, NaN, NaN,0.04089605," ""- N/A -   """
8.91,280.44,0.0150222, NaN, NaN, NaN,0.04211683," ""- N/A -   """
8.92,280.7935,0.0150389, NaN, NaN, NaN,0.04211683," ""- N/A -   """
8.93,281.0291,0.0150555, NaN, NaN, NaN,0.0433376," ""- N/A -   """
8.94,281.3826,0.0150694, NaN, NaN, NaN,0.0433376," ""- N/A -   """
8.95,281.8539,0.0150861, NaN, NaN, NaN,0.0445584," ""- N/A -   """
8.96,282.09,0.0151028, NaN, NaN, NaN,0.0445584," ""- N/A -   """
8.97,282.443,0.0151194, NaN, NaN, NaN,0.0433376," ""- N/A -   """
8.98,282.914,0.0151389, NaN, NaN, NaN,0.04211683," ""- N/A -   """
8.99,283.15,0.0151555, NaN, NaN, NaN,0.04211683," ""- N/A -   """
9,283.503,0.0151722, NaN, NaN, NaN,0.04211683," ""- N/A -   """
9.01,283.857,0.01519161, NaN, NaN, NaN,0.04211683," ""- N/A -   """
9.02,284.21,0.0152083, NaN, NaN, NaN,0.04089605," ""- N/A -   """
9.03,284.682,0.0152277, NaN, NaN, NaN,0.0396753," ""- N/A -   """
9.04,285.153,0.0152471, NaN, NaN, NaN,0.0396753," ""- N/A -   """
9.05,285.624,0.0152666, NaN, NaN, NaN,0.0372337," ""- N/A -   """
9.06,285.978,0.015286, NaN, NaN, NaN,0.0372337," ""- N/A -   """
9.07,286.213,0.0153027, NaN, NaN, NaN,0.03601294," ""- N/A -   """
9.08,286.685,0.01531934, NaN, NaN, NaN,0.03601294," ""- N/A -   """
9.09,287.038,0.0153388, NaN, NaN, NaN,0.0347922," ""- N/A -   """
9.1,287.392,0.0153582, NaN, NaN, NaN,0.0347922," ""- N/A -   """
9.11,287.7452,0.0153721, NaN, NaN, NaN,0.0347922," ""- N/A -   """
9.12,288.0987,0.0153888, NaN, NaN, NaN,0.0347922," ""- N/A -   """
9.13,288.334,0.0154054, NaN, NaN, NaN,0.0347922," ""- N/A -   """
9.14,288.688,0.01542208, NaN, NaN, NaN,0.03601294," ""- N/A -   """
9.15,289.041,0.015436, NaN, NaN, NaN,0.03601294," ""- N/A -   """
9.16,289.277,0.0154498, NaN, NaN, NaN,0.0372337," ""- N/A -   """
9.17,289.63,0.0154665, NaN, NaN, NaN,0.0372337," ""- N/A -   """
9.18,289.984,0.0154832, NaN, NaN, NaN,0.0372337," ""- N/A -   """
9.19,290.22,0.0154998, NaN, NaN, NaN,0.0372337," ""- N/A -   """
9.2,290.573,0.0155165, NaN, NaN, NaN,0.0372337," ""- N/A -   """
9.21,291.044,0.0155359, NaN, NaN, NaN,0.0372337," ""- N/A -   """
9.22,291.28,0.0155526, NaN, NaN, NaN,0.03601294," ""- N/A -   """
9.23,291.7513,0.015572, NaN, NaN, NaN,0.03601294," ""- N/A -   """
9.24,292.105,0.0155887, NaN, NaN, NaN,0.0347922," ""- N/A -   """
9.25,292.458,0.0156053, NaN, NaN, NaN,0.03601294," ""- N/A -   """
9.26,292.812,0.015622, NaN, NaN, NaN,0.0347922," ""- N/A -   """
9.27,293.165,0.0156414, NaN, NaN, NaN,0.0335714," ""- N/A -   """
9.28,293.637,0.01566088, NaN, NaN, NaN,0.0323506," ""- N/A -   """
9.29,294.108,0.0156803, NaN, NaN, NaN,0.03112983," ""- N/A -   """
9.3,294.343,0.015697, NaN, NaN, NaN,0.03112983," ""- N/A -   """
9.31,294.697,0.0157136, NaN, NaN, NaN,0.03112983," ""- N/A -   """
9.32,294.9326,0.0157331, NaN, NaN, NaN,0.03112983," ""- N/A -   """
9.33,295.404,0.0157497, NaN, NaN, NaN,0.03112983," ""- N/A -   """
9.34,295.7574,0.0157664, NaN, NaN, NaN,0.03112983," ""- N/A -   """
9.35,296.111,0.0157803, NaN, NaN, NaN,0.03112983," ""- N/A -   """
9.36,296.347,0.01579694, NaN, NaN, NaN,0.03112983," ""- N/A -   """
9.37,296.7,0.0158136, NaN, NaN, NaN,0.0323506," ""- N/A -   """
9.38,296.936,0.0158275, NaN, NaN, NaN,0.0323506," ""- N/A -   """
9.39,297.289,0.0158441, NaN, NaN, NaN,0.0323506," ""- N/A -   """
9.4,297.6426,0.01585803, NaN, NaN, NaN,0.0335714," ""- N/A -   """
9.41,297.878,0.01587469, NaN, NaN, NaN,0.0347922," ""- N/A -   """
9.42,298.114,0.0158886, NaN, NaN, NaN,0.0347922," ""- N/A -   """
9.43,298.467,0.0159052, NaN, NaN, NaN,0.0347922," ""- N/A -   """
9.44,298.821,0.0159219, NaN, NaN, NaN,0.03601294," ""- N/A -   """
9.45,299.174,0.0159386, NaN, NaN, NaN,0.0347922," ""- N/A -   """
9.46,299.528,0.0159552, NaN, NaN, NaN,0.0347922," ""- N/A -   """
9.47,299.7635,0.0159691, NaN, NaN, NaN,0.03601294," ""- N/A -   """
9.48,299.999,0.015983, NaN, NaN, NaN,0.0372337," ""- N/A -   """
9.49,300.353,0.0159969, NaN, NaN, NaN,0.0384545," ""- N/A -   """
9.5,300.588,0.01601075, NaN, NaN, NaN,0.0396753," ""- N/A -   """
9.51,300.9417,0.0160246, NaN, NaN, NaN,0.04089605," ""- N/A -   """
9.52,301.1774,0.0160413, NaN, NaN, NaN,0.04211683," ""- N/A -   """
9.53,301.531,0.0160552, NaN, NaN, NaN,0.0433376," ""- N/A -   """
9.54,301.7665,0.0160663, NaN, NaN, NaN,0.0445584," ""- N/A -   """
9.55,302.0022,0.0160829, NaN, NaN, NaN,0.04577916," ""- N/A -   """
9.56,302.356,0.0160996, NaN, NaN, NaN,0.04577916," ""- N/A -   """
9.57,302.709,0.0161163, NaN, NaN, NaN,0.0445584," ""- N/A -   """
9.58,303.063,0.0161302, NaN, NaN, NaN,0.04577916," ""- N/A -   """
9.59,303.416,0.0161496, NaN, NaN, NaN,0.04577916," ""- N/A -   """
9.6,303.77,0.0161635, NaN, NaN, NaN,0.04577916," ""- N/A -   """
9.61,304.123,0.0161829, NaN, NaN, NaN,0.04577916," ""- N/A -   """
9.62,304.477,0.01619957, NaN, NaN, NaN,0.0445584," ""- N/A -   """
9.63,304.948,0.01621623, NaN, NaN, NaN,0.0445584," ""- N/A -   """
9.64,305.301,0.0162357, NaN, NaN, NaN,0.0433376," ""- N/A -   """
9.65,305.7726,0.0162551, NaN, NaN, NaN,0.04211683," ""- N/A -   """
9.66,306.1261,0.0162745, NaN, NaN, NaN,0.04089605," ""- N/A -   """
9.67,306.48,0.016294, NaN, NaN, NaN,0.0396753," ""- N/A -   """
9.68,306.9509,0.0163134, NaN, NaN, NaN,0.0396753," ""- N/A -   """
9.69,307.304,0.0163273, NaN, NaN, NaN,0.0396753," ""- N/A -   """
9.7,307.658,0.0163467, NaN, NaN, NaN,0.0384545," ""- N/A -   """
9.71,308.011,0.0163634, NaN, NaN, NaN,0.0384545," ""- N/A -   """
9.72,308.365,0.0163828, NaN, NaN, NaN,0.0384545," ""- N/A -   """
9.73,308.718,0.0163995, NaN, NaN, NaN,0.0372337," ""- N/A -   """
9.74,309.072,0.0164189, NaN, NaN, NaN,0.0372337," ""- N/A -   """
9.75,309.425,0.0164356, NaN, NaN, NaN,0.03601294," ""- N/A -   """
9.76,309.7787,0.01645503, NaN, NaN, NaN,0.03601294," ""- N/A -   """
9.77,310.25,0.0164717, NaN, NaN, NaN,0.0347922," ""- N/A -   """
9.78,310.603,0.0164884, NaN, NaN, NaN,0.0347922," ""- N/A -   """
9.79,310.957,0.01650779, NaN, NaN, NaN,0.0335714," ""- N/A -   """
9.8,311.31,0.01652445, NaN, NaN, NaN,0.0335714," ""- N/A -   """
9.81,311.782,0.0165439, NaN, NaN, NaN,0.0323506," ""- N/A -   """
9.82,312.135,0.0165605, NaN, NaN, NaN,0.0323506," ""- N/A -   """
9.83,312.371,0.0165772, NaN, NaN, NaN,0.0323506," ""- N/A -   """
9.84,312.724,0.0165939, NaN, NaN, NaN,0.0323506," ""- N/A -   """
9.85,313.078,0.0166133, NaN, NaN, NaN,0.03112983," ""- N/A -   """
9.86,313.549,0.0166327, NaN, NaN, NaN,0.0299091," ""- N/A -   """
9.87,313.9026,0.01665218, NaN, NaN, NaN,0.0299091," ""- N/A -   """
9.88,314.256,0.0166688, NaN, NaN, NaN,0.0286883," ""- N/A -   """
9.89,314.7274,0.0166855, NaN, NaN, NaN,0.0286883," ""- N/A -   """
9.9,314.963,0.01670494, NaN, NaN, NaN,0.0286883," ""- N/A -   """
9.91,315.434,0.0167216, NaN, NaN, NaN,0.0274675," ""- N/A -   """
[...]
33.26,1216.44,0.05563778, NaN, NaN, NaN,0.0286883," ""- N/A -   """
33.31,1218.23,0.0557072, NaN, NaN, NaN,0.0335714," ""- N/A -   """
33.36,1219.9,0.0557794, NaN, NaN, NaN,0.0384545," ""- N/A -   """
33.41,1221.57,0.05584881, NaN, NaN, NaN,0.0445584," ""- N/A -   """
33.46,1223.48,0.0559293, NaN, NaN, NaN,0.04699994," ""- N/A -   """
33.51,1225.63,0.05601264, NaN, NaN, NaN,0.04577916," ""- N/A -   """
33.56,1228.01,0.056107, NaN, NaN, NaN,0.04089605," ""- N/A -   """
33.61,1230.63,0.0562015, NaN, NaN, NaN,0.03601294," ""- N/A -   """
33.66,1232.78,0.0562931, NaN, NaN, NaN,0.0335714," ""- N/A -   """
33.71,1234.81,0.0563736, NaN, NaN, NaN,0.0335714," ""- N/A -   """
33.76,1237.07,0.05646525, NaN, NaN, NaN,0.0299091," ""- N/A -   """
33.81,1239.1,0.05655133, NaN, NaN, NaN,0.0299091," ""- N/A -   """
33.86,1241.13,0.05662908, NaN, NaN, NaN,0.03112983," ""- N/A -   """
33.91,1243.16,0.0567096, NaN, NaN, NaN,0.0323506," ""- N/A -   """
33.96,1244.95,0.0567874, NaN, NaN, NaN,0.0347922," ""- N/A -   """
34.01,1246.85,0.05686233, NaN, NaN, NaN,0.0384545," ""- N/A -   """
34.06,1248.642,0.0569345, NaN, NaN, NaN,0.0433376," ""- N/A -   """
34.11,1250.67,0.0570206, NaN, NaN, NaN,0.0433376," ""- N/A -   """
34.16,1252.7,0.0571039, NaN, NaN, NaN,0.04211683," ""- N/A -   """
34.21,1254.72,0.0571872, NaN, NaN, NaN,0.04211683," ""- N/A -   """
34.26,1256.87,0.05727051, NaN, NaN, NaN,0.04211683," ""- N/A -   """
34.31,1259.37,0.0573649, NaN, NaN, NaN,0.0372337," ""- N/A -   """
34.36,1261.998,0.0574704, NaN, NaN, NaN,0.0274675," ""- N/A -   """
34.41,1264.03,0.05755096, NaN, NaN, NaN,0.0286883," ""- N/A -   """
34.46,1265.93,0.05762871, NaN, NaN, NaN,0.03112983," ""- N/A -   """
34.51,1267.96,0.05771201, NaN, NaN, NaN,0.03112983," ""- N/A -   """
34.56,1269.99,0.0577925, NaN, NaN, NaN,0.0323506," ""- N/A -   """
34.61,1272.13,0.05787584, NaN, NaN, NaN,0.0323506," ""- N/A -   """
34.66,1274.16,0.0579591, NaN, NaN, NaN,0.0323506," ""- N/A -   """
34.71,1275.83,0.0580341, NaN, NaN, NaN,0.03601294," ""- N/A -   """
34.76,1277.74,0.0581035, NaN, NaN, NaN,0.04211683," ""- N/A -   """
34.81,1279.41,0.0581813, NaN, NaN, NaN,0.0445584," ""- N/A -   """
34.86,1281.67,0.0582646, NaN, NaN, NaN,0.0445584," ""- N/A -   """
34.91,1284.179,0.058359, NaN, NaN, NaN,0.0396753," ""- N/A -   """
34.96,1286.44,0.0584534, NaN, NaN, NaN,0.0347922," ""- N/A -   """
35.01,1288.83,0.058545, NaN, NaN, NaN,0.0323506," ""- N/A -   """
35.06,1290.857,0.05862834, NaN, NaN, NaN,0.03112983," ""- N/A -   """
35.11,1292.65,0.05870331, NaN, NaN, NaN,0.0347922," ""- N/A -   """
35.16,1294.554,0.0587866, NaN, NaN, NaN,0.03601294," ""- N/A -   """
35.21,1296.82,0.0588727, NaN, NaN, NaN,0.0347922," ""- N/A -   """
35.26,1299.09,0.05896155, NaN, NaN, NaN,0.0323506," ""- N/A -   """
35.31,1301.11,0.0590449, NaN, NaN, NaN,0.0335714," ""- N/A -   """
35.36,1302.9,0.05911705, NaN, NaN, NaN,0.0372337," ""- N/A -   """
35.41,1304.69,0.05919202, NaN, NaN, NaN,0.04089605," ""- N/A -   """
35.46,1306.72,0.05927532, NaN, NaN, NaN,0.04089605," ""- N/A -   """
35.51,1308.98,0.0593614, NaN, NaN, NaN,0.0396753," ""- N/A -   """
35.56,1311.13,0.0594447, NaN, NaN, NaN,0.0396753," ""- N/A -   """
35.61,1313.16,0.059528, NaN, NaN, NaN,0.0396753," ""- N/A -   """
35.66,1315.18,0.05961131, NaN, NaN, NaN,0.0396753," ""- N/A -   """
35.71,1317.45,0.05969739, NaN, NaN, NaN,0.0384545," ""- N/A -   """
35.76,1319.48,0.0597862, NaN, NaN, NaN,0.03601294," ""- N/A -   """
35.81,1321.74,0.05986955, NaN, NaN, NaN,0.03601294," ""- N/A -   """
35.86,1323.89,0.0599584, NaN, NaN, NaN,0.0335714," ""- N/A -   """
35.91,1325.92,0.0600445, NaN, NaN, NaN,0.0323506," ""- N/A -   """
35.96,1328.18,0.0601278, NaN, NaN, NaN,0.0323506," ""- N/A -   """
36.01,1330.33,0.0602166, NaN, NaN, NaN,0.0299091," ""- N/A -   """
36.06,1332.24,0.0602972, NaN, NaN, NaN,0.03112983," ""- N/A -   """
36.11,1334.03,0.06036659, NaN, NaN, NaN,0.0372337," ""- N/A -   """
36.16,1335.82,0.0604416, NaN, NaN, NaN,0.04089605," ""- N/A -   """
36.21,1337.72,0.0605193, NaN, NaN, NaN,0.0433376," ""- N/A -   """
36.26,1339.75,0.06059983, NaN, NaN, NaN,0.0445584," ""- N/A -   """
36.31,1341.78,0.06068314, NaN, NaN, NaN,0.0445584," ""- N/A -   """
36.36,1344.282,0.06078032, NaN, NaN, NaN,0.0396753," ""- N/A -   """
36.41,1346.67,0.060872, NaN, NaN, NaN,0.03601294," ""- N/A -   """
36.46,1348.81,0.06095803, NaN, NaN, NaN,0.0335714," ""- N/A -   """
36.51,1351.08,0.06104411, NaN, NaN, NaN,0.0323506," ""- N/A -   """
36.56,1353.35,0.0611302, NaN, NaN, NaN,0.03112983," ""- N/A -   """
36.61,1355.25,0.0612135, NaN, NaN, NaN,0.03112983," ""- N/A -   """
36.66,1357.28,0.0612912, NaN, NaN, NaN,0.0335714," ""- N/A -   """
36.71,1359.19,0.06137455, NaN, NaN, NaN,0.0347922," ""- N/A -   """
36.76,1360.98,0.061444, NaN, NaN, NaN,0.0396753," ""- N/A -   """
36.81,1362.766,0.0615217, NaN, NaN, NaN,0.0433376," ""- N/A -   """
36.86,1364.91,0.0616022, NaN, NaN, NaN,0.0433376," ""- N/A -   """
36.91,1366.82,0.06168277, NaN, NaN, NaN,0.0445584," ""- N/A -   """
36.96,1369.09,0.06176885, NaN, NaN, NaN,0.0433376," ""- N/A -   """
37.01,1371.11,0.0618577, NaN, NaN, NaN,0.04211683," ""- N/A -   """
37.06,1373.618,0.06194934, NaN, NaN, NaN,0.0372337," ""- N/A -   """
37.11,1375.88,0.0620382, NaN, NaN, NaN,0.0347922," ""- N/A -   """
37.16,1378.03,0.06212427, NaN, NaN, NaN,0.0335714," ""- N/A -   """
37.21,1380.18,0.06221035, NaN, NaN, NaN,0.0335714," ""- N/A -   """
37.26,1382.44,0.0622937, NaN, NaN, NaN,0.0323506," ""- N/A -   """
37.31,1384.59,0.0623853, NaN, NaN, NaN,0.0286883," ""- N/A -   """
37.36,1386.38,0.06246026, NaN, NaN, NaN,0.0335714," ""- N/A -   """
37.41,1388.17,0.0625325, NaN, NaN, NaN,0.0372337," ""- N/A -   """
37.46,1389.84,0.06260465, NaN, NaN, NaN,0.04211683," ""- N/A -   """
37.51,1391.98,0.06268795, NaN, NaN, NaN,0.04211683," ""- N/A -   """
37.56,1394.13,0.06277125, NaN, NaN, NaN,0.0433376," ""- N/A -   """
37.61,1396.16,0.06285456, NaN, NaN, NaN,0.04211683," ""- N/A -   """
37.66,1398.42,0.0629434, NaN, NaN, NaN,0.0396753," ""- N/A -   """
37.71,1400.93,0.06303504, NaN, NaN, NaN,0.03601294," ""- N/A -   """
37.76,1403.55,0.0631322, NaN, NaN, NaN,0.0299091," ""- N/A -   """
37.81,1405.7,0.06322387, NaN, NaN, NaN,0.0274675," ""- N/A -   """
37.86,1407.724,0.06330439, NaN, NaN, NaN,0.0286883," ""- N/A -   """
37.91,1409.51,0.06337658, NaN, NaN, NaN,0.0323506," ""- N/A -   """
37.96,1411.42,0.06345156, NaN, NaN, NaN,0.03601294," ""- N/A -   """
38.01,1413.33,0.06352653, NaN, NaN, NaN,0.0396753," ""- N/A -   """
38.06,1415.48,0.06360983, NaN, NaN, NaN,0.0396753," ""- N/A -   """
38.11,1417.74,0.06369869, NaN, NaN, NaN,0.0372337," ""- N/A -   """
38.16,1419.53,0.06377366, NaN, NaN, NaN,0.04089605," ""- N/A -   """
38.21,1421.56,0.06385141, NaN, NaN, NaN,0.0433376," ""- N/A -   """
38.26,1423.47,0.0639319, NaN, NaN, NaN,0.0445584," ""- N/A -   """
38.31,1426.09,0.06402635, NaN, NaN, NaN,0.0396753," ""- N/A -   """
38.36,1428.47,0.06412353, NaN, NaN, NaN,0.0335714," ""- N/A -   """
38.41,1430.74,0.06421239, NaN, NaN, NaN,0.03112983," ""- N/A -   """
38.46,1432.89,0.0642985, NaN, NaN, NaN,0.03112983," ""- N/A -   """
38.51,1435.15,0.06437899, NaN, NaN, NaN,0.03112983," ""- N/A -   """
38.56,1436.94,0.06445674, NaN, NaN, NaN,0.0335714," ""- N/A -   """
38.61,1439.09,0.06454004, NaN, NaN, NaN,0.0347922," ""- N/A -   """
38.66,1441.23,0.06462613, NaN, NaN, NaN,0.0323506," ""- N/A -   """
38.71,1443.26,0.0647066, NaN, NaN, NaN,0.0347922," ""- N/A -   """
38.76,1445.05,0.06478162, NaN, NaN, NaN,0.0372337," ""- N/A -   """
38.81,1446.96,0.0648566, NaN, NaN, NaN,0.04211683," ""- N/A -   """
38.86,1449.1,0.06494267, NaN, NaN, NaN,0.0396753," ""- N/A -   """
38.91,1451.251,0.06502875, NaN, NaN, NaN,0.0396753," ""- N/A -   """
38.96,1453.4,0.06510928, NaN, NaN, NaN,0.0396753," ""- N/A -   """
39.01,1455.42,0.06519536, NaN, NaN, NaN,0.0396753," ""- N/A -   """
39.06,1457.93,0.065287, NaN, NaN, NaN,0.03601294," ""- N/A -   """
39.11,1459.96,0.06536474, NaN, NaN, NaN,0.0372337," ""- N/A -   """
39.16,1462.22,0.0654536, NaN, NaN, NaN,0.0347922," ""- N/A -   """
39.21,1464.37,0.06553967, NaN, NaN, NaN,0.0335714," ""- N/A -   """
39.26,1466.52,0.06562853, NaN, NaN, NaN,0.0323506," ""- N/A -   """
39.31,1468.66,0.06570628, NaN, NaN, NaN,0.0335714," ""- N/A -   """
39.36,1470.69,0.06578958, NaN, NaN, NaN,0.0335714," ""- N/A -   """
39.41,1472.72,0.0658729, NaN, NaN, NaN,0.0347922," ""- N/A -   """
39.46,1474.74,0.06595619, NaN, NaN, NaN,0.0335714," ""- N/A -   """
39.51,1476.77,0.06603116, NaN, NaN, NaN,0.0372337," ""- N/A -   """
39.56,1478.679,0.0661089, NaN, NaN, NaN,0.0396753," ""- N/A -   """
39.61,1480.587,0.06618666, NaN, NaN, NaN,0.04211683," ""- N/A -   """
39.66,1482.61,0.0662672, NaN, NaN, NaN,0.0433376," ""- N/A -   """
39.71,1485.12,0.06635881, NaN, NaN, NaN,0.04089605," ""- N/A -   """
39.76,1487.38,0.06644767, NaN, NaN, NaN,0.0384545," ""- N/A -   """
39.81,1489.89,0.06654208, NaN, NaN, NaN,0.0335714," ""- N/A -   """
39.86,1491.916,0.06662539, NaN, NaN, NaN,0.0335714," ""- N/A -   """
39.91,1493.7,0.06670591, NaN, NaN, NaN,0.03601294," ""- N/A -   """
39.96,1495.97,0.06679199, NaN, NaN, NaN,0.0347922," ""- N/A -   """
40.01,1498.24,0.0668808, NaN, NaN, NaN,0.03112983," ""- N/A -   """
40.06,1500.62,0.06696692, NaN, NaN, NaN,0.0299091," ""- N/A -   """
40.11,1502.41,0.0670447, NaN, NaN, NaN,0.0323506," ""- N/A -   """
40.16,1504.32,0.06712242, NaN, NaN, NaN,0.03601294," ""- N/A -   """
40.21,1506.11,0.06719185, NaN, NaN, NaN,0.04089605," ""- N/A -   """
40.26,1507.9,0.067264, NaN, NaN, NaN,0.04577916," ""- N/A -   """
40.31,1509.8,0.06734456, NaN, NaN, NaN,0.04699994," ""- N/A -   """
40.36,1512.07,0.06743342, NaN, NaN, NaN,0.04577916," ""- N/A -   """
40.41,1514.57,0.06752505, NaN, NaN, NaN,0.04089605," ""- N/A -   """
40.46,1516.84,0.06761946, NaN, NaN, NaN,0.03601294," ""- N/A -   """
40.51,1518.99,0.06770276, NaN, NaN, NaN,0.03601294," ""- N/A -   """
40.56,1521.252,0.0677944, NaN, NaN, NaN,0.0323506," ""- N/A -   """
40.61,1523.64,0.067886, NaN, NaN, NaN,0.0286883," ""- N/A -   """
40.66,1525.66,0.06796656, NaN, NaN, NaN,0.0299091," ""- N/A -   """
40.71,1527.57,0.06804708, NaN, NaN, NaN,0.03112983," ""- N/A -   """
40.76,1529.48,0.06812205, NaN, NaN, NaN,0.03601294," ""- N/A -   """
40.81,1531.269,0.06819425, NaN, NaN, NaN,0.0396753," ""- N/A -   """
40.86,1532.94,0.0682664, NaN, NaN, NaN,0.04577916," ""- N/A -   """
40.91,1534.97,0.06834142, NaN, NaN, NaN,0.0482207," ""- N/A -   """
40.96,1537.351,0.0684386, NaN, NaN, NaN,0.0433376," ""- N/A -   """
41.01,1539.62,0.06852469, NaN, NaN, NaN,0.04211683," ""- N/A -   """
41.06,1541.644,0.068608, NaN, NaN, NaN,0.04089605," ""- N/A -   """
41.11,1544.15,0.0687024, NaN, NaN, NaN,0.03601294," ""- N/A -   """
41.16,1546.65,0.0687968, NaN, NaN, NaN,0.03112983," ""- N/A -   """
41.21,1548.92,0.06888566, NaN, NaN, NaN,0.0299091," ""- N/A -   """
41.26,1551.065,0.06897174, NaN, NaN, NaN,0.0274675," ""- N/A -   """
41.31,1552.85,0.06904671, NaN, NaN, NaN,0.03112983," ""- N/A -   """
41.36,1554.88,0.06912446, NaN, NaN, NaN,0.0335714," ""- N/A -   """
41.41,1556.91,0.069205, NaN, NaN, NaN,0.0347922," ""- N/A -   """
41.46,1558.94,0.06929106, NaN, NaN, NaN,0.0347922," ""- N/A -   """
41.51,1561.2,0.06937437, NaN, NaN, NaN,0.0335714," ""- N/A -   """
41.56,1562.87,0.06944379, NaN, NaN, NaN,0.0396753," ""- N/A -   """
41.61,1564.66,0.06951876, NaN, NaN, NaN,0.0433376," ""- N/A -   """
41.66,1566.69,0.06959651, NaN, NaN, NaN,0.04577916," ""- N/A -   """
41.71,1568.95,0.06968536, NaN, NaN, NaN,0.0433376," ""- N/A -   """
41.76,1571.58,0.0697881, NaN, NaN, NaN,0.03601294," ""- N/A -   """
41.81,1574.08,0.06988251, NaN, NaN, NaN,0.03112983," ""- N/A -   """
41.86,1576.11,0.069963, NaN, NaN, NaN,0.03112983," ""- N/A -   """
41.91,1577.9,0.07004079, NaN, NaN, NaN,0.0335714," ""- N/A -   """
41.96,1580.04,0.0701241, NaN, NaN, NaN,0.0335714," ""- N/A -   """
42.01,1582.07,0.0702046, NaN, NaN, NaN,0.03601294," ""- N/A -   """
42.06,1584.46,0.07029347, NaN, NaN, NaN,0.0323506," ""- N/A -   """
42.11,1586.36,0.070374, NaN, NaN, NaN,0.0335714," ""- N/A -   """
42.16,1588.27,0.07044897, NaN, NaN, NaN,0.0372337," ""- N/A -   """
42.21,1590.06,0.07052395, NaN, NaN, NaN,0.04089605," ""- N/A -   """
42.26,1591.97,0.0705989, NaN, NaN, NaN,0.0445584," ""- N/A -   """
42.31,1594.35,0.07069055, NaN, NaN, NaN,0.04089605," ""- N/A -   """
42.36,1596.38,0.0707739, NaN, NaN, NaN,0.04089605," ""- N/A -   """
42.41,1598.408,0.07085437, NaN, NaN, NaN,0.04211683," ""- N/A -   """
42.46,1600.91,0.0709516, NaN, NaN, NaN,0.0372337," ""- N/A -   """
42.51,1603.178,0.07103764, NaN, NaN, NaN,0.0347922," ""- N/A -   """
42.56,1605.21,0.07112095, NaN, NaN, NaN,0.0347922," ""- N/A -   """
42.61,1607.35,0.0712098, NaN, NaN, NaN,0.0323506," ""- N/A -   """
42.66,1609.74,0.07129866, NaN, NaN, NaN,0.03112983," ""- N/A -   """
42.71,1611.88,0.07138474, NaN, NaN, NaN,0.0299091," ""- N/A -   """
42.76,1613.91,0.07146526, NaN, NaN, NaN,0.03112983," ""- N/A -   """
42.81,1615.82,0.0715458, NaN, NaN, NaN,0.0323506," ""- N/A -   """
42.86,1618.08,0.07162909, NaN, NaN, NaN,0.03112983," ""- N/A -   """
42.91,1619.754,0.07170129, NaN, NaN, NaN,0.03601294," ""- N/A -   """
42.96,1621.662,0.07177626, NaN, NaN, NaN,0.0396753," ""- N/A -   """
43.01,1623.57,0.07185678, NaN, NaN, NaN,0.04089605," ""- N/A -   """
43.06,1625.36,0.07193176, NaN, NaN, NaN,0.0445584," ""- N/A -   """
43.11,1627.62,0.07201506, NaN, NaN, NaN,0.0445584," ""- N/A -   """
43.16,1629.77,0.07210392, NaN, NaN, NaN,0.04211683," ""- N/A -   """
43.21,1632.04,0.0721983, NaN, NaN, NaN,0.0384545," ""- N/A -   """
43.26,1634.3,0.07228718, NaN, NaN, NaN,0.0347922," ""- N/A -   """
43.31,1636.45,0.07237326, NaN, NaN, NaN,0.0347922," ""- N/A -   """
43.36,1638.48,0.07245656, NaN, NaN, NaN,0.0335714," ""- N/A -   """
43.41,1640.86,0.072551, NaN, NaN, NaN,0.0299091," ""- N/A -   """
43.46,1643.008,0.07263983, NaN, NaN, NaN,0.0262467," ""- N/A -   """
43.51,1644.56,0.07271203, NaN, NaN, NaN,0.03112983," ""- N/A -   """
43.56,1646.228,0.072787, NaN, NaN, NaN,0.03601294," ""- N/A -   """
43.61,1647.9,0.07285642, NaN, NaN, NaN,0.04089605," ""- N/A -   """
43.66,1649.45,0.0729286, NaN, NaN, NaN,0.04699994," ""- N/A -   """
43.71,1651.24,0.07300358, NaN, NaN, NaN,0.0494415," ""- N/A -   """
43.76,1653.62,0.07309522, NaN, NaN, NaN,0.04699994," ""- N/A -   """
43.81,1656.13,0.07319518, NaN, NaN, NaN,0.0396753," ""- N/A -   """
43.86,1658.511,0.07329237, NaN, NaN, NaN,0.0323506," ""- N/A -   """
43.91,1660.66,0.073384, NaN, NaN, NaN,0.0299091," ""- N/A -   """
43.96,1662.45,0.07345897, NaN, NaN, NaN,0.0335714," ""- N/A -   """
44.01,1664.712,0.0735506, NaN, NaN, NaN,0.0286883," ""- N/A -   """
44.06,1666.86,0.07363946, NaN, NaN, NaN,0.0274675," ""- N/A -   """
44.11,1669.01,0.07372554, NaN, NaN, NaN,0.0250259," ""- N/A -   """
44.16,1670.44,0.07379496, NaN, NaN, NaN,0.03112983," ""- N/A -   """
44.21,1672.11,0.07386716, NaN, NaN, NaN,0.03601294," ""- N/A -   """
44.26,1673.54,0.0739421, NaN, NaN, NaN,0.04089605," ""- N/A -   """
44.31,1675.09,0.07401987, NaN, NaN, NaN,0.0433376," ""- N/A -   """
44.36,1676.64,0.07410318, NaN, NaN, NaN,0.0433376," ""- N/A -   """
44.41,1678.19,0.07418648, NaN, NaN, NaN,0.0445584," ""- N/A -   """
44.46,1678.78,0.07426978, NaN, NaN, NaN,0.0433376," ""- N/A -   """
44.51,-18.3998,0.0747113, NaN, NaN, NaN,-0.276506," ""- N/A -   """
44.56,-21.46644,0.0745419, NaN, NaN, NaN,-0.28261," ""- N/A -   """
44.61,-19.8152,0.0743281, NaN, NaN, NaN,-0.130013," ""- N/A -   """
44.66,-19.1075,0.07428922, NaN, NaN, NaN,0.0189221," ""- N/A -   """
44.71,-19.1075,0.07440862, NaN, NaN, NaN,0.12513," ""- N/A -   """
44.76,-19.3434,0.07464187, NaN, NaN, NaN,0.111701," ""- N/A -   """
44.81,-19.2254,0.07481681, NaN, NaN, NaN,0.0701947," ""- N/A -   """
44.86,-19.1075,0.0749334, NaN, NaN, NaN,0.0555454," ""- N/A -   """
44.91,-19.2254,0.07503339, NaN, NaN, NaN,0.0482207," ""- N/A -   """
44.96,-19.3434,0.0751222, NaN, NaN, NaN,0.04699994," ""- N/A -   """
45.01,-19.2254,0.07519722, NaN, NaN, NaN,0.0494415," ""- N/A -   """
45.06,-19.2254,0.07528052, NaN, NaN, NaN,0.05066227," ""- N/A -   """
45.11,-19.2254,0.0753666, NaN, NaN, NaN,0.0482207," ""- N/A -   """
45.16,-19.2254,0.0754666, NaN, NaN, NaN,0.04089605," ""- N/A -   """
45.21,-19.1075,0.07556652, NaN, NaN, NaN,0.0335714," ""- N/A -   """
45.26,-19.1075,0.07566094, NaN, NaN, NaN,0.0299091," ""- N/A -   """
45.31,-19.1075,0.07573591, NaN, NaN, NaN,0.0323506," ""- N/A -   """
45.36,-19.1075,0.07581088, NaN, NaN, NaN,0.03601294," ""- N/A -   """
45.41,-19.1075,0.0758997, NaN, NaN, NaN,0.0335714," ""- N/A -   """
45.46,-19.1075,0.07599137, NaN, NaN, NaN,0.0299091," ""- N/A -   """
45.51,-19.1075,0.0760719, NaN, NaN, NaN,0.03112983," ""- N/A -   """
45.56,-19.1075,0.07614409, NaN, NaN, NaN,0.03601294," ""- N/A -   """
45.61,-19.1075,0.07622462, NaN, NaN, NaN,0.0372337," ""- N/A -   """
45.66,-19.1075,0.0763024, NaN, NaN, NaN,0.04089605," ""- N/A -   """
45.71,-18.9895,0.07638567, NaN, NaN, NaN,0.0396753," ""- N/A -   """
45.76,-19.1075,0.0764717, NaN, NaN, NaN,0.0396753," ""- N/A -   """
45.81,-19.1075,0.07655505, NaN, NaN, NaN,0.0384545," ""- N/A -   """
45.86,-19.1075,0.0766467, NaN, NaN, NaN,0.03601294," ""- N/A -   """
45.91,-19.1075,0.07672443, NaN, NaN, NaN,0.0372337," ""- N/A -   """
45.96,-19.1075,0.07680496, NaN, NaN, NaN,0.0384545," ""- N/A -   """
46.01,-19.1075,0.0768966, NaN, NaN, NaN,0.03601294," ""- N/A -   """
46.06,-19.1075,0.07698267, NaN, NaN, NaN,0.0335714," ""- N/A -   """
46.11,-19.1075,0.07706874, NaN, NaN, NaN,0.0335714," ""- N/A -   """
46.16,-19.1075,0.07714927, NaN, NaN, NaN,0.0335714," ""- N/A -   """
46.21,-18.9895,0.07723258, NaN, NaN, NaN,0.0347922," ""- N/A -   """
46.26,-19.1075,0.0773131, NaN, NaN, NaN,0.0347922," ""- N/A -   """
46.31,-19.1075,0.07739084, NaN, NaN, NaN,0.0384545," ""- N/A -   """
46.36,-19.1075,0.07746582, NaN, NaN, NaN,0.04089605," ""- N/A -   """
46.41,-18.9895,0.07754912, NaN, NaN, NaN,0.04089605," ""- N/A -   """
46.46,-19.1075,0.07762688, NaN, NaN, NaN,0.0433376," ""- N/A -   """
46.51,-19.1075,0.0777129, NaN, NaN, NaN,0.0433376," ""- N/A -   """
46.56,-19.1075,0.07780737, NaN, NaN, NaN,0.0384545," ""- N/A -   """
46.61,-19.1075,0.0779045, NaN, NaN, NaN,0.03112983," ""- N/A -   """
46.66,-19.1075,0.07799062, NaN, NaN, NaN,0.0299091," ""- N/A -   """
46.71,-19.1075,0.07807115, NaN, NaN, NaN,0.0323506," ""- N/A -   """
46.76,-18.9895,0.0781489, NaN, NaN, NaN,0.0335714," ""- N/A -   """
46.81,-19.1075,0.0782378, NaN, NaN, NaN,0.03112983," ""- N/A -   """
46.86,-18.9895,0.07833217, NaN, NaN, NaN,0.0262467," ""- N/A -   """
46.91,-18.9895,0.07840992, NaN, NaN, NaN,0.0286883," ""- N/A -   """
46.96,-19.1075,0.0784793, NaN, NaN, NaN,0.0347922," ""- N/A -   """
47.01,-18.9895,0.07855431, NaN, NaN, NaN,0.0396753," ""- N/A -   """
47.06,-19.1075,0.07862928, NaN, NaN, NaN,0.04211683," ""- N/A -   """
47.11,-18.9895,0.078707, NaN, NaN, NaN,0.0445584," ""- N/A -   """
47.16,-19.1075,0.07879589, NaN, NaN, NaN,0.0433376," ""- N/A -   """
47.21,-18.9895,0.0788875, NaN, NaN, NaN,0.0384545," ""- N/A -   """
47.26,-18.9895,0.07897638, NaN, NaN, NaN,0.03601294," ""- N/A -   """
47.31,-19.1075,0.0790597, NaN, NaN, NaN,0.03601294," ""- N/A -   """
47.36,-18.9895,0.07914853, NaN, NaN, NaN,0.0335714," ""- N/A -   """
47.41,-19.1075,0.07923739, NaN, NaN, NaN,0.03112983," ""- N/A -   """
47.46,-19.1075,0.07932347, NaN, NaN, NaN,0.03112983," ""- N/A -   """
47.51,-18.9895,0.07940955, NaN, NaN, NaN,0.0286883," ""- N/A -   """
47.56,-18.9895,0.07949007, NaN, NaN, NaN,0.0299091," ""- N/A -   """
47.61,-19.1075,0.07955671, NaN, NaN, NaN,0.0372337," ""- N/A -   """
47.66,-18.9895,0.07963446, NaN, NaN, NaN,0.04089605," ""- N/A -   """
47.71,-18.9895,0.07971221, NaN, NaN, NaN,0.04211683," ""- N/A -   """
47.76,-18.9895,0.07979552, NaN, NaN, NaN,0.04211683," ""- N/A -   """
47.81,-18.9895,0.079876, NaN, NaN, NaN,0.0433376," ""- N/A -   """
47.831,-18.9895,0.07991213, NaN, NaN, NaN,0.0445584," ""- N/A -   """