File: 2_Tensile_Data/Hamel_ForceTest_Bolt4_Test7.csv
Time, Load (lb), Position (in), AxialStrain (in), TransverseStrain (in), Auxiliary (), Control Out (V), Stress (psi)
0.0, 7.430691, 0.0, NaN, NaN, NaN, -0.006714277, "- N/A -   "
0.01, 7.430691, 0.0, NaN, NaN, NaN, -6.103888E-4, "- N/A -   "
0.02, 7.430691, 0.0, NaN, NaN, NaN, 0.006714277, "- N/A -   "
0.03, 7.430691, 0.0, NaN, NaN, NaN, 0.01525972, "- N/A -   "
0.04, 7.548638, 2.776752E-6, NaN, NaN, NaN, 0.0335714, "- N/A -   "
0.06, 7.666586, 2.2214e-05, NaN, NaN, NaN, 0.0640908, "- N/A -   "
0.08, 8.020428, 6.108854E-5, NaN, NaN, NaN, 0.08606482, "- N/A -   "
0.1, 8.492218, 0.000116624, NaN, NaN, NaN, 0.100714, "- N/A -   "
0.12, 9.081955, 0.000174935, NaN, NaN, NaN, 0.09094793, "- N/A -   "
0.14, 9.671693, 0.00022214, NaN, NaN, NaN, 0.08362327, "- N/A -   "
0.16, 10.0255, 0.000269345, NaN, NaN, NaN, 0.07751938, "- N/A -   "
0.18, 10.4973, 0.000313773, NaN, NaN, NaN, 0.07263627, "- N/A -   "
0.2, 10.8512, 0.000355424, NaN, NaN, NaN, 0.0689739, "- N/A -   "
0.22, 11.4409, 0.000397076, NaN, NaN, NaN, 0.0653116, "- N/A -   "
0.24, 11.7947, 0.00043595, NaN, NaN, NaN, 0.06287005, "- N/A -   "
0.26, 12.14859, 4.776013E-4, NaN, NaN, NaN, 0.0604285, "- N/A -   "
0.28, 12.6204, 5.164758E-4, NaN, NaN, NaN, 0.05676616, "- N/A -   "
0.3, 13.09217, 5.553504E-4, NaN, NaN, NaN, 0.0543246, "- N/A -   "
0.32, 13.564, 5.997784E-4, NaN, NaN, NaN, 0.05066227, "- N/A -   "
0.34, 14.0357, 6.442064E-4, NaN, NaN, NaN, 0.04577916, "- N/A -   "
0.36, 14.5075, 6.830809E-4, NaN, NaN, NaN, 0.04211683, "- N/A -   "
0.38, 14.8614, 7.219555E-4, NaN, NaN, NaN, 0.0396753, "- N/A -   "
0.4, 15.3332, 0.000758053, NaN, NaN, NaN, 0.0384545, "- N/A -   "
0.42, 15.687, 0.000791374, NaN, NaN, NaN, 0.0396753, "- N/A -   "
0.44, 16.0409, 8.246953E-4, NaN, NaN, NaN, 0.0396753, "- N/A -   "
0.46, 16.5126, 0.000860793, NaN, NaN, NaN, 0.0384545, "- N/A -   "
0.48, 16.74854, 8.968908E-4, NaN, NaN, NaN, 0.0372337, "- N/A -   "
0.5, 17.2203, 9.329886E-4, NaN, NaN, NaN, 0.03601294, "- N/A -   "
0.52, 17.6921, 0.000969086, NaN, NaN, NaN, 0.0335714, "- N/A -   "
0.54, 18.046, 0.00100518, NaN, NaN, NaN, 0.0323506, "- N/A -   "
0.56, 18.5178, 0.00104406, NaN, NaN, NaN, 0.0299091, "- N/A -   "
0.58, 18.9895, 0.00108016, NaN, NaN, NaN, 0.0286883, "- N/A -   "
0.6, 19.2254, 0.00111348, NaN, NaN, NaN, 0.0286883, "- N/A -   "
0.62, 19.6972, 0.00114402, NaN, NaN, NaN, 0.0299091, "- N/A -   "
0.64, 19.9331, 0.001174566, NaN, NaN, NaN, 0.03112983, "- N/A -   "
0.66, 20.287, 0.00120511, NaN, NaN, NaN, 0.0323506, "- N/A -   "
0.68, 20.6408, 0.00123843, NaN, NaN, NaN, 0.0335714, "- N/A -   "
0.7, 21.1126, 0.0012662, NaN, NaN, NaN, 0.0347922, "- N/A -   "
0.72, 21.2305, 0.00129397, NaN, NaN, NaN, 0.0372337, "- N/A -   "
0.74, 21.46644, 0.00132173, NaN, NaN, NaN, 0.0396753, "- N/A -   "
0.76, 21.93823, 0.0013495, NaN, NaN, NaN, 0.0433376, "- N/A -   "
0.78, 22.1741, 0.00138005, NaN, NaN, NaN, 0.0445584, "- N/A -   "
0.8, 22.528, 0.00140781, NaN, NaN, NaN, 0.04577916, "- N/A -   "
0.82, 22.88181, 0.00143836, NaN, NaN, NaN, 0.04699994, "- N/A -   "
0.84, 23.3536, 0.00147168, NaN, NaN, NaN, 0.04699994, "- N/A -   "
0.86, 23.5895, 0.00150778, NaN, NaN, NaN, 0.04699994, "- N/A -   "
0.88, 24.0613, 0.0015411, NaN, NaN, NaN, 0.04699994, "- N/A -   "
0.9, 24.4151, 0.001577195, NaN, NaN, NaN, 0.04577916, "- N/A -   "
0.92, 24.8869, 0.00161329, NaN, NaN, NaN, 0.0433376, "- N/A -   "
0.94, 25.3587, 0.00165217, NaN, NaN, NaN, 0.04089605, "- N/A -   "
0.96, 25.7125, 0.00169104, NaN, NaN, NaN, 0.0396753, "- N/A -   "
0.98, 26.18434, 0.00172992, NaN, NaN, NaN, 0.0372337, "- N/A -   "
1, 26.5382, 0.00176601, NaN, NaN, NaN, 0.0347922, "- N/A -   "
1.02, 26.892, 0.001802112, NaN, NaN, NaN, 0.0335714, "- N/A -   "
1.04, 27.3638, 0.00183821, NaN, NaN, NaN, 0.0323506, "- N/A -   "
1.06, 27.7177, 0.00187153, NaN, NaN, NaN, 0.0323506, "- N/A -   "
1.08, 28.0715, 0.00190763, NaN, NaN, NaN, 0.0323506, "- N/A -   "
1.1, 28.42534, 0.00194095, NaN, NaN, NaN, 0.03112983, "- N/A -   "
1.12, 28.89713, 0.00197705, NaN, NaN, NaN, 0.0299091, "- N/A -   "
1.14, 29.251, 0.00201037, NaN, NaN, NaN, 0.0299091, "- N/A -   "
1.16, 29.6048, 0.002046466, NaN, NaN, NaN, 0.0286883, "- N/A -   "
1.18, 29.9587, 0.002082564, NaN, NaN, NaN, 0.0274675, "- N/A -   "
1.2, 30.3125, 0.00211866, NaN, NaN, NaN, 0.0274675, "- N/A -   "
1.22, 30.6663, 0.002149206, NaN, NaN, NaN, 0.0286883, "- N/A -   "
1.24, 31.0202, 0.00217975, NaN, NaN, NaN, 0.0286883, "- N/A -   "
1.26, 31.2561, 0.00221029, NaN, NaN, NaN, 0.0299091, "- N/A -   "
1.28, 31.6099, 0.00224084, NaN, NaN, NaN, 0.0323506, "- N/A -   "
1.3, 31.9638, 0.002271383, NaN, NaN, NaN, 0.0335714, "- N/A -   "
1.32, 32.1997, 0.00229915, NaN, NaN, NaN, 0.0347922, "- N/A -   "
1.34, 32.5535, 0.00232969, NaN, NaN, NaN, 0.03601294, "- N/A -   "
1.36, 32.7894, 0.00235746, NaN, NaN, NaN, 0.0384545, "- N/A -   "
1.38, 33.2612, 0.00238801, NaN, NaN, NaN, 0.0396753, "- N/A -   "
1.4, 33.49708, 0.00241855, NaN, NaN, NaN, 0.04089605, "- N/A -   "
1.42, 33.8509, 0.00244632, NaN, NaN, NaN, 0.0433376, "- N/A -   "
1.44, 34.3227, 0.002482416, NaN, NaN, NaN, 0.0433376, "- N/A -   "
1.46, 34.55861, 0.00251296, NaN, NaN, NaN, 0.0445584, "- N/A -   "
1.48, 34.9125, 0.002549058, NaN, NaN, NaN, 0.0433376, "- N/A -   "
1.5, 35.2663, 0.0025796, NaN, NaN, NaN, 0.0445584, "- N/A -   "
1.52, 35.6201, 0.00261015, NaN, NaN, NaN, 0.0445584, "- N/A -   "
1.54, 35.97398, 0.00264347, NaN, NaN, NaN, 0.0445584, "- N/A -   "
1.56, 36.44577, 0.00267679, NaN, NaN, NaN, 0.0445584, "- N/A -   "
1.58, 36.79961, 0.00271011, NaN, NaN, NaN, 0.0445584, "- N/A -   "
1.6, 37.0355, 0.00274621, NaN, NaN, NaN, 0.0445584, "- N/A -   "
1.62, 37.5073, 0.00277953, NaN, NaN, NaN, 0.0433376, "- N/A -   "
1.64, 37.9791, 0.0028184, NaN, NaN, NaN, 0.04089605, "- N/A -   "
1.66, 38.3329, 0.00285728, NaN, NaN, NaN, 0.0384545, "- N/A -   "
1.68, 38.8047, 0.00289615, NaN, NaN, NaN, 0.03601294, "- N/A -   "
1.7, 39.2765, 0.0029378, NaN, NaN, NaN, 0.0335714, "- N/A -   "
1.72, 39.6304, 0.0029739, NaN, NaN, NaN, 0.03112983, "- N/A -   "
1.74, 40.10214, 0.003009999, NaN, NaN, NaN, 0.0299091, "- N/A -   "
1.76, 40.456, 0.00304332, NaN, NaN, NaN, 0.0299091, "- N/A -   "
1.78, 40.8098, 0.00307664, NaN, NaN, NaN, 0.0299091, "- N/A -   "
1.8, 41.16367, 0.003109962, NaN, NaN, NaN, 0.0299091, "- N/A -   "
1.82, 41.51751, 0.003143283, NaN, NaN, NaN, 0.0299091, "- N/A -   "
1.84, 41.9893, 0.0031766, NaN, NaN, NaN, 0.0299091, "- N/A -   "
1.86, 42.3431, 0.003209925, NaN, NaN, NaN, 0.03112983, "- N/A -   "
1.88, 42.8149, 0.00324047, NaN, NaN, NaN, 0.03112983, "- N/A -   "
1.9, 43.1688, 0.00327101, NaN, NaN, NaN, 0.0323506, "- N/A -   "
1.92, 43.6406, 0.003301558, NaN, NaN, NaN, 0.0335714, "- N/A -   "
1.94, 43.87646, 0.0033321, NaN, NaN, NaN, 0.03601294, "- N/A -   "
1.96, 44.2303, 0.00336265, NaN, NaN, NaN, 0.03601294, "- N/A -   "
1.98, 44.70209, 0.00339874, NaN, NaN, NaN, 0.0347922, "- N/A -   "
2, 45.05593, 0.00342929, NaN, NaN, NaN, 0.03601294, "- N/A -   "
2.02, 45.5277, 0.00346539, NaN, NaN, NaN, 0.03601294, "- N/A -   "
2.04, 45.8816, 0.00349593, NaN, NaN, NaN, 0.0372337, "- N/A -   "
2.06, 46.23541, 0.00352647, NaN, NaN, NaN, 0.0372337, "- N/A -   "
2.08, 46.7072, 0.00355424, NaN, NaN, NaN, 0.0396753, "- N/A -   "
2.1, 46.9431, 0.00358479, NaN, NaN, NaN, 0.04089605, "- N/A -   "
2.12, 47.4149, 0.003615331, NaN, NaN, NaN, 0.04211683, "- N/A -   "
2.14, 47.7687, 0.00364865, NaN, NaN, NaN, 0.0433376, "- N/A -   "
2.16, 48.12257, 0.0036792, NaN, NaN, NaN, 0.0433376, "- N/A -   "
2.18, 48.59436, 0.00371252, NaN, NaN, NaN, 0.0445584, "- N/A -   "
2.2, 48.9482, 0.00374306, NaN, NaN, NaN, 0.0445584, "- N/A -   "
2.22, 49.41999, 0.00377638, NaN, NaN, NaN, 0.0445584, "- N/A -   "
2.24, 49.8918, 0.0038097, NaN, NaN, NaN, 0.0445584, "- N/A -   "
2.26, 50.2456, 0.0038458, NaN, NaN, NaN, 0.0433376, "- N/A -   "
2.28, 50.83536, 0.00389023, NaN, NaN, NaN, 0.0396753, "- N/A -   "
2.3, 51.30715, 0.0039291, NaN, NaN, NaN, 0.0372337, "- N/A -   "
2.32, 51.89689, 0.003965202, NaN, NaN, NaN, 0.0347922, "- N/A -   "
2.34, 52.36868, 0.0040013, NaN, NaN, NaN, 0.0335714, "- N/A -   "
2.36, 52.72252, 0.004040174, NaN, NaN, NaN, 0.0323506, "- N/A -   "
2.38, 53.3123, 0.00407905, NaN, NaN, NaN, 0.0299091, "- N/A -   "
2.4, 53.6661, 0.004115146, NaN, NaN, NaN, 0.0286883, "- N/A -   "
2.42, 54.0199, 0.00414569, NaN, NaN, NaN, 0.0286883, "- N/A -   "
2.44, 54.3738, 0.004176235, NaN, NaN, NaN, 0.0299091, "- N/A -   "
2.46, 54.9635, 0.00420956, NaN, NaN, NaN, 0.03112983, "- N/A -   "
2.48, 55.1994, 0.004237323, NaN, NaN, NaN, 0.0323506, "- N/A -   "
2.5, 55.43531, 0.004265091, NaN, NaN, NaN, 0.0347922, "- N/A -   "
2.52, 55.7892, 0.004295635, NaN, NaN, NaN, 0.03601294, "- N/A -   "
2.54, 56.2609, 0.00432896, NaN, NaN, NaN, 0.0372337, "- N/A -   "
2.56, 56.73273, 0.004362277, NaN, NaN, NaN, 0.03601294, "- N/A -   "
2.58, 57.32247, 0.00440115, NaN, NaN, NaN, 0.0335714, "- N/A -   "
2.6, 57.6763, 0.00444003, NaN, NaN, NaN, 0.03112983, "- N/A -   "
2.62, 58.1481, 0.004476124, NaN, NaN, NaN, 0.03112983, "- N/A -   "
2.64, 58.5019, 0.00450667, NaN, NaN, NaN, 0.03112983, "- N/A -   "
2.66, 58.8558, 0.00453721, NaN, NaN, NaN, 0.0323506, "- N/A -   "
2.68, 59.3276, 0.004567757, NaN, NaN, NaN, 0.0335714, "- N/A -   "
2.7, 59.68142, 0.004601078, NaN, NaN, NaN, 0.0347922, "- N/A -   "
2.72, 59.9173, 0.00462885, NaN, NaN, NaN, 0.03601294, "- N/A -   "
2.74, 60.3891, 0.00465939, NaN, NaN, NaN, 0.0372337, "- N/A -   "
2.76, 60.7429, 0.00468993, NaN, NaN, NaN, 0.0384545, "- N/A -   "
2.78, 61.2147, 0.004723255, NaN, NaN, NaN, 0.0384545, "- N/A -   "
2.8, 61.56858, 0.004756576, NaN, NaN, NaN, 0.0396753, "- N/A -   "
2.82, 62.0404, 0.00478712, NaN, NaN, NaN, 0.04089605, "- N/A -   "
2.84, 62.3942, 0.00482044, NaN, NaN, NaN, 0.04089605, "- N/A -   "
2.86, 62.98395, 0.00485099, NaN, NaN, NaN, 0.04089605, "- N/A -   "
2.88, 63.45574, 0.004887083, NaN, NaN, NaN, 0.0396753, "- N/A -   "
2.9, 63.80958, 0.004917627, NaN, NaN, NaN, 0.04089605, "- N/A -   "
2.92, 64.3993, 0.00495373, NaN, NaN, NaN, 0.0396753, "- N/A -   "
2.94, 64.75317, 0.004987047, NaN, NaN, NaN, 0.0396753, "- N/A -   "
2.96, 65.3429, 0.00502314, NaN, NaN, NaN, 0.0384545, "- N/A -   "
2.98, 65.81469, 0.00505924, NaN, NaN, NaN, 0.0372337, "- N/A -   "
3, 66.40443, 0.005098117, NaN, NaN, NaN, 0.03601294, "- N/A -   "
3.02, 66.87622, 0.00513144, NaN, NaN, NaN, 0.03601294, "- N/A -   "
3.04, 67.34801, 0.00516198, NaN, NaN, NaN, 0.03601294, "- N/A -   "
3.06, 67.70185, 0.005195303, NaN, NaN, NaN, 0.0372337, "- N/A -   "
3.08, 68.17364, 0.00522862, NaN, NaN, NaN, 0.0372337, "- N/A -   "
3.1, 68.7634, 0.005261945, NaN, NaN, NaN, 0.03601294, "- N/A -   "
3.12, 69.23517, 0.005298043, NaN, NaN, NaN, 0.0347922, "- N/A -   "
3.14, 69.707, 0.00533136, NaN, NaN, NaN, 0.0347922, "- N/A -   "
3.16, 70.29669, 0.00536746, NaN, NaN, NaN, 0.0335714, "- N/A -   "
3.18, 70.7685, 0.005403559, NaN, NaN, NaN, 0.0323506, "- N/A -   "
3.2, 71.3582, 0.00543688, NaN, NaN, NaN, 0.0323506, "- N/A -   "
3.22, 71.71206, 0.00547298, NaN, NaN, NaN, 0.0323506, "- N/A -   "
3.24, 72.3018, 0.0055063, NaN, NaN, NaN, 0.03112983, "- N/A -   "
3.26, 72.77359, 0.005542397, NaN, NaN, NaN, 0.03112983, "- N/A -   "
3.28, 73.2454, 0.00557572, NaN, NaN, NaN, 0.03112983, "- N/A -   "
3.3, 73.59922, 0.00560349, NaN, NaN, NaN, 0.0323506, "- N/A -   "
3.32, 74.189, 0.00563681, NaN, NaN, NaN, 0.0335714, "- N/A -   "
3.34, 74.66075, 0.00566457, NaN, NaN, NaN, 0.0347922, "- N/A -   "
3.36, 74.8966, 0.0056979, NaN, NaN, NaN, 0.0347922, "- N/A -   "
3.38, 75.36844, 0.00572844, NaN, NaN, NaN, 0.03601294, "- N/A -   "
3.4, 75.95817, 0.00576454, NaN, NaN, NaN, 0.0347922, "- N/A -   "
3.42, 76.43, 0.005800634, NaN, NaN, NaN, 0.0347922, "- N/A -   "
3.44, 76.90175, 0.005828402, NaN, NaN, NaN, 0.03601294, "- N/A -   "
3.46, 77.13765, 0.005858946, NaN, NaN, NaN, 0.0372337, "- N/A -   "
3.48, 77.6094, 0.00588949, NaN, NaN, NaN, 0.0384545, "- N/A -   "
3.5, 78.08122, 0.00592004, NaN, NaN, NaN, 0.0396753, "- N/A -   "
3.52, 78.55301, 0.00595336, NaN, NaN, NaN, 0.0396753, "- N/A -   "
3.54, 78.90686, 0.00598668, NaN, NaN, NaN, 0.04089605, "- N/A -   "
3.56, 79.2607, 0.006014444, NaN, NaN, NaN, 0.04211683, "- N/A -   "
3.58, 79.73249, 0.00604777, NaN, NaN, NaN, 0.04211683, "- N/A -   "
3.6, 80.20428, 0.00607831, NaN, NaN, NaN, 0.0433376, "- N/A -   "
3.62, 80.794, 0.006114408, NaN, NaN, NaN, 0.0433376, "- N/A -   "
3.64, 81.14786, 0.00614773, NaN, NaN, NaN, 0.0433376, "- N/A -   "
3.66, 81.61965, 0.00618105, NaN, NaN, NaN, 0.0433376, "- N/A -   "
3.68, 82.09144, 0.006219924, NaN, NaN, NaN, 0.04211683, "- N/A -   "
3.7, 82.56323, 0.006256022, NaN, NaN, NaN, 0.0396753, "- N/A -   "
3.72, 83.27091, 0.0062949, NaN, NaN, NaN, 0.0372337, "- N/A -   "
3.74, 83.74271, 0.00633377, NaN, NaN, NaN, 0.03601294, "- N/A -   "
3.76, 84.21449, 0.00636987, NaN, NaN, NaN, 0.0335714, "- N/A -   "
3.78, 84.68629, 0.00640597, NaN, NaN, NaN, 0.0323506, "- N/A -   "
3.8, 85.15807, 0.00643929, NaN, NaN, NaN, 0.0323506, "- N/A -   "
3.82, 85.51192, 0.006469832, NaN, NaN, NaN, 0.0335714, "- N/A -   "
3.84, 85.86576, 0.00650315, NaN, NaN, NaN, 0.0335714, "- N/A -   "
3.86, 86.33755, 0.006536474, NaN, NaN, NaN, 0.0335714, "- N/A -   "
3.88, 86.80934, 0.006567018, NaN, NaN, NaN, 0.0347922, "- N/A -   "
3.9, 87.16318, 0.006594786, NaN, NaN, NaN, 0.0372337, "- N/A -   "
3.92, 87.51702, 0.006630884, NaN, NaN, NaN, 0.03601294, "- N/A -   "
3.94, 88.10676, 0.00666698, NaN, NaN, NaN, 0.0347922, "- N/A -   "
3.96, 88.6965, 0.006705856, NaN, NaN, NaN, 0.0323506, "- N/A -   "
3.98, 89.16828, 0.00674473, NaN, NaN, NaN, 0.0299091, "- N/A -   "
4, 89.6401, 0.00678083, NaN, NaN, NaN, 0.0286883, "- N/A -   "
4.02, 89.99392, 0.00681137, NaN, NaN, NaN, 0.0299091, "- N/A -   "
4.04, 90.4657, 0.006844694, NaN, NaN, NaN, 0.0299091, "- N/A -   "
4.06, 90.81956, 0.006875238, NaN, NaN, NaN, 0.03112983, "- N/A -   "
4.08, 91.2913, 0.006905782, NaN, NaN, NaN, 0.0323506, "- N/A -   "
4.1, 91.64519, 0.00693355, NaN, NaN, NaN, 0.0347922, "- N/A -   "
4.12, 91.88108, 0.006961317, NaN, NaN, NaN, 0.0372337, "- N/A -   "
4.14, 92.23492, 0.006991861, NaN, NaN, NaN, 0.0396753, "- N/A -   "
4.16, 92.70671, 0.007019629, NaN, NaN, NaN, 0.04089605, "- N/A -   "
4.18, 93.0606, 0.007050173, NaN, NaN, NaN, 0.04211683, "- N/A -   "
4.2, 93.41439, 0.00707794, NaN, NaN, NaN, 0.0445584, "- N/A -   "
4.22, 94.0041, 0.007111262, NaN, NaN, NaN, 0.04577916, "- N/A -   "
4.24, 94.24, 0.007141806, NaN, NaN, NaN, 0.04577916, "- N/A -   "
4.26, 94.8298, 0.00717513, NaN, NaN, NaN, 0.04577916, "- N/A -   "
4.28, 95.18361, 0.00720845, NaN, NaN, NaN, 0.04577916, "- N/A -   "
4.3, 95.7733, 0.007244546, NaN, NaN, NaN, 0.04577916, "- N/A -   "
4.32, 96.36309, 0.007280643, NaN, NaN, NaN, 0.0433376, "- N/A -   "
4.34, 96.83487, 0.00732229, NaN, NaN, NaN, 0.04089605, "- N/A -   "
4.36, 97.30666, 0.00735839, NaN, NaN, NaN, 0.0396753, "- N/A -   "
4.38, 97.77845, 0.007391713, NaN, NaN, NaN, 0.0384545, "- N/A -   "
4.4, 98.3682, 0.00743059, NaN, NaN, NaN, 0.0372337, "- N/A -   "
4.42, 98.83998, 0.00746669, NaN, NaN, NaN, 0.0347922, "- N/A -   "
4.44, 99.3118, 0.007500007, NaN, NaN, NaN, 0.0347922, "- N/A -   "
4.46, 99.7836, 0.007530551, NaN, NaN, NaN, 0.03601294, "- N/A -   "
4.48, 100.137, 0.00756387, NaN, NaN, NaN, 0.03601294, "- N/A -   "
4.5, 100.6092, 0.00759997, NaN, NaN, NaN, 0.0347922, "- N/A -   "
4.52, 101.199, 0.007636067, NaN, NaN, NaN, 0.0335714, "- N/A -   "
4.54, 101.671, 0.00767494, NaN, NaN, NaN, 0.0323506, "- N/A -   "
4.56, 102.26, 0.00771104, NaN, NaN, NaN, 0.0299091, "- N/A -   "
4.58, 102.732, 0.00774436, NaN, NaN, NaN, 0.0299091, "- N/A -   "
4.6, 103.204, 0.007780459, NaN, NaN, NaN, 0.0299091, "- N/A -   "
4.62, 103.794, 0.00781378, NaN, NaN, NaN, 0.0286883, "- N/A -   "
4.64, 104.266, 0.0078471, NaN, NaN, NaN, 0.0286883, "- N/A -   "
4.66, 104.619, 0.007883199, NaN, NaN, NaN, 0.0274675, "- N/A -   "
4.68, 104.973, 0.007913743, NaN, NaN, NaN, 0.0286883, "- N/A -   "
4.7, 105.563, 0.00794151, NaN, NaN, NaN, 0.03112983, "- N/A -   "
4.72, 105.917, 0.007974831, NaN, NaN, NaN, 0.03112983, "- N/A -   "
4.74, 106.271, 0.008002599, NaN, NaN, NaN, 0.0335714, "- N/A -   "
4.76, 106.625, 0.008030367, NaN, NaN, NaN, 0.03601294, "- N/A -   "
4.78, 106.978, 0.008058134, NaN, NaN, NaN, 0.0384545, "- N/A -   "
4.8, 107.45, 0.008085901, NaN, NaN, NaN, 0.04089605, "- N/A -   "
4.82, 107.922, 0.00811645, NaN, NaN, NaN, 0.0433376, "- N/A -   "
4.84, 108.276, 0.008149767, NaN, NaN, NaN, 0.0433376, "- N/A -   "
4.86, 108.748, 0.008180311, NaN, NaN, NaN, 0.0433376, "- N/A -   "
4.88, 109.219, 0.008213632, NaN, NaN, NaN, 0.0433376, "- N/A -   "
4.9, 109.8091, 0.008246954, NaN, NaN, NaN, 0.0433376, "- N/A -   "
4.92, 110.281, 0.00828027, NaN, NaN, NaN, 0.0433376, "- N/A -   "
4.94, 110.753, 0.008316372, NaN, NaN, NaN, 0.0433376, "- N/A -   "
4.96, 111.224, 0.008346915, NaN, NaN, NaN, 0.0433376, "- N/A -   "
4.98, 111.696, 0.008380237, NaN, NaN, NaN, 0.0433376, "- N/A -   "
5, 112.286, 0.008416335, NaN, NaN, NaN, 0.04211683, "- N/A -   "
5.02, 112.758, 0.008452433, NaN, NaN, NaN, 0.04089605, "- N/A -   "
5.04, 113.23, 0.008485753, NaN, NaN, NaN, 0.04089605, "- N/A -   "
5.06, 113.701, 0.008521851, NaN, NaN, NaN, 0.0396753, "- N/A -   "
5.08, 114.409, 0.00856073, NaN, NaN, NaN, 0.0384545, "- N/A -   "
5.1, 115.117, 0.008602377, NaN, NaN, NaN, 0.0335714, "- N/A -   "
5.12, 115.706, 0.00864403, NaN, NaN, NaN, 0.03112983, "- N/A -   "
5.14, 116.178, 0.008680126, NaN, NaN, NaN, 0.0286883, "- N/A -   "
5.16, 116.65, 0.00871345, NaN, NaN, NaN, 0.0286883, "- N/A -   "
5.18, 117.122, 0.008746768, NaN, NaN, NaN, 0.0286883, "- N/A -   "
5.2, 117.712, 0.00878287, NaN, NaN, NaN, 0.0286883, "- N/A -   "
5.22, 118.183, 0.00881341, NaN, NaN, NaN, 0.0286883, "- N/A -   "
5.24, 118.537, 0.008843956, NaN, NaN, NaN, 0.0299091, "- N/A -   "
5.26, 119.009, 0.008874499, NaN, NaN, NaN, 0.03112983, "- N/A -   "
5.28, 119.363, 0.008905044, NaN, NaN, NaN, 0.0323506, "- N/A -   "
5.3, 119.835, 0.008932811, NaN, NaN, NaN, 0.0347922, "- N/A -   "
5.32, 120.424, 0.008966132, NaN, NaN, NaN, 0.03601294, "- N/A -   "
5.34, 120.778, 0.008996676, NaN, NaN, NaN, 0.03601294, "- N/A -   "
5.36, 121.25, 0.00902722, NaN, NaN, NaN, 0.0372337, "- N/A -   "
5.38, 121.722, 0.009063318, NaN, NaN, NaN, 0.0372337, "- N/A -   "
5.4, 122.429, 0.00909942, NaN, NaN, NaN, 0.03601294, "- N/A -   "
5.42, 123.019, 0.009132737, NaN, NaN, NaN, 0.0347922, "- N/A -   "
5.44, 123.609, 0.009168834, NaN, NaN, NaN, 0.0347922, "- N/A -   "
5.46, 123.845, 0.009199379, NaN, NaN, NaN, 0.03601294, "- N/A -   "
5.48, 124.317, 0.009227146, NaN, NaN, NaN, 0.0372337, "- N/A -   "
5.5, 124.788, 0.00925769, NaN, NaN, NaN, 0.0384545, "- N/A -   "
5.52, 125.26, 0.009288236, NaN, NaN, NaN, 0.0396753, "- N/A -   "
5.54, 125.614, 0.009313226, NaN, NaN, NaN, 0.0433376, "- N/A -   "
5.56, 126.086, 0.00934377, NaN, NaN, NaN, 0.0445584, "- N/A -   "
5.58, 126.676, 0.009379867, NaN, NaN, NaN, 0.0433376, "- N/A -   "
5.6, 127.147, 0.009413188, NaN, NaN, NaN, 0.0433376, "- N/A -   "
5.62, 127.737, 0.009443734, NaN, NaN, NaN, 0.0445584, "- N/A -   "
5.64, 128.209, 0.00947983, NaN, NaN, NaN, 0.0433376, "- N/A -   "
5.66, 128.799, 0.009515928, NaN, NaN, NaN, 0.04211683, "- N/A -   "
5.68, 129.27, 0.009554803, NaN, NaN, NaN, 0.04089605, "- N/A -   "
5.7, 129.978, 0.009593678, NaN, NaN, NaN, 0.0372337, "- N/A -   "
5.72, 130.568, 0.009632552, NaN, NaN, NaN, 0.0347922, "- N/A -   "
5.74, 131.1576, 0.00966865, NaN, NaN, NaN, 0.0335714, "- N/A -   "
5.76, 131.747, 0.009704748, NaN, NaN, NaN, 0.0335714, "- N/A -   "
5.78, 132.219, 0.009740844, NaN, NaN, NaN, 0.0323506, "- N/A -   "
5.8, 132.9268, 0.009776942, NaN, NaN, NaN, 0.0299091, "- N/A -   "
5.82, 133.399, 0.009810264, NaN, NaN, NaN, 0.0299091, "- N/A -   "
5.84, 133.752, 0.009838033, NaN, NaN, NaN, 0.0323506, "- N/A -   "
5.86, 134.224, 0.009868576, NaN, NaN, NaN, 0.0335714, "- N/A -   "
5.88, 134.696, 0.009901897, NaN, NaN, NaN, 0.0335714, "- N/A -   "
5.9, 135.1678, 0.009935218, NaN, NaN, NaN, 0.0347922, "- N/A -   "
5.92, 135.758, 0.00996576, NaN, NaN, NaN, 0.03601294, "- N/A -   "
5.94, 136.111, 0.009996306, NaN, NaN, NaN, 0.0372337, "- N/A -   "
5.96, 136.583, 0.0100269, NaN, NaN, NaN, 0.0384545, "- N/A -   "
5.98, 137.291, 0.0100629, NaN, NaN, NaN, 0.03601294, "- N/A -   "
6, 137.8806, 0.0101018, NaN, NaN, NaN, 0.0335714, "- N/A -   "
6.02, 138.47, 0.01013792, NaN, NaN, NaN, 0.0323506, "- N/A -   "
6.04, 139.06, 0.010174, NaN, NaN, NaN, 0.03112983, "- N/A -   "
6.06, 139.532, 0.0102073, NaN, NaN, NaN, 0.03112983, "- N/A -   "
6.08, 140.004, 0.0102407, NaN, NaN, NaN, 0.0323506, "- N/A -   "
6.1, 140.475, 0.0102684, NaN, NaN, NaN, 0.0335714, "- N/A -   "
6.12, 140.947, 0.010299, NaN, NaN, NaN, 0.0347922, "- N/A -   "
6.14, 141.537, 0.0103295, NaN, NaN, NaN, 0.03601294, "- N/A -   "
6.16, 141.891, 0.0103628, NaN, NaN, NaN, 0.0372337, "- N/A -   "
6.18, 142.3626, 0.0103906, NaN, NaN, NaN, 0.0384545, "- N/A -   "
6.2, 142.8344, 0.0104184, NaN, NaN, NaN, 0.04089605, "- N/A -   "
6.22, 143.424, 0.0104517, NaN, NaN, NaN, 0.04089605, "- N/A -   "
6.24, 143.896, 0.010485, NaN, NaN, NaN, 0.04089605, "- N/A -   "
6.26, 144.486, 0.0105211, NaN, NaN, NaN, 0.04089605, "- N/A -   "
6.28, 144.957, 0.0105517, NaN, NaN, NaN, 0.04089605, "- N/A -   "
6.3, 145.665, 0.010585, NaN, NaN, NaN, 0.04089605, "- N/A -   "
6.32, 146.019, 0.0106183, NaN, NaN, NaN, 0.04089605, "- N/A -   "
6.34, 146.6087, 0.0106488, NaN, NaN, NaN, 0.04211683, "- N/A -   "
6.36, 147.0805, 0.0106849, NaN, NaN, NaN, 0.04089605, "- N/A -   "
6.38, 147.788, 0.0107238, NaN, NaN, NaN, 0.0396753, "- N/A -   "
6.4, 148.378, 0.0107571, NaN, NaN, NaN, 0.0384545, "- N/A -   "
6.42, 148.968, 0.0107932, NaN, NaN, NaN, 0.0372337, "- N/A -   "
6.44, 149.439, 0.0108266, NaN, NaN, NaN, 0.0372337, "- N/A -   "
6.46, 150.029, 0.0108627, NaN, NaN, NaN, 0.0372337, "- N/A -   "
6.48, 150.619, 0.010896, NaN, NaN, NaN, 0.03601294, "- N/A -   "
6.5, 151.091, 0.0109321, NaN, NaN, NaN, 0.0347922, "- N/A -   "
6.52, 151.68, 0.0109654, NaN, NaN, NaN, 0.0347922, "- N/A -   "
6.54, 152.27, 0.0110015, NaN, NaN, NaN, 0.0347922, "- N/A -   "
6.56, 152.86, 0.0110376, NaN, NaN, NaN, 0.0335714, "- N/A -   "
6.58, 153.45, 0.0110765, NaN, NaN, NaN, 0.03112983, "- N/A -   "
6.6, 154.0394, 0.0111098, NaN, NaN, NaN, 0.0299091, "- N/A -   "
6.62, 154.629, 0.0111431, NaN, NaN, NaN, 0.03112983, "- N/A -   "
6.64, 155.101, 0.0111764, NaN, NaN, NaN, 0.03112983, "- N/A -   "
6.66, 155.691, 0.01120697, NaN, NaN, NaN, 0.0323506, "- N/A -   "
6.68, 156.0445, 0.0112375, NaN, NaN, NaN, 0.0335714, "- N/A -   "
6.7, 156.634, 0.0112681, NaN, NaN, NaN, 0.0335714, "- N/A -   "
6.72, 157.224, 0.01130138, NaN, NaN, NaN, 0.0335714, "- N/A -   "
6.74, 157.814, 0.0113347, NaN, NaN, NaN, 0.0335714, "- N/A -   "
6.76, 158.168, 0.0113652, NaN, NaN, NaN, 0.0347922, "- N/A -   "
6.78, 158.7573, 0.0114013, NaN, NaN, NaN, 0.0335714, "- N/A -   "
6.8, 159.465, 0.0114347, NaN, NaN, NaN, 0.0335714, "- N/A -   "
6.82, 160.055, 0.0114735, NaN, NaN, NaN, 0.0323506, "- N/A -   "
6.84, 160.409, 0.0115041, NaN, NaN, NaN, 0.0335714, "- N/A -   "
6.86, 160.88, 0.0115346, NaN, NaN, NaN, 0.0347922, "- N/A -   "
6.88, 161.352, 0.0115624, NaN, NaN, NaN, 0.0372337, "- N/A -   "
6.9, 161.824, 0.0115902, NaN, NaN, NaN, 0.0384545, "- N/A -   "
6.92, 162.414, 0.0116235, NaN, NaN, NaN, 0.0384545, "- N/A -   "
6.94, 162.885, 0.0116568, NaN, NaN, NaN, 0.0396753, "- N/A -   "
6.96, 163.357, 0.0116873, NaN, NaN, NaN, 0.04089605, "- N/A -   "
6.98, 163.947, 0.0117179, NaN, NaN, NaN, 0.04089605, "- N/A -   "
7, 164.537, 0.0117484, NaN, NaN, NaN, 0.04211683, "- N/A -   "
7.02, 164.891, 0.0117762, NaN, NaN, NaN, 0.0445584, "- N/A -   "
7.04, 165.362, 0.0118095, NaN, NaN, NaN, 0.04577916, "- N/A -   "
7.06, 166.07, 0.0118456, NaN, NaN, NaN, 0.0433376, "- N/A -   "
7.08, 166.778, 0.0118845, NaN, NaN, NaN, 0.04089605, "- N/A -   "
7.1, 167.367, 0.0119206, NaN, NaN, NaN, 0.04089605, "- N/A -   "
7.12, 168.075, 0.0119567, NaN, NaN, NaN, 0.0384545, "- N/A -   "
7.14, 168.665, 0.0119956, NaN, NaN, NaN, 0.03601294, "- N/A -   "
7.16, 169.373, 0.0120344, NaN, NaN, NaN, 0.0335714, "- N/A -   "
7.18, 170.08, 0.01207054, NaN, NaN, NaN, 0.0323506, "- N/A -   "
7.2, 170.552, 0.0121066, NaN, NaN, NaN, 0.0323506, "- N/A -   "
7.22, 171.024, 0.01214, NaN, NaN, NaN, 0.0323506, "- N/A -   "
7.24, 171.614, 0.0121677, NaN, NaN, NaN, 0.0335714, "- N/A -   "
7.26, 171.9674, 0.01219827, NaN, NaN, NaN, 0.03601294, "- N/A -   "
7.28, 172.6751, 0.0122316, NaN, NaN, NaN, 0.0347922, "- N/A -   "
7.3, 173.265, 0.01226769, NaN, NaN, NaN, 0.0347922, "- N/A -   "
7.32, 173.855, 0.01230101, NaN, NaN, NaN, 0.0335714, "- N/A -   "
7.34, 174.4443, 0.0123371, NaN, NaN, NaN, 0.0323506, "- N/A -   "
7.36, 175.034, 0.0123732, NaN, NaN, NaN, 0.03112983, "- N/A -   "
7.38, 175.624, 0.0124121, NaN, NaN, NaN, 0.0286883, "- N/A -   "
7.4, 176.331, 0.0124482, NaN, NaN, NaN, 0.0286883, "- N/A -   "
7.42, 176.9212, 0.0124815, NaN, NaN, NaN, 0.0286883, "- N/A -   "
7.44, 177.393, 0.012512, NaN, NaN, NaN, 0.0299091, "- N/A -   "
7.46, 177.865, 0.0125398, NaN, NaN, NaN, 0.03112983, "- N/A -   "
7.48, 178.455, 0.0125731, NaN, NaN, NaN, 0.03112983, "- N/A -   "
7.5, 179.044, 0.0126037, NaN, NaN, NaN, 0.0323506, "- N/A -   "
7.52, 179.516, 0.0126342, NaN, NaN, NaN, 0.0335714, "- N/A -   "
7.54, 179.988, 0.012662, NaN, NaN, NaN, 0.03601294, "- N/A -   "
7.56, 180.342, 0.0126898, NaN, NaN, NaN, 0.0384545, "- N/A -   "
7.58, 180.813, 0.0127175, NaN, NaN, NaN, 0.04089605, "- N/A -   "
7.6, 181.167, 0.0127425, NaN, NaN, NaN, 0.0445584, "- N/A -   "
7.62, 181.757, 0.0127731, NaN, NaN, NaN, 0.04577916, "- N/A -   "
7.64, 182.3468, 0.0128064, NaN, NaN, NaN, 0.04577916, "- N/A -   "
7.66, 182.937, 0.0128397, NaN, NaN, NaN, 0.04699994, "- N/A -   "
7.68, 183.526, 0.0128702, NaN, NaN, NaN, 0.04699994, "- N/A -   "
7.7, 184.116, 0.0129063, NaN, NaN, NaN, 0.04577916, "- N/A -   "
7.72, 184.706, 0.01294244, NaN, NaN, NaN, 0.0445584, "- N/A -   "
7.74, 185.413, 0.0129813, NaN, NaN, NaN, 0.04211683, "- N/A -   "
7.76, 186.121, 0.0130174, NaN, NaN, NaN, 0.04089605, "- N/A -   "
7.78, 186.829, 0.0130563, NaN, NaN, NaN, 0.0384545, "- N/A -   "
7.8, 187.419, 0.0130924, NaN, NaN, NaN, 0.0384545, "- N/A -   "
7.82, 188.1262, 0.0131285, NaN, NaN, NaN, 0.03601294, "- N/A -   "
7.84, 188.716, 0.0131646, NaN, NaN, NaN, 0.0347922, "- N/A -   "
7.86, 189.424, 0.0132007, NaN, NaN, NaN, 0.0335714, "- N/A -   "
7.88, 190.013, 0.0132368, NaN, NaN, NaN, 0.0323506, "- N/A -   "
7.9, 190.603, 0.0132729, NaN, NaN, NaN, 0.03112983, "- N/A -   "
7.92, 191.193, 0.013309, NaN, NaN, NaN, 0.0299091, "- N/A -   "
7.94, 191.7826, 0.0133478, NaN, NaN, NaN, 0.0286883, "- N/A -   "
7.96, 192.49, 0.0133839, NaN, NaN, NaN, 0.0262467, "- N/A -   "
7.97, 192.962, 0.0134034, NaN, NaN, NaN, 0.0262467, "- N/A -   "
7.98, 193.08, 0.01342, NaN, NaN, NaN, 0.0262467, "- N/A -   "
7.99, 193.434, 0.0134367, NaN, NaN, NaN, 0.0262467, "- N/A -   "
8, 193.67, 0.0134506, NaN, NaN, NaN, 0.0262467, "- N/A -   "
8.01, 193.7877, 0.0134672, NaN, NaN, NaN, 0.0274675, "- N/A -   "
8.02, 194.142, 0.0134811, NaN, NaN, NaN, 0.0274675, "- N/A -   "
8.03, 194.377, 0.01349779, NaN, NaN, NaN, 0.0274675, "- N/A -   "
8.04, 194.731, 0.0135172, NaN, NaN, NaN, 0.0274675, "- N/A -   "
8.05, 195.085, 0.0135339, NaN, NaN, NaN, 0.0262467, "- N/A -   "
8.06, 195.321, 0.0135478, NaN, NaN, NaN, 0.0274675, "- N/A -   "
8.07, 195.5569, 0.0135617, NaN, NaN, NaN, 0.0286883, "- N/A -   "
8.08, 195.7928, 0.0135755, NaN, NaN, NaN, 0.0299091, "- N/A -   "
8.09, 196.0287, 0.0135922, NaN, NaN, NaN, 0.03112983, "- N/A -   "
8.1, 196.265, 0.0136061, NaN, NaN, NaN, 0.03112983, "- N/A -   "
8.11, 196.618, 0.0136227, NaN, NaN, NaN, 0.03112983, "- N/A -   "
8.12, 196.854, 0.0136394, NaN, NaN, NaN, 0.03112983, "- N/A -   "
8.13, 197.208, 0.0136561, NaN, NaN, NaN, 0.03112983, "- N/A -   "
8.14, 197.444, 0.0136699, NaN, NaN, NaN, 0.0323506, "- N/A -   "
8.15, 197.68, 0.0136866, NaN, NaN, NaN, 0.0335714, "- N/A -   "
8.16, 197.916, 0.0137005, NaN, NaN, NaN, 0.0347922, "- N/A -   "
8.17, 198.27, 0.0137172, NaN, NaN, NaN, 0.03601294, "- N/A -   "
8.18, 198.506, 0.013731, NaN, NaN, NaN, 0.03601294, "- N/A -   "
8.19, 198.859, 0.0137477, NaN, NaN, NaN, 0.0372337, "- N/A -   "
8.2, 199.095, 0.0137616, NaN, NaN, NaN, 0.0372337, "- N/A -   "
8.21, 199.213, 0.0137755, NaN, NaN, NaN, 0.0384545, "- N/A -   "
8.22, 199.331, 0.0137893, NaN, NaN, NaN, 0.0396753, "- N/A -   "
8.23, 199.685, 0.0138032, NaN, NaN, NaN, 0.04089605, "- N/A -   "
8.24, 200.039, 0.0138199, NaN, NaN, NaN, 0.04211683, "- N/A -   "
8.25, 200.275, 0.0138366, NaN, NaN, NaN, 0.04211683, "- N/A -   "
8.26, 200.5107, 0.0138504, NaN, NaN, NaN, 0.0433376, "- N/A -   "
8.27, 200.7466, 0.0138643, NaN, NaN, NaN, 0.0445584, "- N/A -   "
8.28, 200.9825, 0.0138782, NaN, NaN, NaN, 0.0445584, "- N/A -   "
8.29, 201.336, 0.0138949, NaN, NaN, NaN, 0.0445584, "- N/A -   "
8.3, 201.69, 0.0139115, NaN, NaN, NaN, 0.04577916, "- N/A -   "
8.31, 201.926, 0.0139254, NaN, NaN, NaN, 0.04577916, "- N/A -   "
8.32, 202.28, 0.0139448, NaN, NaN, NaN, 0.04577916, "- N/A -   "
8.33, 202.516, 0.0139615, NaN, NaN, NaN, 0.04577916, "- N/A -   "
8.34, 202.7517, 0.0139754, NaN, NaN, NaN, 0.04577916, "- N/A -   "
8.35, 203.106, 0.0139921, NaN, NaN, NaN, 0.04577916, "- N/A -   "
8.36, 203.459, 0.0140087, NaN, NaN, NaN, 0.04577916, "- N/A -   "
8.37, 203.695, 0.0140254, NaN, NaN, NaN, 0.04577916, "- N/A -   "
8.38, 204.049, 0.0140448, NaN, NaN, NaN, 0.04577916, "- N/A -   "
8.39, 204.403, 0.0140615, NaN, NaN, NaN, 0.0445584, "- N/A -   "
8.4, 204.7568, 0.0140809, NaN, NaN, NaN, 0.0433376, "- N/A -   "
8.41, 204.9927, 0.0140976, NaN, NaN, NaN, 0.0433376, "- N/A -   "
8.42, 205.465, 0.014117, NaN, NaN, NaN, 0.0433376, "- N/A -   "
8.43, 205.818, 0.0141337, NaN, NaN, NaN, 0.04211683, "- N/A -   "
8.44, 206.054, 0.0141531, NaN, NaN, NaN, 0.04211683, "- N/A -   "
8.45, 206.526, 0.0141698, NaN, NaN, NaN, 0.04089605, "- N/A -   "
8.46, 206.88, 0.0141892, NaN, NaN, NaN, 0.0396753, "- N/A -   "
8.47, 207.116, 0.0142059, NaN, NaN, NaN, 0.0396753, "- N/A -   "
8.48, 207.4696, 0.0142225, NaN, NaN, NaN, 0.0396753, "- N/A -   "
8.49, 207.705, 0.01424196, NaN, NaN, NaN, 0.0384545, "- N/A -   "
8.5, 208.059, 0.0142614, NaN, NaN, NaN, 0.0372337, "- N/A -   "
8.51, 208.4132, 0.0142808, NaN, NaN, NaN, 0.03601294, "- N/A -   "
8.52, 208.885, 0.014303, NaN, NaN, NaN, 0.0347922, "- N/A -   "
8.53, 209.239, 0.0143225, NaN, NaN, NaN, 0.0323506, "- N/A -   "
8.54, 209.711, 0.0143419, NaN, NaN, NaN, 0.03112983, "- N/A -   "
8.55, 210.064, 0.0143614, NaN, NaN, NaN, 0.0299091, "- N/A -   "
8.56, 210.3, 0.0143808, NaN, NaN, NaN, 0.0286883, "- N/A -   "
8.57, 210.654, 0.0143975, NaN, NaN, NaN, 0.0286883, "- N/A -   "
8.58, 210.89, 0.0144141, NaN, NaN, NaN, 0.0286883, "- N/A -   "
8.59, 211.244, 0.0144308, NaN, NaN, NaN, 0.0286883, "- N/A -   "
8.6, 211.48, 0.0144474, NaN, NaN, NaN, 0.0286883, "- N/A -   "
8.61, 211.834, 0.0144641, NaN, NaN, NaN, 0.0286883, "- N/A -   "
8.62, 212.1875, 0.0144808, NaN, NaN, NaN, 0.0286883, "- N/A -   "
8.63, 212.305, 0.0144974, NaN, NaN, NaN, 0.0286883, "- N/A -   "
8.64, 212.777, 0.0145141, NaN, NaN, NaN, 0.0299091, "- N/A -   "
8.65, 213.013, 0.014528, NaN, NaN, NaN, 0.0299091, "- N/A -   "
8.66, 213.249, 0.0145418, NaN, NaN, NaN, 0.03112983, "- N/A -   "
8.67, 213.603, 0.01455851, NaN, NaN, NaN, 0.0323506, "- N/A -   "
8.68, 213.721, 0.0145724, NaN, NaN, NaN, 0.0323506, "- N/A -   "
8.69, 214.075, 0.0145891, NaN, NaN, NaN, 0.0323506, "- N/A -   "
8.7, 214.311, 0.0146057, NaN, NaN, NaN, 0.0323506, "- N/A -   "
8.71, 214.6644, 0.0146224, NaN, NaN, NaN, 0.0323506, "- N/A -   "
8.72, 215.018, 0.0146363, NaN, NaN, NaN, 0.0335714, "- N/A -   "
8.73, 215.254, 0.0146529, NaN, NaN, NaN, 0.0347922, "- N/A -   "
8.74, 215.49, 0.014664, NaN, NaN, NaN, 0.03601294, "- N/A -   "
8.75, 215.726, 0.0146807, NaN, NaN, NaN, 0.0372337, "- N/A -   "
8.76, 215.962, 0.0146973, NaN, NaN, NaN, 0.03601294, "- N/A -   "
8.77, 216.434, 0.014714, NaN, NaN, NaN, 0.0372337, "- N/A -   "
8.78, 216.67, 0.0147279, NaN, NaN, NaN, 0.0372337, "- N/A -   "
8.79, 216.905, 0.0147418, NaN, NaN, NaN, 0.0384545, "- N/A -   "
8.8, 217.259, 0.0147612, NaN, NaN, NaN, 0.0384545, "- N/A -   "
8.81, 217.613, 0.0147751, NaN, NaN, NaN, 0.0384545, "- N/A -   "
8.82, 217.849, 0.0147945, NaN, NaN, NaN, 0.0384545, "- N/A -   "
8.83, 218.085, 0.0148084, NaN, NaN, NaN, 0.0384545, "- N/A -   "
8.84, 218.557, 0.0148279, NaN, NaN, NaN, 0.0384545, "- N/A -   "
8.85, 218.793, 0.0148445, NaN, NaN, NaN, 0.0372337, "- N/A -   "
8.86, 219.1464, 0.0148612, NaN, NaN, NaN, 0.0372337, "- N/A -   "
8.87, 219.5, 0.0148806, NaN, NaN, NaN, 0.0372337, "- N/A -   "
8.88, 219.8541, 0.0148945, NaN, NaN, NaN, 0.0372337, "- N/A -   "
8.89, 220.09, 0.0149112, NaN, NaN, NaN, 0.0372337, "- N/A -   "
8.9, 220.326, 0.014925, NaN, NaN, NaN, 0.0384545, "- N/A -   "
8.91, 220.562, 0.0149389, NaN, NaN, NaN, 0.0396753, "- N/A -   "
8.92, 220.916, 0.0149556, NaN, NaN, NaN, 0.0396753, "- N/A -   "
8.93, 221.152, 0.0149695, NaN, NaN, NaN, 0.04089605, "- N/A -   "
8.94, 221.387, 0.0149861, NaN, NaN, NaN, 0.04211683, "- N/A -   "
8.95, 221.741, 0.015, NaN, NaN, NaN, 0.04211683, "- N/A -   "
8.96, 221.977, 0.0150167, NaN, NaN, NaN, 0.0433376, "- N/A -   "
8.97, 222.331, 0.0150306, NaN, NaN, NaN, 0.0433376, "- N/A -   "
8.98, 222.449, 0.0150472, NaN, NaN, NaN, 0.0433376, "- N/A -   "
8.99, 222.803, 0.0150611, NaN, NaN, NaN, 0.0445584, "- N/A -   "
9, 223.157, 0.0150778, NaN, NaN, NaN, 0.0445584, "- N/A -   "
9.01, 223.275, 0.0150916, NaN, NaN, NaN, 0.04577916, "- N/A -   "
9.02, 223.6284, 0.0151083, NaN, NaN, NaN, 0.04577916, "- N/A -   "
9.03, 223.982, 0.015125, NaN, NaN, NaN, 0.04577916, "- N/A -   "
9.04, 224.336, 0.0151416, NaN, NaN, NaN, 0.04577916, "- N/A -   "
9.05, 224.69, 0.0151583, NaN, NaN, NaN, 0.04577916, "- N/A -   "
9.06, 225.044, 0.0151777, NaN, NaN, NaN, 0.04577916, "- N/A -   "
9.07, 225.28, 0.0151944, NaN, NaN, NaN, 0.0445584, "- N/A -   "
9.08, 225.751, 0.0152138, NaN, NaN, NaN, 0.0433376, "- N/A -   "
9.09, 226.1053, 0.0152333, NaN, NaN, NaN, 0.04211683, "- N/A -   "
9.1, 226.459, 0.0152555, NaN, NaN, NaN, 0.04089605, "- N/A -   "
9.11, 226.813, 0.0152721, NaN, NaN, NaN, 0.0396753, "- N/A -   "
9.12, 227.167, 0.0152916, NaN, NaN, NaN, 0.0396753, "- N/A -   "
9.13, 227.521, 0.01531101, NaN, NaN, NaN, 0.0384545, "- N/A -   "
9.14, 227.875, 0.01532767, NaN, NaN, NaN, 0.0372337, "- N/A -   "
9.15, 228.228, 0.0153471, NaN, NaN, NaN, 0.03601294, "- N/A -   "
9.16, 228.7, 0.0153665, NaN, NaN, NaN, 0.0347922, "- N/A -   "
9.17, 229.172, 0.015386, NaN, NaN, NaN, 0.0335714, "- N/A -   "
9.18, 229.408, 0.0154054, NaN, NaN, NaN, 0.0335714, "- N/A -   "
9.19, 229.762, 0.01542208, NaN, NaN, NaN, 0.0323506, "- N/A -   "
9.2, 230.116, 0.0154415, NaN, NaN, NaN, 0.0323506, "- N/A -   "
9.21, 230.351, 0.0154582, NaN, NaN, NaN, 0.03112983, "- N/A -   "
9.22, 230.8232, 0.0154776, NaN, NaN, NaN, 0.0299091, "- N/A -   "
9.23, 231.177, 0.0154943, NaN, NaN, NaN, 0.0299091, "- N/A -   "
9.24, 231.413, 0.0155109, NaN, NaN, NaN, 0.0299091, "- N/A -   "
9.25, 231.767, 0.0155276, NaN, NaN, NaN, 0.0299091, "- N/A -   "
9.26, 232.121, 0.0155443, NaN, NaN, NaN, 0.0299091, "- N/A -   "
9.27, 232.357, 0.0155609, NaN, NaN, NaN, 0.03112983, "- N/A -   "
9.28, 232.592, 0.0155748, NaN, NaN, NaN, 0.03112983, "- N/A -   "
9.29, 232.828, 0.0155887, NaN, NaN, NaN, 0.0323506, "- N/A -   "
9.3, 233.182, 0.0156081, NaN, NaN, NaN, 0.0323506, "- N/A -   "
9.31, 233.536, 0.015622, NaN, NaN, NaN, 0.0323506, "- N/A -   "
9.32, 233.772, 0.0156387, NaN, NaN, NaN, 0.0335714, "- N/A -   "
9.33, 234.008, 0.0156553, NaN, NaN, NaN, 0.0335714, "- N/A -   "
9.34, 234.362, 0.01566921, NaN, NaN, NaN, 0.0335714, "- N/A -   "
9.35, 234.715, 0.0156886, NaN, NaN, NaN, 0.0323506, "- N/A -   "
9.36, 235.0693, 0.0157053, NaN, NaN, NaN, 0.0323506, "- N/A -   "
9.37, 235.423, 0.01572197, NaN, NaN, NaN, 0.0323506, "- N/A -   "
9.38, 235.659, 0.01573863, NaN, NaN, NaN, 0.0323506, "- N/A -   "
9.39, 236.0129, 0.0157581, NaN, NaN, NaN, 0.0323506, "- N/A -   "
9.4, 236.485, 0.01577195, NaN, NaN, NaN, 0.0323506, "- N/A -   "
9.41, 236.721, 0.0157914, NaN, NaN, NaN, 0.0323506, "- N/A -   "
9.42, 237.074, 0.015808, NaN, NaN, NaN, 0.03112983, "- N/A -   "
9.43, 237.428, 0.01582471, NaN, NaN, NaN, 0.0323506, "- N/A -   "
9.44, 237.7821, 0.0158414, NaN, NaN, NaN, 0.03112983, "- N/A -   "
9.45, 238.018, 0.01585803, NaN, NaN, NaN, 0.03112983, "- N/A -   "
9.46, 238.254, 0.01587469, NaN, NaN, NaN, 0.0323506, "- N/A -   "
9.47, 238.608, 0.0158886, NaN, NaN, NaN, 0.0323506, "- N/A -   "
9.48, 238.844, 0.0159025, NaN, NaN, NaN, 0.0335714, "- N/A -   "
9.49, 239.197, 0.0159163, NaN, NaN, NaN, 0.0347922, "- N/A -   "
9.5, 239.433, 0.015933, NaN, NaN, NaN, 0.0347922, "- N/A -   "
9.51, 239.787, 0.0159497, NaN, NaN, NaN, 0.03601294, "- N/A -   "
9.52, 240.0231, 0.0159635, NaN, NaN, NaN, 0.03601294, "- N/A -   "
9.53, 240.377, 0.0159802, NaN, NaN, NaN, 0.0372337, "- N/A -   "
9.54, 240.731, 0.0159969, NaN, NaN, NaN, 0.0372337, "- N/A -   "
9.55, 240.967, 0.01601075, NaN, NaN, NaN, 0.0372337, "- N/A -   "
9.56, 241.203, 0.0160274, NaN, NaN, NaN, 0.0372337, "- N/A -   "
9.57, 241.556, 0.0160413, NaN, NaN, NaN, 0.0384545, "- N/A -   "
9.58, 241.91, 0.016058, NaN, NaN, NaN, 0.0384545, "- N/A -   "
9.59, 242.146, 0.0160774, NaN, NaN, NaN, 0.0384545, "- N/A -   "
9.6, 242.5, 0.0160913, NaN, NaN, NaN, 0.0384545, "- N/A -   "
9.61, 242.736, 0.01610516, NaN, NaN, NaN, 0.0396753, "- N/A -   "
9.62, 242.853, 0.0161218, NaN, NaN, NaN, 0.0396753, "- N/A -   "
9.63, 243.325, 0.0161357, NaN, NaN, NaN, 0.04089605, "- N/A -   "
9.64, 243.56, 0.0161524, NaN, NaN, NaN, 0.04211683, "- N/A -   "
9.65, 243.914, 0.016169, NaN, NaN, NaN, 0.04211683, "- N/A -   "
9.66, 244.2674, 0.0161857, NaN, NaN, NaN, 0.04211683, "- N/A -   "
9.67, 244.621, 0.0162023, NaN, NaN, NaN, 0.04089605, "- N/A -   "
9.68, 244.857, 0.016219, NaN, NaN, NaN, 0.04089605, "- N/A -   "
9.69, 245.328, 0.0162357, NaN, NaN, NaN, 0.04089605, "- N/A -   "
9.7, 245.563, 0.0162523, NaN, NaN, NaN, 0.04089605, "- N/A -   "
9.71, 245.799, 0.01626899, NaN, NaN, NaN, 0.04089605, "- N/A -   "
9.72, 246.27, 0.0162884, NaN, NaN, NaN, 0.04089605, "- N/A -   "
9.73, 246.624, 0.0163051, NaN, NaN, NaN, 0.04089605, "- N/A -   "
9.74, 246.9774, 0.0163217, NaN, NaN, NaN, 0.04089605, "- N/A -   "
9.75, 247.213, 0.0163384, NaN, NaN, NaN, 0.0396753, "- N/A -   "
9.76, 247.567, 0.01635507, NaN, NaN, NaN, 0.0396753, "- N/A -   "
9.77, 247.92, 0.0163745, NaN, NaN, NaN, 0.0384545, "- N/A -   "
9.78, 248.3913, 0.0163939, NaN, NaN, NaN, 0.0372337, "- N/A -   "
9.79, 248.745, 0.0164106, NaN, NaN, NaN, 0.0372337, "- N/A -   "
9.8, 249.098, 0.0164273, NaN, NaN, NaN, 0.0372337, "- N/A -   "
9.81, 249.334, 0.0164467, NaN, NaN, NaN, 0.03601294, "- N/A -   "
9.82, 249.805, 0.0164661, NaN, NaN, NaN, 0.03601294, "- N/A -   "
9.83, 250.159, 0.0164828, NaN, NaN, NaN, 0.0347922, "- N/A -   "
9.84, 250.394, 0.01649946, NaN, NaN, NaN, 0.0347922, "- N/A -   "
9.85, 250.748, 0.0165161, NaN, NaN, NaN, 0.0347922, "- N/A -   "
9.86, 251.101, 0.0165356, NaN, NaN, NaN, 0.0347922, "- N/A -   "
9.87, 251.455, 0.0165522, NaN, NaN, NaN, 0.0335714, "- N/A -   "
9.88, 251.808, 0.0165689, NaN, NaN, NaN, 0.0335714, "- N/A -   "
9.89, 252.162, 0.0165855, NaN, NaN, NaN, 0.0335714, "- N/A -   "
9.9, 252.515, 0.0166022, NaN, NaN, NaN, 0.0347922, "- N/A -   "
9.91, 252.633, 0.0166161, NaN, NaN, NaN, 0.0347922, "- N/A -   "
9.92, 252.987, 0.0166327, NaN, NaN, NaN, 0.0347922, "- N/A -   "
9.93, 253.34, 0.0166494, NaN, NaN, NaN, 0.03601294, "- N/A -   "
9.94, 253.576, 0.0166661, NaN, NaN, NaN, 0.03601294, "- N/A -   "
9.95, 253.929, 0.0166799, NaN, NaN, NaN, 0.03601294, "- N/A -   "
9.96, 254.283, 0.01669661, NaN, NaN, NaN, 0.03601294, "- N/A -   "
9.97, 254.6361, 0.016716, NaN, NaN, NaN, 0.0347922, "- N/A -   "
9.98, 255.1074, 0.0167355, NaN, NaN, NaN, 0.0347922, "- N/A -   "
9.99, 255.343, 0.0167549, NaN, NaN, NaN, 0.0335714, "- N/A -   "
10, 255.697, 0.0167716, NaN, NaN, NaN, 0.0323506, "- N/A -   "
[...]
33.01, 1212.63, 0.055113, NaN, NaN, NaN, 0.03601294, "- N/A -   "
33.03, 1213.701, 0.0551518, NaN, NaN, NaN, 0.0335714, "- N/A -   "
33.05, 1214.655, 0.0551907, NaN, NaN, NaN, 0.0323506, "- N/A -   "
33.07, 1215.73, 0.055224, NaN, NaN, NaN, 0.03112983, "- N/A -   "
33.09, 1216.56, 0.05526014, NaN, NaN, NaN, 0.03112983, "- N/A -   "
33.11, 1217.52, 0.0552907, NaN, NaN, NaN, 0.03112983, "- N/A -   "
33.13, 1218.11, 0.05532123, NaN, NaN, NaN, 0.0323506, "- N/A -   "
33.15, 1218.95, 0.055349, NaN, NaN, NaN, 0.0347922, "- N/A -   "
33.17, 1219.783, 0.05537954, NaN, NaN, NaN, 0.03601294, "- N/A -   "
33.19, 1220.62, 0.0554129, NaN, NaN, NaN, 0.03601294, "- N/A -   "
33.21, 1221.45, 0.0554462, NaN, NaN, NaN, 0.0372337, "- N/A -   "
33.23, 1222.29, 0.0554795, NaN, NaN, NaN, 0.0372337, "- N/A -   "
33.25, 1223.36, 0.0555128, NaN, NaN, NaN, 0.03601294, "- N/A -   "
33.27, 1224.31, 0.0555489, NaN, NaN, NaN, 0.0347922, "- N/A -   "
33.29, 1225.39, 0.055585, NaN, NaN, NaN, 0.0335714, "- N/A -   "
33.31, 1226.22, 0.0556239, NaN, NaN, NaN, 0.0323506, "- N/A -   "
33.33, 1227.3, 0.05565722, NaN, NaN, NaN, 0.03112983, "- N/A -   "
33.35, 1228.13, 0.05569054, NaN, NaN, NaN, 0.0323506, "- N/A -   "
33.37, 1229.08, 0.05572108, NaN, NaN, NaN, 0.0323506, "- N/A -   "
33.39, 1229.8, 0.05575163, NaN, NaN, NaN, 0.0335714, "- N/A -   "
33.41, 1230.52, 0.0557822, NaN, NaN, NaN, 0.0347922, "- N/A -   "
33.43, 1231.47, 0.0558127, NaN, NaN, NaN, 0.03601294, "- N/A -   "
33.45, 1232.3, 0.0558433, NaN, NaN, NaN, 0.0372337, "- N/A -   "
33.47, 1232.9, 0.05587103, NaN, NaN, NaN, 0.0396753, "- N/A -   "
33.49, 1233.74, 0.0559016, NaN, NaN, NaN, 0.04089605, "- N/A -   "
33.51, 1234.57, 0.05593489, NaN, NaN, NaN, 0.04089605, "- N/A -   "
33.53, 1235.64, 0.05596821, NaN, NaN, NaN, 0.04089605, "- N/A -   "
33.55, 1236.6, 0.0560071, NaN, NaN, NaN, 0.0396753, "- N/A -   "
33.57, 1237.55, 0.0560432, NaN, NaN, NaN, 0.0372337, "- N/A -   "
33.59, 1238.51, 0.0560765, NaN, NaN, NaN, 0.0384545, "- N/A -   "
33.61, 1239.34, 0.05610705, NaN, NaN, NaN, 0.0384545, "- N/A -   "
33.63, 1240.29, 0.0561376, NaN, NaN, NaN, 0.0396753, "- N/A -   "
33.65, 1241.13, 0.0561709, NaN, NaN, NaN, 0.0396753, "- N/A -   "
33.67, 1242.083, 0.056207, NaN, NaN, NaN, 0.0384545, "- N/A -   "
33.69, 1243.16, 0.05624311, NaN, NaN, NaN, 0.0372337, "- N/A -   "
33.71, 1244.11, 0.0562764, NaN, NaN, NaN, 0.0384545, "- N/A -   "
33.73, 1244.83, 0.0563098, NaN, NaN, NaN, 0.0372337, "- N/A -   "
33.75, 1245.899, 0.05634585, NaN, NaN, NaN, 0.03601294, "- N/A -   "
33.77, 1246.85, 0.05638195, NaN, NaN, NaN, 0.0347922, "- N/A -   "
33.79, 1247.81, 0.0564153, NaN, NaN, NaN, 0.0347922, "- N/A -   "
33.81, 1248.642, 0.05644859, NaN, NaN, NaN, 0.0347922, "- N/A -   "
33.83, 1249.6, 0.05648191, NaN, NaN, NaN, 0.0347922, "- N/A -   "
33.85, 1250.43, 0.056518, NaN, NaN, NaN, 0.0335714, "- N/A -   "
33.87, 1251.5, 0.0565541, NaN, NaN, NaN, 0.0323506, "- N/A -   "
33.89, 1252.34, 0.0565874, NaN, NaN, NaN, 0.0323506, "- N/A -   "
33.91, 1253.412, 0.0566235, NaN, NaN, NaN, 0.0323506, "- N/A -   "
33.93, 1254.25, 0.0566541, NaN, NaN, NaN, 0.0323506, "- N/A -   "
33.95, 1255.08, 0.0566846, NaN, NaN, NaN, 0.0335714, "- N/A -   "
33.97, 1255.92, 0.0567179, NaN, NaN, NaN, 0.0335714, "- N/A -   "
33.99, 1256.87, 0.0567513, NaN, NaN, NaN, 0.0335714, "- N/A -   "
34.01, 1257.71, 0.0567846, NaN, NaN, NaN, 0.0347922, "- N/A -   "
34.03, 1258.54, 0.0568151, NaN, NaN, NaN, 0.0347922, "- N/A -   "
34.05, 1259.26, 0.0568457, NaN, NaN, NaN, 0.03601294, "- N/A -   "
34.07, 1260.21, 0.0568818, NaN, NaN, NaN, 0.0347922, "- N/A -   "
34.09, 1261.28, 0.05691786, NaN, NaN, NaN, 0.0335714, "- N/A -   "
34.11, 1262.24, 0.05695396, NaN, NaN, NaN, 0.0323506, "- N/A -   "
34.13, 1263.31, 0.0569873, NaN, NaN, NaN, 0.0323506, "- N/A -   "
34.15, 1263.91, 0.05701782, NaN, NaN, NaN, 0.0347922, "- N/A -   "
34.17, 1264.62, 0.0570456, NaN, NaN, NaN, 0.03601294, "- N/A -   "
34.19, 1265.46, 0.0570761, NaN, NaN, NaN, 0.0372337, "- N/A -   "
34.21, 1266.41, 0.05710668, NaN, NaN, NaN, 0.0384545, "- N/A -   "
34.23, 1267.126, 0.05713723, NaN, NaN, NaN, 0.0396753, "- N/A -   "
34.25, 1267.84, 0.05716777, NaN, NaN, NaN, 0.04089605, "- N/A -   "
34.27, 1268.8, 0.0571983, NaN, NaN, NaN, 0.04211683, "- N/A -   "
34.29, 1269.63, 0.0572289, NaN, NaN, NaN, 0.0433376, "- N/A -   "
34.31, 1270.35, 0.0572622, NaN, NaN, NaN, 0.0433376, "- N/A -   "
34.33, 1271.3, 0.0572927, NaN, NaN, NaN, 0.0445584, "- N/A -   "
34.35, 1272.13, 0.057326, NaN, NaN, NaN, 0.0445584, "- N/A -   "
34.37, 1273.09, 0.0573621, NaN, NaN, NaN, 0.0445584, "- N/A -   "
34.39, 1274.04, 0.0573955, NaN, NaN, NaN, 0.0433376, "- N/A -   "
34.41, 1275.12, 0.05743434, NaN, NaN, NaN, 0.04089605, "- N/A -   "
34.43, 1276.19, 0.057476, NaN, NaN, NaN, 0.0384545, "- N/A -   "
34.45, 1277.38, 0.05751486, NaN, NaN, NaN, 0.03601294, "- N/A -   "
34.47, 1278.34, 0.0575482, NaN, NaN, NaN, 0.0347922, "- N/A -   "
34.49, 1279.29, 0.0575843, NaN, NaN, NaN, 0.0335714, "- N/A -   "
34.51, 1280.12, 0.0576176, NaN, NaN, NaN, 0.0335714, "- N/A -   "
34.53, 1280.84, 0.05764815, NaN, NaN, NaN, 0.0347922, "- N/A -   "
34.55, 1281.794, 0.0576787, NaN, NaN, NaN, 0.03601294, "- N/A -   "
34.57, 1282.75, 0.05771479, NaN, NaN, NaN, 0.0347922, "- N/A -   "
34.59, 1283.58, 0.05774811, NaN, NaN, NaN, 0.0347922, "- N/A -   "
34.61, 1284.54, 0.0577842, NaN, NaN, NaN, 0.0335714, "- N/A -   "
34.63, 1285.61, 0.0578203, NaN, NaN, NaN, 0.0323506, "- N/A -   "
34.65, 1286.56, 0.0578592, NaN, NaN, NaN, 0.0299091, "- N/A -   "
34.67, 1287.64, 0.05789528, NaN, NaN, NaN, 0.0286883, "- N/A -   "
34.69, 1288.472, 0.0579286, NaN, NaN, NaN, 0.0286883, "- N/A -   "
34.71, 1289.43, 0.05796192, NaN, NaN, NaN, 0.0299091, "- N/A -   "
34.73, 1290.26, 0.05798969, NaN, NaN, NaN, 0.03112983, "- N/A -   "
34.75, 1291.1, 0.05802301, NaN, NaN, NaN, 0.03112983, "- N/A -   "
34.77, 1291.93, 0.0580536, NaN, NaN, NaN, 0.0335714, "- N/A -   "
34.79, 1292.77, 0.0580841, NaN, NaN, NaN, 0.0335714, "- N/A -   "
34.81, 1293.72, 0.0581174, NaN, NaN, NaN, 0.0335714, "- N/A -   "
34.83, 1294.43, 0.0581507, NaN, NaN, NaN, 0.0335714, "- N/A -   "
34.85, 1295.27, 0.0581785, NaN, NaN, NaN, 0.03601294, "- N/A -   "
34.87, 1295.87, 0.0582035, NaN, NaN, NaN, 0.0396753, "- N/A -   "
34.89, 1296.58, 0.058234, NaN, NaN, NaN, 0.04089605, "- N/A -   "
34.91, 1297.416, 0.0582646, NaN, NaN, NaN, 0.0433376, "- N/A -   "
34.93, 1298.13, 0.0582924, NaN, NaN, NaN, 0.0445584, "- N/A -   "
34.95, 1298.97, 0.0583257, NaN, NaN, NaN, 0.04577916, "- N/A -   "
34.97, 1299.92, 0.0583562, NaN, NaN, NaN, 0.04577916, "- N/A -   "
34.99, 1300.87, 0.0583923, NaN, NaN, NaN, 0.0445584, "- N/A -   "
35.01, 1301.83, 0.0584312, NaN, NaN, NaN, 0.0433376, "- N/A -   "
35.03, 1303.02, 0.0584701, NaN, NaN, NaN, 0.04089605, "- N/A -   "
35.05, 1303.97, 0.0585062, NaN, NaN, NaN, 0.0396753, "- N/A -   "
35.07, 1305.05, 0.05854226, NaN, NaN, NaN, 0.0384545, "- N/A -   "
35.09, 1306, 0.0585784, NaN, NaN, NaN, 0.0372337, "- N/A -   "
35.11, 1307.19, 0.0586145, NaN, NaN, NaN, 0.0347922, "- N/A -   "
35.13, 1308.03, 0.0586506, NaN, NaN, NaN, 0.0335714, "- N/A -   "
35.15, 1309.1, 0.05868665, NaN, NaN, NaN, 0.0323506, "- N/A -   "
35.17, 1309.94, 0.05872275, NaN, NaN, NaN, 0.0323506, "- N/A -   "
35.19, 1311.01, 0.05875607, NaN, NaN, NaN, 0.03112983, "- N/A -   "
35.21, 1311.85, 0.0587894, NaN, NaN, NaN, 0.03112983, "- N/A -   "
35.23, 1312.56, 0.0588227, NaN, NaN, NaN, 0.03112983, "- N/A -   "
35.25, 1313.63, 0.05886159, NaN, NaN, NaN, 0.0286883, "- N/A -   "
35.27, 1314.71, 0.0588977, NaN, NaN, NaN, 0.0274675, "- N/A -   "
35.29, 1315.66, 0.058931, NaN, NaN, NaN, 0.0274675, "- N/A -   "
35.31, 1316.62, 0.05896433, NaN, NaN, NaN, 0.0286883, "- N/A -   "
35.33, 1317.45, 0.05900043, NaN, NaN, NaN, 0.0286883, "- N/A -   "
35.35, 1318.29, 0.05903097, NaN, NaN, NaN, 0.0286883, "- N/A -   "
35.37, 1319.12, 0.0590615, NaN, NaN, NaN, 0.0299091, "- N/A -   "
35.39, 1319.84, 0.0590948, NaN, NaN, NaN, 0.0299091, "- N/A -   "
35.41, 1320.67, 0.0591254, NaN, NaN, NaN, 0.0323506, "- N/A -   "
35.43, 1321.5, 0.0591531, NaN, NaN, NaN, 0.0335714, "- N/A -   "
35.45, 1322.1, 0.05917814, NaN, NaN, NaN, 0.0372337, "- N/A -   "
35.47, 1322.94, 0.0592087, NaN, NaN, NaN, 0.0384545, "- N/A -   "
35.49, 1323.65, 0.05923645, NaN, NaN, NaN, 0.04089605, "- N/A -   "
35.51, 1324.367, 0.059267, NaN, NaN, NaN, 0.04211683, "- N/A -   "
35.53, 1325.2, 0.05929476, NaN, NaN, NaN, 0.0445584, "- N/A -   "
35.55, 1326.04, 0.0593253, NaN, NaN, NaN, 0.04699994, "- N/A -   "
35.57, 1326.87, 0.05935585, NaN, NaN, NaN, 0.04699994, "- N/A -   "
35.59, 1327.59, 0.0593864, NaN, NaN, NaN, 0.0482207, "- N/A -   "
35.61, 1328.78, 0.0594225, NaN, NaN, NaN, 0.04699994, "- N/A -   "
35.63, 1329.61, 0.05945859, NaN, NaN, NaN, 0.04699994, "- N/A -   "
35.65, 1330.568, 0.05949191, NaN, NaN, NaN, 0.04577916, "- N/A -   "
35.67, 1331.522, 0.059528, NaN, NaN, NaN, 0.04577916, "- N/A -   "
35.69, 1332.48, 0.0595613, NaN, NaN, NaN, 0.0445584, "- N/A -   "
35.71, 1333.67, 0.0595974, NaN, NaN, NaN, 0.0433376, "- N/A -   "
35.73, 1334.5, 0.0596363, NaN, NaN, NaN, 0.04211683, "- N/A -   "
35.75, 1335.7, 0.0596724, NaN, NaN, NaN, 0.0396753, "- N/A -   "
35.77, 1336.53, 0.0597113, NaN, NaN, NaN, 0.0372337, "- N/A -   "
35.79, 1337.72, 0.0597529, NaN, NaN, NaN, 0.0335714, "- N/A -   "
35.81, 1338.92, 0.0597946, NaN, NaN, NaN, 0.0299091, "- N/A -   "
35.83, 1339.99, 0.0598335, NaN, NaN, NaN, 0.0274675, "- N/A -   "
35.85, 1340.82, 0.05986677, NaN, NaN, NaN, 0.0274675, "- N/A -   "
35.87, 1341.66, 0.0598973, NaN, NaN, NaN, 0.0286883, "- N/A -   "
35.89, 1342.49, 0.0599279, NaN, NaN, NaN, 0.0299091, "- N/A -   "
35.91, 1343.21, 0.0599612, NaN, NaN, NaN, 0.03112983, "- N/A -   "
35.93, 1344.16, 0.0599917, NaN, NaN, NaN, 0.0323506, "- N/A -   "
35.95, 1344.88, 0.06002227, NaN, NaN, NaN, 0.0323506, "- N/A -   "
35.97, 1345.713, 0.06005559, NaN, NaN, NaN, 0.0335714, "- N/A -   "
35.99, 1346.67, 0.06008891, NaN, NaN, NaN, 0.0335714, "- N/A -   "
36.01, 1347.5, 0.0601195, NaN, NaN, NaN, 0.0335714, "- N/A -   "
36.03, 1348.46, 0.0601528, NaN, NaN, NaN, 0.0335714, "- N/A -   "
36.05, 1349.17, 0.0601805, NaN, NaN, NaN, 0.03601294, "- N/A -   "
36.07, 1350.13, 0.0602139, NaN, NaN, NaN, 0.03601294, "- N/A -   "
36.09, 1350.96, 0.06024441, NaN, NaN, NaN, 0.0372337, "- N/A -   "
36.11, 1351.68, 0.060275, NaN, NaN, NaN, 0.0384545, "- N/A -   "
36.13, 1352.63, 0.0603055, NaN, NaN, NaN, 0.0396753, "- N/A -   "
36.15, 1353.46, 0.0603388, NaN, NaN, NaN, 0.0396753, "- N/A -   "
36.17, 1354.42, 0.0603721, NaN, NaN, NaN, 0.0396753, "- N/A -   "
36.19, 1355.25, 0.0604055, NaN, NaN, NaN, 0.0396753, "- N/A -   "
36.21, 1356.088, 0.060436, NaN, NaN, NaN, 0.04089605, "- N/A -   "
36.23, 1356.92, 0.06046655, NaN, NaN, NaN, 0.04211683, "- N/A -   "
36.25, 1357.64, 0.0604971, NaN, NaN, NaN, 0.0433376, "- N/A -   "
36.27, 1358.59, 0.06052764, NaN, NaN, NaN, 0.0445584, "- N/A -   "
36.29, 1359.31, 0.06056374, NaN, NaN, NaN, 0.0445584, "- N/A -   "
36.31, 1360.26, 0.06059428, NaN, NaN, NaN, 0.0445584, "- N/A -   "
36.33, 1360.98, 0.0606276, NaN, NaN, NaN, 0.04577916, "- N/A -   "
36.35, 1362.17, 0.06066092, NaN, NaN, NaN, 0.0445584, "- N/A -   "
36.37, 1363, 0.0606998, NaN, NaN, NaN, 0.04211683, "- N/A -   "
36.39, 1364.197, 0.06074145, NaN, NaN, NaN, 0.0396753, "- N/A -   "
36.41, 1365.39, 0.0607803, NaN, NaN, NaN, 0.03601294, "- N/A -   "
36.43, 1366.46, 0.0608192, NaN, NaN, NaN, 0.0335714, "- N/A -   "
36.45, 1367.42, 0.0608553, NaN, NaN, NaN, 0.0323506, "- N/A -   "
36.47, 1368.37, 0.0608914, NaN, NaN, NaN, 0.03112983, "- N/A -   "
36.49, 1369.32, 0.0609247, NaN, NaN, NaN, 0.03112983, "- N/A -   "
36.51, 1370.16, 0.06095526, NaN, NaN, NaN, 0.0323506, "- N/A -   "
36.53, 1370.99, 0.0609914, NaN, NaN, NaN, 0.0323506, "- N/A -   "
36.55, 1371.83, 0.0610219, NaN, NaN, NaN, 0.0323506, "- N/A -   "
36.57, 1372.54, 0.0610524, NaN, NaN, NaN, 0.0335714, "- N/A -   "
36.59, 1373.5, 0.061083, NaN, NaN, NaN, 0.0347922, "- N/A -   "
36.61, 1374.33, 0.0611135, NaN, NaN, NaN, 0.03601294, "- N/A -   "
36.63, 1375.05, 0.0611469, NaN, NaN, NaN, 0.0372337, "- N/A -   "
36.65, 1375.88, 0.0611802, NaN, NaN, NaN, 0.0372337, "- N/A -   "
36.67, 1376.96, 0.0612135, NaN, NaN, NaN, 0.03601294, "- N/A -   "
36.69, 1377.911, 0.0612496, NaN, NaN, NaN, 0.0347922, "- N/A -   "
36.71, 1378.865, 0.0612857, NaN, NaN, NaN, 0.0335714, "- N/A -   "
36.73, 1379.94, 0.06132179, NaN, NaN, NaN, 0.0323506, "- N/A -   "
36.75, 1380.89, 0.06135789, NaN, NaN, NaN, 0.03112983, "- N/A -   "
36.77, 1381.727, 0.06139121, NaN, NaN, NaN, 0.0323506, "- N/A -   "
36.79, 1382.56, 0.0614218, NaN, NaN, NaN, 0.0323506, "- N/A -   "
36.81, 1383.28, 0.06144952, NaN, NaN, NaN, 0.0347922, "- N/A -   "
36.83, 1383.99, 0.06147729, NaN, NaN, NaN, 0.0372337, "- N/A -   "
36.85, 1384.83, 0.0615078, NaN, NaN, NaN, 0.0384545, "- N/A -   "
36.87, 1385.66, 0.0615384, NaN, NaN, NaN, 0.0396753, "- N/A -   "
36.89, 1386.26, 0.0615661, NaN, NaN, NaN, 0.04211683, "- N/A -   "
36.91, 1387.09, 0.06159669, NaN, NaN, NaN, 0.0433376, "- N/A -   "
36.93, 1387.93, 0.0616272, NaN, NaN, NaN, 0.0445584, "- N/A -   "
36.95, 1388.88, 0.0616606, NaN, NaN, NaN, 0.0445584, "- N/A -   "
36.97, 1389.72, 0.0616967, NaN, NaN, NaN, 0.0445584, "- N/A -   "
36.99, 1390.671, 0.06172997, NaN, NaN, NaN, 0.0445584, "- N/A -   "
37.01, 1391.625, 0.0617633, NaN, NaN, NaN, 0.0433376, "- N/A -   "
37.03, 1392.46, 0.0617966, NaN, NaN, NaN, 0.0433376, "- N/A -   "
37.05, 1393.41, 0.06183271, NaN, NaN, NaN, 0.04211683, "- N/A -   "
37.07, 1394.37, 0.06186881, NaN, NaN, NaN, 0.04211683, "- N/A -   "
37.09, 1395.44, 0.0619049, NaN, NaN, NaN, 0.0396753, "- N/A -   "
37.11, 1396.4, 0.0619382, NaN, NaN, NaN, 0.0396753, "- N/A -   "
37.13, 1397.349, 0.0619743, NaN, NaN, NaN, 0.0384545, "- N/A -   "
37.15, 1398.42, 0.0620104, NaN, NaN, NaN, 0.0372337, "- N/A -   "
37.17, 1399.26, 0.0620493, NaN, NaN, NaN, 0.03601294, "- N/A -   "
37.19, 1400.33, 0.06208262, NaN, NaN, NaN, 0.0347922, "- N/A -   "
37.21, 1401.17, 0.0621187, NaN, NaN, NaN, 0.0335714, "- N/A -   "
37.23, 1402.12, 0.062152, NaN, NaN, NaN, 0.0335714, "- N/A -   "
37.25, 1402.954, 0.0621881, NaN, NaN, NaN, 0.0323506, "- N/A -   "
37.27, 1403.908, 0.0622215, NaN, NaN, NaN, 0.0323506, "- N/A -   "
37.29, 1404.98, 0.0622576, NaN, NaN, NaN, 0.03112983, "- N/A -   "
37.31, 1405.7, 0.0622909, NaN, NaN, NaN, 0.0323506, "- N/A -   "
37.33, 1406.53, 0.0623186, NaN, NaN, NaN, 0.0335714, "- N/A -   "
37.35, 1407.49, 0.062352, NaN, NaN, NaN, 0.0335714, "- N/A -   "
37.37, 1408.32, 0.0623853, NaN, NaN, NaN, 0.0335714, "- N/A -   "
37.39, 1409.155, 0.06242138, NaN, NaN, NaN, 0.0335714, "- N/A -   "
37.41, 1410.109, 0.0624547, NaN, NaN, NaN, 0.0323506, "- N/A -   "
37.43, 1411.06, 0.062488, NaN, NaN, NaN, 0.0323506, "- N/A -   "
37.45, 1411.9, 0.0625241, NaN, NaN, NaN, 0.0323506, "- N/A -   "
37.47, 1412.73, 0.06255467, NaN, NaN, NaN, 0.0323506, "- N/A -   "
37.49, 1413.69, 0.06258799, NaN, NaN, NaN, 0.0323506, "- N/A -   "
37.51, 1414.52, 0.06262131, NaN, NaN, NaN, 0.0323506, "- N/A -   "
37.53, 1415.24, 0.06265185, NaN, NaN, NaN, 0.0347922, "- N/A -   "
37.55, 1416.07, 0.0626796, NaN, NaN, NaN, 0.03601294, "- N/A -   "
37.57, 1416.79, 0.0627102, NaN, NaN, NaN, 0.0372337, "- N/A -   "
37.59, 1417.622, 0.0627379, NaN, NaN, NaN, 0.0396753, "- N/A -   "
37.61, 1418.46, 0.06277125, NaN, NaN, NaN, 0.0396753, "- N/A -   "
37.63, 1419.29, 0.06280458, NaN, NaN, NaN, 0.04089605, "- N/A -   "
37.65, 1420.13, 0.06283512, NaN, NaN, NaN, 0.04089605, "- N/A -   "
37.67, 1420.96, 0.06286566, NaN, NaN, NaN, 0.04211683, "- N/A -   "
37.69, 1421.8, 0.0628962, NaN, NaN, NaN, 0.0433376, "- N/A -   "
37.71, 1422.63, 0.06292953, NaN, NaN, NaN, 0.0433376, "- N/A -   "
37.73, 1423.58, 0.06296563, NaN, NaN, NaN, 0.0433376, "- N/A -   "
37.75, 1424.54, 0.06299895, NaN, NaN, NaN, 0.04211683, "- N/A -   "
37.77, 1425.49, 0.06303227, NaN, NaN, NaN, 0.04211683, "- N/A -   "
37.79, 1426.45, 0.06306559, NaN, NaN, NaN, 0.04211683, "- N/A -   "
37.81, 1427.4, 0.06310169, NaN, NaN, NaN, 0.04089605, "- N/A -   "
37.83, 1428.47, 0.06314056, NaN, NaN, NaN, 0.0384545, "- N/A -   "
37.85, 1429.43, 0.06317944, NaN, NaN, NaN, 0.03601294, "- N/A -   "
37.87, 1430.62, 0.06321831, NaN, NaN, NaN, 0.0335714, "- N/A -   "
37.89, 1431.46, 0.06325441, NaN, NaN, NaN, 0.0323506, "- N/A -   "
37.91, 1432.41, 0.06329051, NaN, NaN, NaN, 0.03112983, "- N/A -   "
37.93, 1433.36, 0.0633238, NaN, NaN, NaN, 0.03112983, "- N/A -   "
37.95, 1434.32, 0.06335992, NaN, NaN, NaN, 0.0299091, "- N/A -   "
37.97, 1435.15, 0.06339325, NaN, NaN, NaN, 0.03112983, "- N/A -   "
37.99, 1435.87, 0.06342379, NaN, NaN, NaN, 0.03112983, "- N/A -   "
38.01, 1436.7, 0.06345711, NaN, NaN, NaN, 0.03112983, "- N/A -   "
38.03, 1437.66, 0.0634904, NaN, NaN, NaN, 0.03112983, "- N/A -   "
38.05, 1438.491, 0.0635238, NaN, NaN, NaN, 0.03112983, "- N/A -   "
38.07, 1439.33, 0.06355707, NaN, NaN, NaN, 0.03112983, "- N/A -   "
38.09, 1440.399, 0.06359595, NaN, NaN, NaN, 0.0299091, "- N/A -   "
38.11, 1441.353, 0.06363205, NaN, NaN, NaN, 0.0274675, "- N/A -   "
38.13, 1442.19, 0.06366537, NaN, NaN, NaN, 0.0286883, "- N/A -   "
38.15, 1443.02, 0.0636931, NaN, NaN, NaN, 0.0299091, "- N/A -   "
38.17, 1443.74, 0.06372368, NaN, NaN, NaN, 0.03112983, "- N/A -   "
38.19, 1444.57, 0.06375422, NaN, NaN, NaN, 0.0323506, "- N/A -   "
38.21, 1445.29, 0.06378754, NaN, NaN, NaN, 0.0323506, "- N/A -   "
38.23, 1446.12, 0.06381809, NaN, NaN, NaN, 0.0347922, "- N/A -   "
38.25, 1446.96, 0.06384586, NaN, NaN, NaN, 0.0372337, "- N/A -   "
38.27, 1447.55, 0.06387363, NaN, NaN, NaN, 0.0384545, "- N/A -   "
38.29, 1448.27, 0.0639014, NaN, NaN, NaN, 0.04089605, "- N/A -   "
38.31, 1448.99, 0.0639292, NaN, NaN, NaN, 0.0433376, "- N/A -   "
38.33, 1449.82, 0.06395693, NaN, NaN, NaN, 0.04577916, "- N/A -   "
38.35, 1450.54, 0.06398747, NaN, NaN, NaN, 0.0482207, "- N/A -   "
38.37, 1451.37, 0.06401801, NaN, NaN, NaN, 0.0494415, "- N/A -   "
38.39, 1452.21, 0.06404856, NaN, NaN, NaN, 0.0494415, "- N/A -   "
38.41, 1453.04, 0.06408466, NaN, NaN, NaN, 0.0494415, "- N/A -   "
38.43, 1454.113, 0.0641208, NaN, NaN, NaN, 0.04699994, "- N/A -   "
38.45, 1455.07, 0.06415963, NaN, NaN, NaN, 0.0445584, "- N/A -   "
38.47, 1456.26, 0.0641985, NaN, NaN, NaN, 0.0433376, "- N/A -   "
38.49, 1457.33, 0.06423738, NaN, NaN, NaN, 0.0396753, "- N/A -   "
38.51, 1458.41, 0.0642763, NaN, NaN, NaN, 0.0372337, "- N/A -   "
38.53, 1459.36, 0.06431513, NaN, NaN, NaN, 0.03601294, "- N/A -   "
38.55, 1460.31, 0.064354, NaN, NaN, NaN, 0.0323506, "- N/A -   "
38.57, 1461.27, 0.0643901, NaN, NaN, NaN, 0.0323506, "- N/A -   "
38.59, 1462.22, 0.06442343, NaN, NaN, NaN, 0.0323506, "- N/A -   "
38.61, 1463.18, 0.0644567, NaN, NaN, NaN, 0.03112983, "- N/A -   "
38.63, 1464.25, 0.06449562, NaN, NaN, NaN, 0.0299091, "- N/A -   "
38.65, 1465.2, 0.06453171, NaN, NaN, NaN, 0.0274675, "- N/A -   "
38.67, 1466.04, 0.06456504, NaN, NaN, NaN, 0.0274675, "- N/A -   "
38.69, 1466.87, 0.06460114, NaN, NaN, NaN, 0.0274675, "- N/A -   "
38.71, 1467.827, 0.06463168, NaN, NaN, NaN, 0.0274675, "- N/A -   "
38.73, 1468.66, 0.0646622, NaN, NaN, NaN, 0.0286883, "- N/A -   "
38.75, 1469.5, 0.0646928, NaN, NaN, NaN, 0.0299091, "- N/A -   "
38.77, 1470.45, 0.06472609, NaN, NaN, NaN, 0.0299091, "- N/A -   "
38.79, 1471.29, 0.06476219, NaN, NaN, NaN, 0.0286883, "- N/A -   "
38.81, 1472.12, 0.06479273, NaN, NaN, NaN, 0.0299091, "- N/A -   "
38.83, 1472.95, 0.06482328, NaN, NaN, NaN, 0.03112983, "- N/A -   "
38.85, 1473.67, 0.064851, NaN, NaN, NaN, 0.0335714, "- N/A -   "
38.87, 1474.39, 0.06487881, NaN, NaN, NaN, 0.03601294, "- N/A -   "
38.89, 1475.1, 0.0649066, NaN, NaN, NaN, 0.0384545, "- N/A -   "
38.91, 1475.82, 0.06493712, NaN, NaN, NaN, 0.04089605, "- N/A -   "
38.93, 1476.53, 0.06496489, NaN, NaN, NaN, 0.0433376, "- N/A -   "
38.95, 1477.25, 0.06499266, NaN, NaN, NaN, 0.0445584, "- N/A -   "
38.97, 1478.2, 0.06502598, NaN, NaN, NaN, 0.0445584, "- N/A -   "
38.99, 1479.04, 0.0650593, NaN, NaN, NaN, 0.04577916, "- N/A -   "