File: 2_Tensile_Data/Hamel_ForceTest_Bolt4_Test8.csv
Time, Load (lb), Position (in), AxialStrain (in), TransverseStrain (in), Auxiliary (), Control Out (V), Stress (psi)
0.0, 7.666586, 0.0, NaN, NaN, NaN, -0.007935055, "- N/A -   "
0.01, 7.666586, 0.0, NaN, NaN, NaN, -6.103888E-4, "- N/A -   "
0.02, 7.666586, 0.0, NaN, NaN, NaN, 0.006714277, "- N/A -   "
0.03, 7.666586, 0.0, NaN, NaN, NaN, 0.0140389, "- N/A -   "
0.04, 7.666586, 2.776752E-6, NaN, NaN, NaN, 0.0213636, "- N/A -   "
0.05, 7.90248, 5.553504E-6, NaN, NaN, NaN, 0.0396753, "- N/A -   "
0.06, 7.90248, 1.66605e-05, NaN, NaN, NaN, 0.0543246, "- N/A -   "
0.07, 8.138375, 3.60978e-05, NaN, NaN, NaN, 0.0653116, "- N/A -   "
0.08, 8.492218, 5.5535e-05, NaN, NaN, NaN, 0.0762986, "- N/A -   "
0.09, 8.728113, 8.33026e-05, NaN, NaN, NaN, 0.084844, "- N/A -   "
0.1, 9.081955, 0.00011107, NaN, NaN, NaN, 0.08362327, "- N/A -   "
0.11, 9.553744, 0.000141614, NaN, NaN, NaN, 0.07874016, "- N/A -   "
0.12, 9.78964, 0.000166605, NaN, NaN, NaN, 0.0750778, "- N/A -   "
0.13, 10.1435, 0.000191596, NaN, NaN, NaN, 0.0701947, "- N/A -   "
0.14, 10.26143, 2.138099E-4, NaN, NaN, NaN, 0.06775316, "- N/A -   "
0.15, 10.4973, 0.000233247, NaN, NaN, NaN, 0.06653238, "- N/A -   "
0.16, 10.73322, 2.526844E-4, NaN, NaN, NaN, 0.0653116, "- N/A -   "
0.17, 10.8512, 0.000269345, NaN, NaN, NaN, 0.0653116, "- N/A -   "
0.18, 11.205, 0.000288782, NaN, NaN, NaN, 0.0640908, "- N/A -   "
0.19, 11.4409, 0.000308219, NaN, NaN, NaN, 0.06287005, "- N/A -   "
0.2, 11.5589, 0.000327657, NaN, NaN, NaN, 0.06164927, "- N/A -   "
0.21, 11.7947, 0.000344317, NaN, NaN, NaN, 0.06164927, "- N/A -   "
0.22, 11.9127, 0.000360978, NaN, NaN, NaN, 0.06164927, "- N/A -   "
0.23, 12.14859, 3.80415E-4, NaN, NaN, NaN, 0.0604285, "- N/A -   "
0.24, 12.2665, 0.000399852, NaN, NaN, NaN, 0.0592077, "- N/A -   "
0.25, 12.5024, 0.000416513, NaN, NaN, NaN, 0.0592077, "- N/A -   "
0.26, 12.6204, 0.00043595, NaN, NaN, NaN, 0.0579869, "- N/A -   "
0.27, 12.9742, 4.553873E-4, NaN, NaN, NaN, 0.05676616, "- N/A -   "
0.28, 13.09217, 0.000474825, NaN, NaN, NaN, 0.0555454, "- N/A -   "
0.29, 13.3281, 4.942618E-4, NaN, NaN, NaN, 0.0543246, "- N/A -   "
0.3, 13.446, 5.136991E-4, NaN, NaN, NaN, 0.0531038, "- N/A -   "
0.31, 13.7999, 0.000533136, NaN, NaN, NaN, 0.05188305, "- N/A -   "
0.32, 13.9178, 5.553504E-4, NaN, NaN, NaN, 0.0494415, "- N/A -   "
0.33, 14.1537, 5.747876E-4, NaN, NaN, NaN, 0.0482207, "- N/A -   "
0.34, 14.3896, 5.942249E-4, NaN, NaN, NaN, 0.04699994, "- N/A -   "
0.35, 14.5075, 6.136621E-4, NaN, NaN, NaN, 0.04577916, "- N/A -   "
0.36, 14.7434, 6.330994E-4, NaN, NaN, NaN, 0.0445584, "- N/A -   "
0.37, 14.9793, 6.525367E-4, NaN, NaN, NaN, 0.0433376, "- N/A -   "
0.38, 15.0973, 6.747507E-4, NaN, NaN, NaN, 0.04089605, "- N/A -   "
0.39, 15.3332, 0.000694188, NaN, NaN, NaN, 0.0396753, "- N/A -   "
0.4, 15.5691, 7.136252E-4, NaN, NaN, NaN, 0.0384545, "- N/A -   "
0.41, 15.805, 0.000733062, NaN, NaN, NaN, 0.0372337, "- N/A -   "
0.42, 15.9229, 7.49723E-4, NaN, NaN, NaN, 0.0372337, "- N/A -   "
0.43, 16.0409, 7.663835E-4, NaN, NaN, NaN, 0.0372337, "- N/A -   "
0.44, 16.27675, 0.000783044, NaN, NaN, NaN, 0.0372337, "- N/A -   "
0.45, 16.3947, 7.997045E-4, NaN, NaN, NaN, 0.0372337, "- N/A -   "
0.46, 16.6306, 8.191418E-4, NaN, NaN, NaN, 0.03601294, "- N/A -   "
0.47, 16.86649, 8.358023E-4, NaN, NaN, NaN, 0.03601294, "- N/A -   "
0.48, 16.9844, 8.524628E-4, NaN, NaN, NaN, 0.03601294, "- N/A -   "
0.49, 17.2203, 0.0008719, NaN, NaN, NaN, 0.0347922, "- N/A -   "
0.499, 17.3383, 0.000891337, NaN, NaN, NaN, 0.0335714, "- N/A -   "
0.51, 17.5742, 9.107746E-4, NaN, NaN, NaN, 0.0323506, "- N/A -   "
0.52, 17.8101, 0.000930212, NaN, NaN, NaN, 0.03112983, "- N/A -   "
0.53, 18.046, 0.000949649, NaN, NaN, NaN, 0.0299091, "- N/A -   "
0.54, 18.16391, 9.663096E-4, NaN, NaN, NaN, 0.0299091, "- N/A -   "
0.55, 18.2819, 9.829701E-4, NaN, NaN, NaN, 0.0299091, "- N/A -   "
0.56, 18.5178, 0.00100241, NaN, NaN, NaN, 0.0299091, "- N/A -   "
0.57, 18.6357, 0.001019068, NaN, NaN, NaN, 0.0286883, "- N/A -   "
0.58, 18.8716, 0.00103573, NaN, NaN, NaN, 0.0299091, "- N/A -   "
0.59, 18.9895, 0.00104961, NaN, NaN, NaN, 0.03112983, "- N/A -   "
0.6, 19.2254, 0.00106627, NaN, NaN, NaN, 0.03112983, "- N/A -   "
0.61, 19.3434, 0.00108016, NaN, NaN, NaN, 0.03112983, "- N/A -   "
0.62, 19.4613, 0.00109404, NaN, NaN, NaN, 0.0323506, "- N/A -   "
0.63, 19.6972, 0.0011107, NaN, NaN, NaN, 0.0323506, "- N/A -   "
0.64, 19.8152, 0.00112736, NaN, NaN, NaN, 0.0323506, "- N/A -   "
0.65, 20.05107, 0.00114402, NaN, NaN, NaN, 0.0323506, "- N/A -   "
0.66, 20.05107, 0.00115791, NaN, NaN, NaN, 0.0335714, "- N/A -   "
0.67, 20.169, 0.00117179, NaN, NaN, NaN, 0.0347922, "- N/A -   "
0.68, 20.4049, 0.00118845, NaN, NaN, NaN, 0.03601294, "- N/A -   "
0.69, 20.6408, 0.00120233, NaN, NaN, NaN, 0.03601294, "- N/A -   "
0.7, 20.7588, 0.001218994, NaN, NaN, NaN, 0.03601294, "- N/A -   "
0.71, 20.99465, 0.00123565, NaN, NaN, NaN, 0.03601294, "- N/A -   "
0.72, 21.1126, 0.00124954, NaN, NaN, NaN, 0.0372337, "- N/A -   "
0.73, 21.2305, 0.00126342, NaN, NaN, NaN, 0.0384545, "- N/A -   "
0.74, 21.3485, 0.00127731, NaN, NaN, NaN, 0.0396753, "- N/A -   "
0.75, 21.5844, 0.00129397, NaN, NaN, NaN, 0.0396753, "- N/A -   "
0.76, 21.5844, 0.00130785, NaN, NaN, NaN, 0.04089605, "- N/A -   "
0.77, 21.8203, 0.00132173, NaN, NaN, NaN, 0.04211683, "- N/A -   "
0.78, 21.93823, 0.00133839, NaN, NaN, NaN, 0.04211683, "- N/A -   "
0.79, 22.1741, 0.00135228, NaN, NaN, NaN, 0.0433376, "- N/A -   "
0.8, 22.29207, 0.00136616, NaN, NaN, NaN, 0.0445584, "- N/A -   "
0.81, 22.41, 0.00138282, NaN, NaN, NaN, 0.0445584, "- N/A -   "
0.82, 22.6459, 0.001399483, NaN, NaN, NaN, 0.0445584, "- N/A -   "
0.83, 22.88181, 0.00141614, NaN, NaN, NaN, 0.0445584, "- N/A -   "
0.84, 22.9998, 0.0014328, NaN, NaN, NaN, 0.0445584, "- N/A -   "
0.85, 23.1177, 0.00144669, NaN, NaN, NaN, 0.04577916, "- N/A -   "
0.86, 23.4715, 0.00146612, NaN, NaN, NaN, 0.0445584, "- N/A -   "
0.87, 23.5895, 0.00148279, NaN, NaN, NaN, 0.0445584, "- N/A -   "
0.88, 23.82539, 0.001499446, NaN, NaN, NaN, 0.0445584, "- N/A -   "
0.89, 24.0613, 0.00151888, NaN, NaN, NaN, 0.0433376, "- N/A -   "
0.9, 24.1792, 0.001532767, NaN, NaN, NaN, 0.0445584, "- N/A -   "
0.91, 24.29718, 0.00154943, NaN, NaN, NaN, 0.0445584, "- N/A -   "
0.92, 24.65102, 0.00156331, NaN, NaN, NaN, 0.04577916, "- N/A -   "
0.93, 24.65102, 0.00157997, NaN, NaN, NaN, 0.04577916, "- N/A -   "
0.94, 24.8869, 0.00159663, NaN, NaN, NaN, 0.04577916, "- N/A -   "
0.95, 25.2408, 0.00161607, NaN, NaN, NaN, 0.0445584, "- N/A -   "
0.96, 25.3587, 0.00163273, NaN, NaN, NaN, 0.0445584, "- N/A -   "
0.97, 25.5946, 0.00165217, NaN, NaN, NaN, 0.0433376, "- N/A -   "
0.98, 25.8305, 0.0016716, NaN, NaN, NaN, 0.04211683, "- N/A -   "
0.99, 25.9484, 0.00168827, NaN, NaN, NaN, 0.04211683, "- N/A -   "
1, 26.3023, 0.0017077, NaN, NaN, NaN, 0.04089605, "- N/A -   "
1.009, 26.5382, 0.00172436, NaN, NaN, NaN, 0.04089605, "- N/A -   "
1.019, 26.6561, 0.0017438, NaN, NaN, NaN, 0.0396753, "- N/A -   "
1.03, 26.892, 0.00176601, NaN, NaN, NaN, 0.0372337, "- N/A -   "
1.04, 27.1279, 0.00178267, NaN, NaN, NaN, 0.0372337, "- N/A -   "
1.05, 27.3638, 0.001802112, NaN, NaN, NaN, 0.03601294, "- N/A -   "
1.06, 27.4818, 0.00182155, NaN, NaN, NaN, 0.0347922, "- N/A -   "
1.07, 27.7177, 0.00184376, NaN, NaN, NaN, 0.0335714, "- N/A -   "
1.08, 28.0715, 0.00186042, NaN, NaN, NaN, 0.0323506, "- N/A -   "
1.09, 28.3074, 0.00188264, NaN, NaN, NaN, 0.0299091, "- N/A -   "
1.1, 28.54329, 0.001902075, NaN, NaN, NaN, 0.0286883, "- N/A -   "
1.11, 28.7792, 0.00191874, NaN, NaN, NaN, 0.0286883, "- N/A -   "
1.12, 29.133, 0.00193817, NaN, NaN, NaN, 0.0274675, "- N/A -   "
1.13, 29.251, 0.00195483, NaN, NaN, NaN, 0.0274675, "- N/A -   "
1.14, 29.4869, 0.00197149, NaN, NaN, NaN, 0.0274675, "- N/A -   "
1.15, 29.7228, 0.00198815, NaN, NaN, NaN, 0.0274675, "- N/A -   "
1.16, 29.9587, 0.00200481, NaN, NaN, NaN, 0.0274675, "- N/A -   "
1.17, 30.0766, 0.00202148, NaN, NaN, NaN, 0.0274675, "- N/A -   "
1.18, 30.3125, 0.002038136, NaN, NaN, NaN, 0.0274675, "- N/A -   "
1.19, 30.5484, 0.0020548, NaN, NaN, NaN, 0.0274675, "- N/A -   "
1.2, 30.6663, 0.00206868, NaN, NaN, NaN, 0.0286883, "- N/A -   "
1.21, 30.78429, 0.00208534, NaN, NaN, NaN, 0.0286883, "- N/A -   "
1.22, 31.0202, 0.002102001, NaN, NaN, NaN, 0.0286883, "- N/A -   "
1.23, 31.2561, 0.00211588, NaN, NaN, NaN, 0.0299091, "- N/A -   "
1.24, 31.492, 0.00213255, NaN, NaN, NaN, 0.03112983, "- N/A -   "
1.25, 31.6099, 0.00214643, NaN, NaN, NaN, 0.03112983, "- N/A -   "
1.26, 31.8458, 0.00216031, NaN, NaN, NaN, 0.0323506, "- N/A -   "
1.27, 32.08171, 0.00217697, NaN, NaN, NaN, 0.0323506, "- N/A -   "
1.28, 32.3176, 0.002193634, NaN, NaN, NaN, 0.0323506, "- N/A -   "
1.29, 32.4356, 0.00220752, NaN, NaN, NaN, 0.0335714, "- N/A -   "
1.3, 32.67145, 0.00222418, NaN, NaN, NaN, 0.0335714, "- N/A -   "
1.31, 32.9073, 0.00224084, NaN, NaN, NaN, 0.0335714, "- N/A -   "
1.32, 33.02529, 0.00225472, NaN, NaN, NaN, 0.0347922, "- N/A -   "
1.33, 33.2612, 0.002271383, NaN, NaN, NaN, 0.0347922, "- N/A -   "
1.34, 33.3791, 0.00228804, NaN, NaN, NaN, 0.0347922, "- N/A -   "
1.35, 33.61503, 0.002304704, NaN, NaN, NaN, 0.0347922, "- N/A -   "
1.36, 33.9689, 0.00231859, NaN, NaN, NaN, 0.03601294, "- N/A -   "
1.37, 34.2048, 0.002338025, NaN, NaN, NaN, 0.0347922, "- N/A -   "
1.38, 34.3227, 0.00235469, NaN, NaN, NaN, 0.0347922, "- N/A -   "
1.39, 34.55861, 0.002371346, NaN, NaN, NaN, 0.0347922, "- N/A -   "
1.4, 34.7945, 0.00238801, NaN, NaN, NaN, 0.0347922, "- N/A -   "
1.41, 34.9125, 0.002404667, NaN, NaN, NaN, 0.0347922, "- N/A -   "
1.42, 35.1483, 0.00242133, NaN, NaN, NaN, 0.0347922, "- N/A -   "
1.43, 35.3842, 0.00243521, NaN, NaN, NaN, 0.03601294, "- N/A -   "
1.44, 35.6201, 0.002451872, NaN, NaN, NaN, 0.03601294, "- N/A -   "
1.45, 35.7381, 0.00246853, NaN, NaN, NaN, 0.03601294, "- N/A -   "
1.46, 35.97398, 0.002482416, NaN, NaN, NaN, 0.0372337, "- N/A -   "
1.47, 36.2099, 0.0024963, NaN, NaN, NaN, 0.0384545, "- N/A -   "
1.48, 36.32782, 0.00251018, NaN, NaN, NaN, 0.0396753, "- N/A -   "
1.49, 36.44577, 0.00252684, NaN, NaN, NaN, 0.0396753, "- N/A -   "
1.5, 36.6817, 0.002540728, NaN, NaN, NaN, 0.04089605, "- N/A -   "
1.51, 36.9176, 0.00255461, NaN, NaN, NaN, 0.04211683, "- N/A -   "
1.52, 37.0355, 0.00257127, NaN, NaN, NaN, 0.04211683, "- N/A -   "
1.53, 37.2714, 0.00258516, NaN, NaN, NaN, 0.0433376, "- N/A -   "
1.54, 37.5073, 0.00260182, NaN, NaN, NaN, 0.0433376, "- N/A -   "
1.55, 37.74319, 0.00261848, NaN, NaN, NaN, 0.0433376, "- N/A -   "
1.56, 37.8611, 0.00263514, NaN, NaN, NaN, 0.0433376, "- N/A -   "
1.57, 37.9791, 0.00264902, NaN, NaN, NaN, 0.0445584, "- N/A -   "
1.58, 38.3329, 0.00266568, NaN, NaN, NaN, 0.0445584, "- N/A -   "
1.59, 38.4509, 0.00267957, NaN, NaN, NaN, 0.04577916, "- N/A -   "
1.6, 38.68677, 0.00269623, NaN, NaN, NaN, 0.04577916, "- N/A -   "
1.61, 38.9227, 0.00271289, NaN, NaN, NaN, 0.04577916, "- N/A -   "
1.62, 39.15856, 0.00272955, NaN, NaN, NaN, 0.04577916, "- N/A -   "
1.63, 39.2765, 0.00274898, NaN, NaN, NaN, 0.04577916, "- N/A -   "
1.64, 39.6304, 0.00276564, NaN, NaN, NaN, 0.0445584, "- N/A -   "
1.65, 39.8662, 0.00278231, NaN, NaN, NaN, 0.0445584, "- N/A -   "
1.66, 40.10214, 0.00280452, NaN, NaN, NaN, 0.0433376, "- N/A -   "
1.67, 40.33803, 0.00282118, NaN, NaN, NaN, 0.04211683, "- N/A -   "
1.68, 40.69188, 0.00284062, NaN, NaN, NaN, 0.04089605, "- N/A -   "
1.69, 40.9278, 0.00286005, NaN, NaN, NaN, 0.0396753, "- N/A -   "
1.7, 41.04572, 0.00287671, NaN, NaN, NaN, 0.0396753, "- N/A -   "
1.71, 41.39956, 0.00289615, NaN, NaN, NaN, 0.0384545, "- N/A -   "
1.72, 41.6355, 0.00291559, NaN, NaN, NaN, 0.0372337, "- N/A -   "
1.73, 41.8714, 0.00293503, NaN, NaN, NaN, 0.0372337, "- N/A -   "
1.74, 42.1072, 0.002954464, NaN, NaN, NaN, 0.03601294, "- N/A -   "
1.75, 42.3431, 0.00297112, NaN, NaN, NaN, 0.0347922, "- N/A -   "
1.76, 42.579, 0.002987785, NaN, NaN, NaN, 0.0347922, "- N/A -   "
1.77, 42.8149, 0.00300722, NaN, NaN, NaN, 0.0335714, "- N/A -   "
1.78, 43.0508, 0.00302666, NaN, NaN, NaN, 0.0323506, "- N/A -   "
1.79, 43.1688, 0.00304332, NaN, NaN, NaN, 0.0323506, "- N/A -   "
1.8, 43.40467, 0.00305998, NaN, NaN, NaN, 0.0323506, "- N/A -   "
1.81, 43.6406, 0.00307664, NaN, NaN, NaN, 0.0323506, "- N/A -   "
1.82, 43.87646, 0.00309052, NaN, NaN, NaN, 0.0335714, "- N/A -   "
1.83, 43.9944, 0.00310719, NaN, NaN, NaN, 0.0335714, "- N/A -   "
1.84, 44.2303, 0.003121069, NaN, NaN, NaN, 0.0347922, "- N/A -   "
1.85, 44.34825, 0.00313773, NaN, NaN, NaN, 0.0347922, "- N/A -   "
1.86, 44.58414, 0.00315439, NaN, NaN, NaN, 0.0347922, "- N/A -   "
1.87, 44.70209, 0.003168274, NaN, NaN, NaN, 0.03601294, "- N/A -   "
1.88, 45.05593, 0.00318493, NaN, NaN, NaN, 0.03601294, "- N/A -   "
1.89, 45.17388, 0.003201595, NaN, NaN, NaN, 0.03601294, "- N/A -   "
1.9, 45.40978, 0.00321826, NaN, NaN, NaN, 0.03601294, "- N/A -   "
1.91, 45.6457, 0.003234916, NaN, NaN, NaN, 0.03601294, "- N/A -   "
1.92, 45.76362, 0.003254353, NaN, NaN, NaN, 0.0347922, "- N/A -   "
1.93, 45.9995, 0.00327101, NaN, NaN, NaN, 0.0347922, "- N/A -   "
1.94, 46.3534, 0.00329045, NaN, NaN, NaN, 0.0335714, "- N/A -   "
1.95, 46.5893, 0.00330711, NaN, NaN, NaN, 0.0335714, "- N/A -   "
1.96, 46.8251, 0.003323772, NaN, NaN, NaN, 0.0335714, "- N/A -   "
1.97, 46.9431, 0.00334321, NaN, NaN, NaN, 0.0323506, "- N/A -   "
1.98, 47.179, 0.00335987, NaN, NaN, NaN, 0.0323506, "- N/A -   "
1.99, 47.4149, 0.00337653, NaN, NaN, NaN, 0.0323506, "- N/A -   "
2, 47.65078, 0.00339597, NaN, NaN, NaN, 0.03112983, "- N/A -   "
2.01, 47.7687, 0.003409851, NaN, NaN, NaN, 0.0323506, "- N/A -   "
2.02, 48.00462, 0.00342651, NaN, NaN, NaN, 0.0323506, "- N/A -   "
2.03, 48.12257, 0.0034404, NaN, NaN, NaN, 0.0335714, "- N/A -   "
2.04, 48.3585, 0.00345983, NaN, NaN, NaN, 0.0335714, "- N/A -   "
2.05, 48.47641, 0.00347372, NaN, NaN, NaN, 0.0335714, "- N/A -   "
2.06, 48.7123, 0.0034876, NaN, NaN, NaN, 0.0347922, "- N/A -   "
2.07, 48.83025, 0.00350426, NaN, NaN, NaN, 0.0347922, "- N/A -   "
2.08, 49.0661, 0.00351814, NaN, NaN, NaN, 0.03601294, "- N/A -   "
2.09, 49.30204, 0.00353481, NaN, NaN, NaN, 0.03601294, "- N/A -   "
2.1, 49.41999, 0.00354869, NaN, NaN, NaN, 0.0372337, "- N/A -   "
2.11, 49.6559, 0.00356535, NaN, NaN, NaN, 0.0372337, "- N/A -   "
2.12, 49.7738, 0.00358201, NaN, NaN, NaN, 0.0372337, "- N/A -   "
2.13, 50.0097, 0.00359589, NaN, NaN, NaN, 0.0384545, "- N/A -   "
2.14, 50.2456, 0.00361255, NaN, NaN, NaN, 0.0384545, "- N/A -   "
2.15, 50.3636, 0.00362644, NaN, NaN, NaN, 0.0396753, "- N/A -   "
2.16, 50.5995, 0.0036431, NaN, NaN, NaN, 0.0396753, "- N/A -   "
2.17, 50.7174, 0.00365698, NaN, NaN, NaN, 0.04089605, "- N/A -   "
2.18, 50.9533, 0.00367364, NaN, NaN, NaN, 0.04089605, "- N/A -   "
2.19, 51.0713, 0.00368753, NaN, NaN, NaN, 0.04211683, "- N/A -   "
2.2, 51.30715, 0.003704187, NaN, NaN, NaN, 0.04211683, "- N/A -   "
2.21, 51.4251, 0.00372085, NaN, NaN, NaN, 0.04211683, "- N/A -   "
2.22, 51.7789, 0.00373751, NaN, NaN, NaN, 0.04211683, "- N/A -   "
2.23, 51.89689, 0.00375695, NaN, NaN, NaN, 0.04089605, "- N/A -   "
2.24, 52.1328, 0.00377638, NaN, NaN, NaN, 0.0396753, "- N/A -   "
2.25, 52.36868, 0.003793043, NaN, NaN, NaN, 0.0396753, "- N/A -   "
2.26, 52.6046, 0.0038097, NaN, NaN, NaN, 0.0396753, "- N/A -   "
2.27, 52.72252, 0.003826364, NaN, NaN, NaN, 0.0396753, "- N/A -   "
2.28, 52.9584, 0.00384302, NaN, NaN, NaN, 0.0396753, "- N/A -   "
2.29, 53.19431, 0.003859685, NaN, NaN, NaN, 0.0396753, "- N/A -   "
2.3, 53.4302, 0.00387912, NaN, NaN, NaN, 0.0384545, "- N/A -   "
2.31, 53.54815, 0.00389578, NaN, NaN, NaN, 0.0396753, "- N/A -   "
2.32, 53.784, 0.00391244, NaN, NaN, NaN, 0.0384545, "- N/A -   "
2.33, 54.0199, 0.00393188, NaN, NaN, NaN, 0.0372337, "- N/A -   "
2.34, 54.2558, 0.003951318, NaN, NaN, NaN, 0.0372337, "- N/A -   "
2.35, 54.4917, 0.00396798, NaN, NaN, NaN, 0.03601294, "- N/A -   "
2.36, 54.7276, 0.003984639, NaN, NaN, NaN, 0.03601294, "- N/A -   "
2.37, 54.9635, 0.0040013, NaN, NaN, NaN, 0.03601294, "- N/A -   "
2.38, 55.0815, 0.00401796, NaN, NaN, NaN, 0.03601294, "- N/A -   "
2.39, 55.3174, 0.004037397, NaN, NaN, NaN, 0.0347922, "- N/A -   "
2.4, 55.55326, 0.00405406, NaN, NaN, NaN, 0.0347922, "- N/A -   "
2.41, 55.6712, 0.00407072, NaN, NaN, NaN, 0.0347922, "- N/A -   "
2.42, 55.9071, 0.00408738, NaN, NaN, NaN, 0.0347922, "- N/A -   "
2.43, 56.143, 0.004104039, NaN, NaN, NaN, 0.0347922, "- N/A -   "
2.44, 56.37889, 0.0041207, NaN, NaN, NaN, 0.0347922, "- N/A -   "
2.45, 56.4968, 0.00413736, NaN, NaN, NaN, 0.0347922, "- N/A -   "
2.46, 56.73273, 0.004151244, NaN, NaN, NaN, 0.03601294, "- N/A -   "
2.47, 56.9686, 0.0041679, NaN, NaN, NaN, 0.03601294, "- N/A -   "
2.48, 56.9686, 0.00418179, NaN, NaN, NaN, 0.0372337, "- N/A -   "
2.49, 57.20452, 0.00419845, NaN, NaN, NaN, 0.0372337, "- N/A -   "
2.5, 57.44042, 0.004215109, NaN, NaN, NaN, 0.0372337, "- N/A -   "
2.51, 57.6763, 0.00423177, NaN, NaN, NaN, 0.0372337, "- N/A -   "
2.52, 57.91221, 0.00424843, NaN, NaN, NaN, 0.0372337, "- N/A -   "
2.53, 58.1481, 0.004265091, NaN, NaN, NaN, 0.0372337, "- N/A -   "
2.54, 58.384, 0.004284528, NaN, NaN, NaN, 0.03601294, "- N/A -   "
2.55, 58.6199, 0.00430397, NaN, NaN, NaN, 0.0347922, "- N/A -   "
2.56, 58.7378, 0.00432063, NaN, NaN, NaN, 0.0347922, "- N/A -   "
2.57, 58.9737, 0.00434006, NaN, NaN, NaN, 0.0335714, "- N/A -   "
2.58, 59.3276, 0.00435672, NaN, NaN, NaN, 0.0335714, "- N/A -   "
2.59, 59.4455, 0.004373384, NaN, NaN, NaN, 0.0335714, "- N/A -   "
2.6, 59.5635, 0.00439004, NaN, NaN, NaN, 0.0335714, "- N/A -   "
2.61, 59.9173, 0.004409482, NaN, NaN, NaN, 0.0335714, "- N/A -   "
2.62, 60.15321, 0.004426142, NaN, NaN, NaN, 0.0323506, "- N/A -   "
2.63, 60.3891, 0.004442803, NaN, NaN, NaN, 0.0323506, "- N/A -   "
2.64, 60.625, 0.00445946, NaN, NaN, NaN, 0.0323506, "- N/A -   "
2.65, 60.8609, 0.0044789, NaN, NaN, NaN, 0.03112983, "- N/A -   "
2.66, 60.97884, 0.00449278, NaN, NaN, NaN, 0.0323506, "- N/A -   "
2.67, 61.3327, 0.004509445, NaN, NaN, NaN, 0.0323506, "- N/A -   "
2.68, 61.56858, 0.00452611, NaN, NaN, NaN, 0.0323506, "- N/A -   "
2.69, 61.8045, 0.004542766, NaN, NaN, NaN, 0.0323506, "- N/A -   "
2.7, 61.8045, 0.00455943, NaN, NaN, NaN, 0.0323506, "- N/A -   "
2.71, 62.1583, 0.004576087, NaN, NaN, NaN, 0.0323506, "- N/A -   "
2.72, 62.3942, 0.00459275, NaN, NaN, NaN, 0.0323506, "- N/A -   "
2.73, 62.6301, 0.004609408, NaN, NaN, NaN, 0.0323506, "- N/A -   "
2.74, 62.7481, 0.00462607, NaN, NaN, NaN, 0.0323506, "- N/A -   "
2.75, 62.98395, 0.004642729, NaN, NaN, NaN, 0.0323506, "- N/A -   "
2.76, 63.2198, 0.00465939, NaN, NaN, NaN, 0.0323506, "- N/A -   "
2.77, 63.45574, 0.00467605, NaN, NaN, NaN, 0.0323506, "- N/A -   "
2.78, 63.80958, 0.00469549, NaN, NaN, NaN, 0.03112983, "- N/A -   "
2.79, 63.92753, 0.004712148, NaN, NaN, NaN, 0.03112983, "- N/A -   "
2.8, 64.16342, 0.00472881, NaN, NaN, NaN, 0.03112983, "- N/A -   "
2.81, 64.5173, 0.004745469, NaN, NaN, NaN, 0.0323506, "- N/A -   "
2.82, 64.5173, 0.00475935, NaN, NaN, NaN, 0.0323506, "- N/A -   "
2.83, 64.87111, 0.00477324, NaN, NaN, NaN, 0.0335714, "- N/A -   "
2.84, 64.98906, 0.00478712, NaN, NaN, NaN, 0.0347922, "- N/A -   "
2.85, 65.22495, 0.004801004, NaN, NaN, NaN, 0.03601294, "- N/A -   "
2.86, 65.3429, 0.004814888, NaN, NaN, NaN, 0.0372337, "- N/A -   "
2.87, 65.5788, 0.00483155, NaN, NaN, NaN, 0.0372337, "- N/A -   "
2.88, 65.81469, 0.004845432, NaN, NaN, NaN, 0.0384545, "- N/A -   "
2.89, 65.93263, 0.00486209, NaN, NaN, NaN, 0.0396753, "- N/A -   "
2.9, 66.16853, 0.004875976, NaN, NaN, NaN, 0.0396753, "- N/A -   "
2.91, 66.40443, 0.00488986, NaN, NaN, NaN, 0.04089605, "- N/A -   "
2.92, 66.64032, 0.00490652, NaN, NaN, NaN, 0.04089605, "- N/A -   "
2.93, 66.87622, 0.0049204, NaN, NaN, NaN, 0.04211683, "- N/A -   "
2.94, 67.1121, 0.004937065, NaN, NaN, NaN, 0.04211683, "- N/A -   "
2.95, 67.23006, 0.00495373, NaN, NaN, NaN, 0.04211683, "- N/A -   "
2.96, 67.5839, 0.004970386, NaN, NaN, NaN, 0.04211683, "- N/A -   "
2.97, 67.81979, 0.004987046, NaN, NaN, NaN, 0.04211683, "- N/A -   "
2.98, 68.05569, 0.00500093, NaN, NaN, NaN, 0.0433376, "- N/A -   "
2.99, 68.29159, 0.00501759, NaN, NaN, NaN, 0.0433376, "- N/A -   "
3, 68.52748, 0.00503147, NaN, NaN, NaN, 0.0445584, "- N/A -   "
3.01, 68.7634, 0.00504814, NaN, NaN, NaN, 0.0445584, "- N/A -   "
3.02, 68.9993, 0.005067572, NaN, NaN, NaN, 0.0433376, "- N/A -   "
3.03, 69.23517, 0.00508423, NaN, NaN, NaN, 0.0433376, "- N/A -   "
3.04, 69.35311, 0.005098116, NaN, NaN, NaN, 0.0445584, "- N/A -   "
3.05, 69.707, 0.005114777, NaN, NaN, NaN, 0.0445584, "- N/A -   "
3.06, 69.94285, 0.005134214, NaN, NaN, NaN, 0.0433376, "- N/A -   "
3.07, 70.29669, 0.00515365, NaN, NaN, NaN, 0.0433376, "- N/A -   "
3.08, 70.5326, 0.00517031, NaN, NaN, NaN, 0.04211683, "- N/A -   "
3.09, 70.88643, 0.00518975, NaN, NaN, NaN, 0.04089605, "- N/A -   "
3.1, 71.12233, 0.00520919, NaN, NaN, NaN, 0.0396753, "- N/A -   "
3.11, 71.3582, 0.005225847, NaN, NaN, NaN, 0.0396753, "- N/A -   "
3.12, 71.59412, 0.005245284, NaN, NaN, NaN, 0.0384545, "- N/A -   "
3.13, 72.06591, 0.00526472, NaN, NaN, NaN, 0.0372337, "- N/A -   "
3.14, 72.3018, 0.00528416, NaN, NaN, NaN, 0.03601294, "- N/A -   "
3.15, 72.5377, 0.005303596, NaN, NaN, NaN, 0.0347922, "- N/A -   "
3.16, 72.89154, 0.00532303, NaN, NaN, NaN, 0.0335714, "- N/A -   "
3.17, 73.12743, 0.00533969, NaN, NaN, NaN, 0.0335714, "- N/A -   "
3.18, 73.36333, 0.00535913, NaN, NaN, NaN, 0.0323506, "- N/A -   "
3.19, 73.71717, 0.00537579, NaN, NaN, NaN, 0.0323506, "- N/A -   "
3.2, 73.9531, 0.00539245, NaN, NaN, NaN, 0.0323506, "- N/A -   "
3.21, 74.189, 0.00540911, NaN, NaN, NaN, 0.0323506, "- N/A -   "
3.22, 74.42485, 0.005425773, NaN, NaN, NaN, 0.0323506, "- N/A -   "
3.23, 74.66075, 0.00544243, NaN, NaN, NaN, 0.0323506, "- N/A -   "
3.24, 74.8966, 0.00545632, NaN, NaN, NaN, 0.0335714, "- N/A -   "
3.25, 75.13254, 0.00547298, NaN, NaN, NaN, 0.0335714, "- N/A -   "
3.26, 75.36844, 0.00548964, NaN, NaN, NaN, 0.0335714, "- N/A -   "
3.27, 75.7223, 0.0055063, NaN, NaN, NaN, 0.0335714, "- N/A -   "
3.28, 75.8402, 0.00552296, NaN, NaN, NaN, 0.0335714, "- N/A -   "
3.29, 76.19407, 0.0055424, NaN, NaN, NaN, 0.0335714, "- N/A -   "
3.3, 76.43, 0.00555906, NaN, NaN, NaN, 0.0323506, "- N/A -   "
3.31, 76.6659, 0.00557572, NaN, NaN, NaN, 0.0323506, "- N/A -   "
3.32, 77.0197, 0.00559515, NaN, NaN, NaN, 0.03112983, "- N/A -   "
3.33, 77.37354, 0.00560904, NaN, NaN, NaN, 0.0323506, "- N/A -   "
3.34, 77.6094, 0.005628476, NaN, NaN, NaN, 0.03112983, "- N/A -   "
3.35, 77.84533, 0.00564514, NaN, NaN, NaN, 0.03112983, "- N/A -   "
3.36, 78.19917, 0.00566457, NaN, NaN, NaN, 0.0299091, "- N/A -   "
3.37, 78.4351, 0.00568123, NaN, NaN, NaN, 0.0299091, "- N/A -   "
3.38, 78.67096, 0.005697895, NaN, NaN, NaN, 0.0299091, "- N/A -   "
3.39, 78.78891, 0.00571456, NaN, NaN, NaN, 0.0299091, "- N/A -   "
3.4, 79.14275, 0.00573122, NaN, NaN, NaN, 0.0299091, "- N/A -   "
3.41, 79.37865, 0.00574788, NaN, NaN, NaN, 0.0299091, "- N/A -   "
3.42, 79.61454, 0.00576454, NaN, NaN, NaN, 0.0299091, "- N/A -   "
3.43, 79.85043, 0.00577842, NaN, NaN, NaN, 0.03112983, "- N/A -   "
3.44, 80.0863, 0.00579508, NaN, NaN, NaN, 0.03112983, "- N/A -   "
3.45, 80.44018, 0.00581174, NaN, NaN, NaN, 0.03112983, "- N/A -   "
3.46, 80.55813, 0.00582563, NaN, NaN, NaN, 0.0323506, "- N/A -   "
3.47, 80.794, 0.00584229, NaN, NaN, NaN, 0.0323506, "- N/A -   "
3.48, 81.14786, 0.00585617, NaN, NaN, NaN, 0.0335714, "- N/A -   "
3.49, 81.38376, 0.00587283, NaN, NaN, NaN, 0.0335714, "- N/A -   "
3.5, 81.5017, 0.005886714, NaN, NaN, NaN, 0.0347922, "- N/A -   "
3.51, 81.8555, 0.00590337, NaN, NaN, NaN, 0.0347922, "- N/A -   "
3.52, 81.97349, 0.005917258, NaN, NaN, NaN, 0.03601294, "- N/A -   "
3.53, 82.32734, 0.005931142, NaN, NaN, NaN, 0.0372337, "- N/A -   "
3.54, 82.44528, 0.005945026, NaN, NaN, NaN, 0.0384545, "- N/A -   "
3.55, 82.68118, 0.00595891, NaN, NaN, NaN, 0.0396753, "- N/A -   "
3.56, 82.91707, 0.005972793, NaN, NaN, NaN, 0.04089605, "- N/A -   "
3.57, 83.15297, 0.00598945, NaN, NaN, NaN, 0.04211683, "- N/A -   "
3.58, 83.27091, 0.006003338, NaN, NaN, NaN, 0.04211683, "- N/A -   "
3.59, 83.50681, 0.006017221, NaN, NaN, NaN, 0.0433376, "- N/A -   "
3.6, 83.86065, 0.006031105, NaN, NaN, NaN, 0.0445584, "- N/A -   "
3.61, 84.09654, 0.00604777, NaN, NaN, NaN, 0.0445584, "- N/A -   "
3.62, 84.33244, 0.006061649, NaN, NaN, NaN, 0.04699994, "- N/A -   "
3.63, 84.56834, 0.00607831, NaN, NaN, NaN, 0.04699994, "- N/A -   "
3.64, 84.92217, 0.00609497, NaN, NaN, NaN, 0.0482207, "- N/A -   "
3.65, 85.15807, 0.00611163, NaN, NaN, NaN, 0.04699994, "- N/A -   "
3.66, 85.51192, 0.006128291, NaN, NaN, NaN, 0.04699994, "- N/A -   "
3.67, 85.74781, 0.006144952, NaN, NaN, NaN, 0.04699994, "- N/A -   "
3.68, 85.9837, 0.006164389, NaN, NaN, NaN, 0.04577916, "- N/A -   "
3.69, 86.33755, 0.00618383, NaN, NaN, NaN, 0.0445584, "- N/A -   "
3.7, 86.80934, 0.006203264, NaN, NaN, NaN, 0.0433376, "- N/A -   "
3.71, 87.04523, 0.006222701, NaN, NaN, NaN, 0.04211683, "- N/A -   "
3.72, 87.39908, 0.006242138, NaN, NaN, NaN, 0.04089605, "- N/A -   "
3.73, 87.63497, 0.006261575, NaN, NaN, NaN, 0.04089605, "- N/A -   "
3.74, 87.9888, 0.006278236, NaN, NaN, NaN, 0.0396753, "- N/A -   "
3.75, 88.22471, 0.006297673, NaN, NaN, NaN, 0.0384545, "- N/A -   "
3.76, 88.57855, 0.006314334, NaN, NaN, NaN, 0.0384545, "- N/A -   "
3.77, 88.8144, 0.006330994, NaN, NaN, NaN, 0.0384545, "- N/A -   "
3.78, 89.16828, 0.006350431, NaN, NaN, NaN, 0.0372337, "- N/A -   "
3.79, 89.52213, 0.006367092, NaN, NaN, NaN, 0.0372337, "- N/A -   "
3.8, 89.758, 0.006386529, NaN, NaN, NaN, 0.03601294, "- N/A -   "
3.81, 89.99392, 0.00640319, NaN, NaN, NaN, 0.03601294, "- N/A -   "
3.82, 90.34776, 0.00642263, NaN, NaN, NaN, 0.0347922, "- N/A -   "
3.83, 90.70161, 0.006439287, NaN, NaN, NaN, 0.0347922, "- N/A -   "
3.84, 91.05545, 0.006458725, NaN, NaN, NaN, 0.0335714, "- N/A -   "
3.85, 91.1734, 0.00647261, NaN, NaN, NaN, 0.0347922, "- N/A -   "
3.86, 91.64519, 0.006489269, NaN, NaN, NaN, 0.0347922, "- N/A -   "
3.87, 91.88108, 0.00651148, NaN, NaN, NaN, 0.0323506, "- N/A -   "
3.88, 92.23492, 0.00652814, NaN, NaN, NaN, 0.0323506, "- N/A -   "
3.89, 92.58876, 0.006544804, NaN, NaN, NaN, 0.0323506, "- N/A -   "
3.9, 92.82466, 0.00656424, NaN, NaN, NaN, 0.03112983, "- N/A -   "
3.91, 93.0606, 0.0065809, NaN, NaN, NaN, 0.03112983, "- N/A -   "
3.92, 93.41439, 0.006600339, NaN, NaN, NaN, 0.0299091, "- N/A -   "
3.93, 93.76824, 0.006619776, NaN, NaN, NaN, 0.0286883, "- N/A -   "
3.94, 94.1221, 0.006636437, NaN, NaN, NaN, 0.0286883, "- N/A -   "
3.95, 94.24, 0.006655874, NaN, NaN, NaN, 0.0274675, "- N/A -   "
3.96, 94.59387, 0.00666976, NaN, NaN, NaN, 0.0286883, "- N/A -   "
3.97, 94.8298, 0.00668642, NaN, NaN, NaN, 0.0286883, "- N/A -   "
3.98, 95.18361, 0.006703079, NaN, NaN, NaN, 0.0286883, "- N/A -   "
3.99, 95.5374, 0.006719739, NaN, NaN, NaN, 0.0286883, "- N/A -   "
3.999, 95.6554, 0.0067364, NaN, NaN, NaN, 0.0286883, "- N/A -   "
4.01, 96.12719, 0.00675306, NaN, NaN, NaN, 0.0286883, "- N/A -   "
4.019, 96.24514, 0.00676972, NaN, NaN, NaN, 0.0286883, "- N/A -   "
4.03, 96.599, 0.00678638, NaN, NaN, NaN, 0.0286883, "- N/A -   "
4.039, 96.83487, 0.00680304, NaN, NaN, NaN, 0.0286883, "- N/A -   "
4.05, 97.07077, 0.006816926, NaN, NaN, NaN, 0.0299091, "- N/A -   "
4.059, 97.30666, 0.00683359, NaN, NaN, NaN, 0.0299091, "- N/A -   "
4.07, 97.6605, 0.00684747, NaN, NaN, NaN, 0.03112983, "- N/A -   "
4.079, 97.8964, 0.00686413, NaN, NaN, NaN, 0.03112983, "- N/A -   "
4.09, 98.01435, 0.006878014, NaN, NaN, NaN, 0.0323506, "- N/A -   "
4.1, 98.4861, 0.0068919, NaN, NaN, NaN, 0.0335714, "- N/A -   "
4.11, 98.60408, 0.00690856, NaN, NaN, NaN, 0.0335714, "- N/A -   "
4.12, 98.83998, 0.00692244, NaN, NaN, NaN, 0.0347922, "- N/A -   "
4.13, 99.0759, 0.006936326, NaN, NaN, NaN, 0.03601294, "- N/A -   "
4.14, 99.42972, 0.00695299, NaN, NaN, NaN, 0.03601294, "- N/A -   "
4.15, 99.66561, 0.00696965, NaN, NaN, NaN, 0.03601294, "- N/A -   "
4.16, 99.9015, 0.006983531, NaN, NaN, NaN, 0.0372337, "- N/A -   "
4.17, 100.137, 0.00700019, NaN, NaN, NaN, 0.0372337, "- N/A -   "
4.18, 100.491, 0.00701408, NaN, NaN, NaN, 0.0384545, "- N/A -   "
4.19, 100.727, 0.00702796, NaN, NaN, NaN, 0.0396753, "- N/A -   "
4.2, 100.963, 0.00704184, NaN, NaN, NaN, 0.04089605, "- N/A -   "
4.21, 101.199, 0.0070585, NaN, NaN, NaN, 0.04089605, "- N/A -   "
4.22, 101.435, 0.00707239, NaN, NaN, NaN, 0.04211683, "- N/A -   "
4.23, 101.671, 0.00708627, NaN, NaN, NaN, 0.0433376, "- N/A -   "
4.24, 101.907, 0.00710293, NaN, NaN, NaN, 0.0445584, "- N/A -   "
4.25, 102.143, 0.00711682, NaN, NaN, NaN, 0.0445584, "- N/A -   "
4.26, 102.496, 0.00713348, NaN, NaN, NaN, 0.0445584, "- N/A -   "
4.27, 102.732, 0.00714736, NaN, NaN, NaN, 0.04577916, "- N/A -   "
4.28, 103.086, 0.00716402, NaN, NaN, NaN, 0.04577916, "- N/A -   "
4.29, 103.322, 0.00718068, NaN, NaN, NaN, 0.04577916, "- N/A -   "
4.3, 103.676, 0.00719734, NaN, NaN, NaN, 0.04577916, "- N/A -   "
4.31, 103.912, 0.007214, NaN, NaN, NaN, 0.04577916, "- N/A -   "
4.32, 104.148, 0.007230662, NaN, NaN, NaN, 0.04699994, "- N/A -   "
4.33, 104.501, 0.00724732, NaN, NaN, NaN, 0.04699994, "- N/A -   "
4.34, 104.737, 0.00726121, NaN, NaN, NaN, 0.04699994, "- N/A -   "
4.35, 105.209, 0.007277867, NaN, NaN, NaN, 0.04699994, "- N/A -   "
4.36, 105.445, 0.00729453, NaN, NaN, NaN, 0.04699994, "- N/A -   "
4.37, 105.681, 0.00731396, NaN, NaN, NaN, 0.04577916, "- N/A -   "
4.38, 106.035, 0.007330625, NaN, NaN, NaN, 0.04577916, "- N/A -   "
4.39, 106.389, 0.00734729, NaN, NaN, NaN, 0.04577916, "- N/A -   "
4.4, 106.742, 0.00736395, NaN, NaN, NaN, 0.04577916, "- N/A -   "
4.41, 106.978, 0.00738338, NaN, NaN, NaN, 0.0445584, "- N/A -   "
4.42, 107.3322, 0.007400044, NaN, NaN, NaN, 0.0445584, "- N/A -   "
4.43, 107.686, 0.0074167, NaN, NaN, NaN, 0.0445584, "- N/A -   "
4.44, 107.922, 0.007436142, NaN, NaN, NaN, 0.0433376, "- N/A -   "
4.45, 108.276, 0.00745558, NaN, NaN, NaN, 0.04211683, "- N/A -   "
4.46, 108.63, 0.00747502, NaN, NaN, NaN, 0.04089605, "- N/A -   "
4.47, 108.866, 0.00749445, NaN, NaN, NaN, 0.0396753, "- N/A -   "
4.48, 109.219, 0.007511114, NaN, NaN, NaN, 0.0396753, "- N/A -   "
4.49, 109.5732, 0.007530551, NaN, NaN, NaN, 0.0384545, "- N/A -   "
4.5, 110.045, 0.007552765, NaN, NaN, NaN, 0.03601294, "- N/A -   "
4.51, 110.517, 0.00757498, NaN, NaN, NaN, 0.0335714, "- N/A -   "
4.52, 110.753, 0.007594417, NaN, NaN, NaN, 0.0335714, "- N/A -   "
4.53, 111.107, 0.007611077, NaN, NaN, NaN, 0.0323506, "- N/A -   "
4.54, 111.46, 0.007630514, NaN, NaN, NaN, 0.03112983, "- N/A -   "
4.55, 111.696, 0.007647175, NaN, NaN, NaN, 0.03112983, "- N/A -   "
4.56, 112.0501, 0.007663835, NaN, NaN, NaN, 0.03112983, "- N/A -   "
4.57, 112.404, 0.0076805, NaN, NaN, NaN, 0.03112983, "- N/A -   "
4.58, 112.64, 0.007697156, NaN, NaN, NaN, 0.03112983, "- N/A -   "
4.59, 112.994, 0.00771382, NaN, NaN, NaN, 0.03112983, "- N/A -   "
4.6, 113.23, 0.00773325, NaN, NaN, NaN, 0.03112983, "- N/A -   "
4.61, 113.583, 0.00774991, NaN, NaN, NaN, 0.0299091, "- N/A -   "
4.62, 113.819, 0.007766575, NaN, NaN, NaN, 0.0299091, "- N/A -   "
4.63, 114.173, 0.007783236, NaN, NaN, NaN, 0.0299091, "- N/A -   "
4.64, 114.409, 0.007799896, NaN, NaN, NaN, 0.0299091, "- N/A -   "
4.65, 114.763, 0.007816557, NaN, NaN, NaN, 0.0299091, "- N/A -   "
4.66, 114.999, 0.00783044, NaN, NaN, NaN, 0.03112983, "- N/A -   "
4.67, 115.235, 0.007844324, NaN, NaN, NaN, 0.0323506, "- N/A -   "
4.68, 115.471, 0.007858207, NaN, NaN, NaN, 0.0335714, "- N/A -   "
4.69, 115.706, 0.007874868, NaN, NaN, NaN, 0.0335714, "- N/A -   "
4.7, 116.06, 0.007891529, NaN, NaN, NaN, 0.0335714, "- N/A -   "
4.71, 116.414, 0.007908189, NaN, NaN, NaN, 0.0335714, "- N/A -   "
4.72, 116.768, 0.00792485, NaN, NaN, NaN, 0.0335714, "- N/A -   "
4.73, 117.004, 0.007938734, NaN, NaN, NaN, 0.0347922, "- N/A -   "
4.74, 117.24, 0.00795262, NaN, NaN, NaN, 0.03601294, "- N/A -   "
4.75, 117.476, 0.007969278, NaN, NaN, NaN, 0.03601294, "- N/A -   "
4.76, 117.83, 0.007985938, NaN, NaN, NaN, 0.03601294, "- N/A -   "
4.77, 118.065, 0.008002599, NaN, NaN, NaN, 0.03601294, "- N/A -   "
4.78, 118.301, 0.008016483, NaN, NaN, NaN, 0.0372337, "- N/A -   "
4.79, 118.537, 0.008033143, NaN, NaN, NaN, 0.0372337, "- N/A -   "
4.8, 118.891, 0.008047027, NaN, NaN, NaN, 0.0384545, "- N/A -   "
4.81, 119.245, 0.008063687, NaN, NaN, NaN, 0.0384545, "- N/A -   "
4.82, 119.599, 0.008080348, NaN, NaN, NaN, 0.0384545, "- N/A -   "
4.83, 119.717, 0.008094232, NaN, NaN, NaN, 0.0396753, "- N/A -   "
4.84, 120.071, 0.008113669, NaN, NaN, NaN, 0.0384545, "- N/A -   "
4.85, 120.424, 0.008133106, NaN, NaN, NaN, 0.0372337, "- N/A -   "
4.86, 120.778, 0.008149767, NaN, NaN, NaN, 0.0372337, "- N/A -   "
4.87, 121.014, 0.00816365, NaN, NaN, NaN, 0.0384545, "- N/A -   "
4.88, 121.368, 0.008180311, NaN, NaN, NaN, 0.0384545, "- N/A -   "
4.89, 121.604, 0.008196971, NaN, NaN, NaN, 0.0384545, "- N/A -   "
4.9, 121.84, 0.008210856, NaN, NaN, NaN, 0.0396753, "- N/A -   "
4.91, 122.194, 0.008224739, NaN, NaN, NaN, 0.04089605, "- N/A -   "
4.92, 122.429, 0.008241399, NaN, NaN, NaN, 0.04089605, "- N/A -   "
4.93, 122.665, 0.008255283, NaN, NaN, NaN, 0.04211683, "- N/A -   "
4.94, 122.901, 0.008271944, NaN, NaN, NaN, 0.04211683, "- N/A -   "
4.95, 123.255, 0.008288604, NaN, NaN, NaN, 0.04211683, "- N/A -   "
4.96, 123.609, 0.008302488, NaN, NaN, NaN, 0.0433376, "- N/A -   "
4.97, 123.845, 0.00831637, NaN, NaN, NaN, 0.0445584, "- N/A -   "
4.98, 124.081, 0.008335809, NaN, NaN, NaN, 0.0445584, "- N/A -   "
4.99, 124.317, 0.008349693, NaN, NaN, NaN, 0.0445584, "- N/A -   "
5, 124.67, 0.008363577, NaN, NaN, NaN, 0.04577916, "- N/A -   "
5.01, 125.024, 0.008380237, NaN, NaN, NaN, 0.04577916, "- N/A -   "
5.02, 125.26, 0.008394121, NaN, NaN, NaN, 0.04699994, "- N/A -   "
5.03, 125.614, 0.008413558, NaN, NaN, NaN, 0.04577916, "- N/A -   "
5.04, 126.086, 0.008433, NaN, NaN, NaN, 0.0445584, "- N/A -   "
5.05, 126.44, 0.008452432, NaN, NaN, NaN, 0.0433376, "- N/A -   "
5.06, 126.794, 0.00847187, NaN, NaN, NaN, 0.04211683, "- N/A -   "
5.07, 127.147, 0.008494084, NaN, NaN, NaN, 0.04089605, "- N/A -   "
5.08, 127.501, 0.008513521, NaN, NaN, NaN, 0.0384545, "- N/A -   "
5.09, 127.973, 0.008532958, NaN, NaN, NaN, 0.0372337, "- N/A -   "
5.1, 128.209, 0.008552396, NaN, NaN, NaN, 0.03601294, "- N/A -   "
5.11, 128.6807, 0.008571833, NaN, NaN, NaN, 0.0347922, "- N/A -   "
5.12, 128.917, 0.008588494, NaN, NaN, NaN, 0.0347922, "- N/A -   "
5.13, 129.388, 0.00860793, NaN, NaN, NaN, 0.0335714, "- N/A -   "
5.14, 129.742, 0.008624592, NaN, NaN, NaN, 0.0335714, "- N/A -   "
5.15, 129.978, 0.008644029, NaN, NaN, NaN, 0.0323506, "- N/A -   "
5.16, 130.332, 0.008663465, NaN, NaN, NaN, 0.03112983, "- N/A -   "
5.17, 130.6858, 0.008682903, NaN, NaN, NaN, 0.0299091, "- N/A -   "
5.18, 131.04, 0.008702341, NaN, NaN, NaN, 0.0299091, "- N/A -   "
5.19, 131.393, 0.008719001, NaN, NaN, NaN, 0.0286883, "- N/A -   "
5.2, 131.747, 0.008738439, NaN, NaN, NaN, 0.0274675, "- N/A -   "
5.21, 131.983, 0.008755099, NaN, NaN, NaN, 0.0274675, "- N/A -   "
5.22, 132.219, 0.008768982, NaN, NaN, NaN, 0.0286883, "- N/A -   "
5.23, 132.6909, 0.008785643, NaN, NaN, NaN, 0.0286883, "- N/A -   "
5.24, 132.6909, 0.008799527, NaN, NaN, NaN, 0.0299091, "- N/A -   "
5.25, 133.045, 0.008813411, NaN, NaN, NaN, 0.03112983, "- N/A -   "
5.26, 133.281, 0.008827294, NaN, NaN, NaN, 0.0323506, "- N/A -   "
5.27, 133.517, 0.008841177, NaN, NaN, NaN, 0.0335714, "- N/A -   "
5.28, 133.87, 0.008857839, NaN, NaN, NaN, 0.0335714, "- N/A -   "
5.29, 134.106, 0.008871722, NaN, NaN, NaN, 0.0347922, "- N/A -   "
5.3, 134.46, 0.008888382, NaN, NaN, NaN, 0.0347922, "- N/A -   "
5.31, 134.696, 0.008902267, NaN, NaN, NaN, 0.03601294, "- N/A -   "
5.32, 134.932, 0.008918927, NaN, NaN, NaN, 0.03601294, "- N/A -   "
5.33, 135.1678, 0.00893559, NaN, NaN, NaN, 0.03601294, "- N/A -   "
5.34, 135.522, 0.008952248, NaN, NaN, NaN, 0.03601294, "- N/A -   "
5.35, 135.875, 0.008968908, NaN, NaN, NaN, 0.03601294, "- N/A -   "
5.36, 136.229, 0.008985569, NaN, NaN, NaN, 0.03601294, "- N/A -   "
5.37, 136.583, 0.009005006, NaN, NaN, NaN, 0.0347922, "- N/A -   "
5.38, 137.055, 0.009021667, NaN, NaN, NaN, 0.0347922, "- N/A -   "
5.39, 137.173, 0.009038327, NaN, NaN, NaN, 0.0347922, "- N/A -   "
5.4, 137.763, 0.009057765, NaN, NaN, NaN, 0.0335714, "- N/A -   "
5.41, 137.999, 0.009077202, NaN, NaN, NaN, 0.0323506, "- N/A -   "
5.42, 138.47, 0.009093863, NaN, NaN, NaN, 0.0323506, "- N/A -   "
5.43, 138.706, 0.009110522, NaN, NaN, NaN, 0.0323506, "- N/A -   "
5.44, 139.06, 0.009127184, NaN, NaN, NaN, 0.0323506, "- N/A -   "
5.45, 139.296, 0.009143844, NaN, NaN, NaN, 0.0323506, "- N/A -   "
5.46, 139.65, 0.009160505, NaN, NaN, NaN, 0.0323506, "- N/A -   "
5.47, 139.8857, 0.009174388, NaN, NaN, NaN, 0.0335714, "- N/A -   "
5.48, 140.1216, 0.009188272, NaN, NaN, NaN, 0.0347922, "- N/A -   "
5.49, 140.357, 0.009202156, NaN, NaN, NaN, 0.03601294, "- N/A -   "
5.5, 140.711, 0.009218816, NaN, NaN, NaN, 0.03601294, "- N/A -   "
5.51, 140.947, 0.009235477, NaN, NaN, NaN, 0.03601294, "- N/A -   "
5.52, 141.301, 0.00924936, NaN, NaN, NaN, 0.0372337, "- N/A -   "
5.53, 141.6549, 0.009266021, NaN, NaN, NaN, 0.0372337, "- N/A -   "
5.54, 141.891, 0.009279905, NaN, NaN, NaN, 0.0384545, "- N/A -   "
5.55, 142.1267, 0.009299342, NaN, NaN, NaN, 0.0372337, "- N/A -   "
5.56, 142.3626, 0.009313226, NaN, NaN, NaN, 0.0384545, "- N/A -   "
5.57, 142.716, 0.009329886, NaN, NaN, NaN, 0.0396753, "- N/A -   "
5.58, 142.952, 0.00934377, NaN, NaN, NaN, 0.0396753, "- N/A -   "
5.59, 143.188, 0.009357654, NaN, NaN, NaN, 0.04089605, "- N/A -   "
5.6, 143.542, 0.009371538, NaN, NaN, NaN, 0.04211683, "- N/A -   "
5.61, 143.778, 0.009388198, NaN, NaN, NaN, 0.04211683, "- N/A -   "
5.62, 144.132, 0.009404859, NaN, NaN, NaN, 0.04211683, "- N/A -   "
5.63, 144.486, 0.009421519, NaN, NaN, NaN, 0.04211683, "- N/A -   "
5.64, 144.8395, 0.009438179, NaN, NaN, NaN, 0.04211683, "- N/A -   "
5.65, 145.193, 0.009457617, NaN, NaN, NaN, 0.04089605, "- N/A -   "
5.66, 145.547, 0.00947428, NaN, NaN, NaN, 0.04089605, "- N/A -   "
5.67, 145.901, 0.009490938, NaN, NaN, NaN, 0.04089605, "- N/A -   "
5.68, 146.137, 0.009504822, NaN, NaN, NaN, 0.04211683, "- N/A -   "
5.69, 146.3728, 0.009518705, NaN, NaN, NaN, 0.0433376, "- N/A -   "
5.7, 146.6087, 0.009538143, NaN, NaN, NaN, 0.04211683, "- N/A -   "
5.71, 146.963, 0.009552026, NaN, NaN, NaN, 0.0433376, "- N/A -   "
5.72, 147.316, 0.009571464, NaN, NaN, NaN, 0.04211683, "- N/A -   "
5.73, 147.67, 0.009588124, NaN, NaN, NaN, 0.04211683, "- N/A -   "
5.74, 148.024, 0.009607561, NaN, NaN, NaN, 0.04089605, "- N/A -   "
5.75, 148.378, 0.009626999, NaN, NaN, NaN, 0.0396753, "- N/A -   "
5.76, 148.8497, 0.00964366, NaN, NaN, NaN, 0.0396753, "- N/A -   "
5.77, 149.204, 0.009663097, NaN, NaN, NaN, 0.0396753, "- N/A -   "
5.78, 149.557, 0.009679756, NaN, NaN, NaN, 0.0384545, "- N/A -   "
5.79, 149.911, 0.00969642, NaN, NaN, NaN, 0.0384545, "- N/A -   "
5.8, 150.147, 0.009715854, NaN, NaN, NaN, 0.0372337, "- N/A -   "
5.81, 150.501, 0.009729738, NaN, NaN, NaN, 0.0384545, "- N/A -   "
5.82, 150.855, 0.009749176, NaN, NaN, NaN, 0.0372337, "- N/A -   "
5.83, 151.209, 0.009765836, NaN, NaN, NaN, 0.0372337, "- N/A -   "
5.84, 151.5625, 0.009782497, NaN, NaN, NaN, 0.0384545, "- N/A -   "
5.85, 151.916, 0.00979638, NaN, NaN, NaN, 0.0384545, "- N/A -   "
5.86, 152.152, 0.00981304, NaN, NaN, NaN, 0.0384545, "- N/A -   "
5.87, 152.624, 0.009832478, NaN, NaN, NaN, 0.0372337, "- N/A -   "
5.88, 152.742, 0.009846362, NaN, NaN, NaN, 0.0384545, "- N/A -   "
5.89, 153.096, 0.009863023, NaN, NaN, NaN, 0.0384545, "- N/A -   "
5.9, 153.45, 0.009879682, NaN, NaN, NaN, 0.0384545, "- N/A -   "
5.91, 153.8035, 0.009896344, NaN, NaN, NaN, 0.0384545, "- N/A -   "
5.92, 154.157, 0.009913004, NaN, NaN, NaN, 0.0384545, "- N/A -   "
5.93, 154.511, 0.009932442, NaN, NaN, NaN, 0.0372337, "- N/A -   "
5.94, 154.865, 0.009949102, NaN, NaN, NaN, 0.0372337, "- N/A -   "
5.95, 155.337, 0.009968539, NaN, NaN, NaN, 0.03601294, "- N/A -   "
[...]
30.07, 1120.21, 0.05017591, NaN, NaN, NaN, 0.0323506, "- N/A -   "
30.11, 1121.88, 0.050237, NaN, NaN, NaN, 0.0347922, "- N/A -   "
30.15, 1123.31, 0.0502953, NaN, NaN, NaN, 0.0384545, "- N/A -   "
30.19, 1124.86, 0.0503564, NaN, NaN, NaN, 0.04089605, "- N/A -   "
30.23, 1126.53, 0.0504203, NaN, NaN, NaN, 0.04211683, "- N/A -   "
30.27, 1128.32, 0.0504869, NaN, NaN, NaN, 0.04211683, "- N/A -   "
30.31, 1129.99, 0.05055077, NaN, NaN, NaN, 0.0433376, "- N/A -   "
30.35, 1131.775, 0.05061741, NaN, NaN, NaN, 0.0433376, "- N/A -   "
30.39, 1133.683, 0.0506896, NaN, NaN, NaN, 0.04089605, "- N/A -   "
30.43, 1135.71, 0.05076458, NaN, NaN, NaN, 0.0372337, "- N/A -   "
30.47, 1137.74, 0.0508368, NaN, NaN, NaN, 0.0347922, "- N/A -   "
30.51, 1139.53, 0.0509062, NaN, NaN, NaN, 0.0335714, "- N/A -   "
30.55, 1141.32, 0.0509756, NaN, NaN, NaN, 0.0323506, "- N/A -   "
30.59, 1143.1, 0.0510367, NaN, NaN, NaN, 0.0347922, "- N/A -   "
30.63, 1145.012, 0.0511061, NaN, NaN, NaN, 0.0335714, "- N/A -   "
30.67, 1146.92, 0.05118109, NaN, NaN, NaN, 0.0299091, "- N/A -   "
30.71, 1148.71, 0.05124773, NaN, NaN, NaN, 0.0299091, "- N/A -   "
30.75, 1150.259, 0.0513116, NaN, NaN, NaN, 0.03112983, "- N/A -   "
30.79, 1152.05, 0.05137546, NaN, NaN, NaN, 0.0335714, "- N/A -   "
30.83, 1153.36, 0.051431, NaN, NaN, NaN, 0.0384545, "- N/A -   "
30.87, 1154.79, 0.0514838, NaN, NaN, NaN, 0.0445584, "- N/A -   "
30.91, 1156.22, 0.05154207, NaN, NaN, NaN, 0.0482207, "- N/A -   "
30.95, 1157.772, 0.0516032, NaN, NaN, NaN, 0.05066227, "- N/A -   "
30.99, 1159.68, 0.05167535, NaN, NaN, NaN, 0.0482207, "- N/A -   "
31.03, 1161.588, 0.0517475, NaN, NaN, NaN, 0.04577916, "- N/A -   "
31.07, 1163.73, 0.0518253, NaN, NaN, NaN, 0.04089605, "- N/A -   "
31.11, 1165.881, 0.051903, NaN, NaN, NaN, 0.03601294, "- N/A -   "
31.15, 1167.67, 0.0519725, NaN, NaN, NaN, 0.0347922, "- N/A -   "
31.19, 1169.58, 0.0520419, NaN, NaN, NaN, 0.0335714, "- N/A -   "
31.23, 1171.61, 0.05211963, NaN, NaN, NaN, 0.0286883, "- N/A -   "
31.27, 1173.51, 0.0521891, NaN, NaN, NaN, 0.0274675, "- N/A -   "
31.31, 1175.42, 0.0522585, NaN, NaN, NaN, 0.0262467, "- N/A -   "
31.35, 1176.97, 0.0523251, NaN, NaN, NaN, 0.0262467, "- N/A -   "
31.39, 1178.52, 0.0523862, NaN, NaN, NaN, 0.0286883, "- N/A -   "
31.43, 1179.83, 0.052439, NaN, NaN, NaN, 0.0347922, "- N/A -   "
31.47, 1181.26, 0.0524945, NaN, NaN, NaN, 0.0396753, "- N/A -   "
31.51, 1182.81, 0.0525528, NaN, NaN, NaN, 0.0433376, "- N/A -   "
31.55, 1184.6, 0.05261667, NaN, NaN, NaN, 0.0445584, "- N/A -   "
31.59, 1186.51, 0.05268609, NaN, NaN, NaN, 0.0433376, "- N/A -   "
31.63, 1188.18, 0.0527527, NaN, NaN, NaN, 0.0433376, "- N/A -   "
31.67, 1189.85, 0.0528166, NaN, NaN, NaN, 0.0445584, "- N/A -   "
31.71, 1191.76, 0.052886, NaN, NaN, NaN, 0.0433376, "- N/A -   "
31.75, 1193.67, 0.05295821, NaN, NaN, NaN, 0.04089605, "- N/A -   "
31.79, 1195.694, 0.05303596, NaN, NaN, NaN, 0.03601294, "- N/A -   "
31.83, 1197.96, 0.0531137, NaN, NaN, NaN, 0.03112983, "- N/A -   "
31.87, 1199.63, 0.05318035, NaN, NaN, NaN, 0.03112983, "- N/A -   "
31.91, 1201.42, 0.053247, NaN, NaN, NaN, 0.03112983, "- N/A -   "
31.95, 1203.09, 0.0533081, NaN, NaN, NaN, 0.0335714, "- N/A -   "
31.99, 1204.76, 0.0533692, NaN, NaN, NaN, 0.03601294, "- N/A -   "
32.03, 1206.31, 0.05343304, NaN, NaN, NaN, 0.0372337, "- N/A -   "
32.069, 1208.1, 0.0534969, NaN, NaN, NaN, 0.0384545, "- N/A -   "
32.11, 1210, 0.0535635, NaN, NaN, NaN, 0.0384545, "- N/A -   "
32.15, 1211.793, 0.0536302, NaN, NaN, NaN, 0.0384545, "- N/A -   "
32.19, 1213.34, 0.05369405, NaN, NaN, NaN, 0.0396753, "- N/A -   "
32.229, 1214.89, 0.0537524, NaN, NaN, NaN, 0.0433376, "- N/A -   "
32.27, 1216.44, 0.05381623, NaN, NaN, NaN, 0.0445584, "- N/A -   "
32.31, 1218.11, 0.05387732, NaN, NaN, NaN, 0.04699994, "- N/A -   "
32.35, 1220.14, 0.05394951, NaN, NaN, NaN, 0.0445584, "- N/A -   "
32.389, 1222.29, 0.05403004, NaN, NaN, NaN, 0.0384545, "- N/A -   "
32.43, 1224.67, 0.05411334, NaN, NaN, NaN, 0.03112983, "- N/A -   "
32.47, 1226.7, 0.0541855, NaN, NaN, NaN, 0.0286883, "- N/A -   "
32.51, 1228.37, 0.0542494, NaN, NaN, NaN, 0.0299091, "- N/A -   "
32.549, 1229.92, 0.054316, NaN, NaN, NaN, 0.0299091, "- N/A -   "
32.59, 1231.35, 0.05437158, NaN, NaN, NaN, 0.0347922, "- N/A -   "
32.63, 1233.02, 0.0544382, NaN, NaN, NaN, 0.0347922, "- N/A -   "
32.67, 1234.928, 0.0545021, NaN, NaN, NaN, 0.03601294, "- N/A -   "
32.71, 1236.84, 0.05457428, NaN, NaN, NaN, 0.0335714, "- N/A -   "
32.749, 1238.744, 0.0546465, NaN, NaN, NaN, 0.03112983, "- N/A -   "
32.79, 1240.41, 0.0547103, NaN, NaN, NaN, 0.0323506, "- N/A -   "
32.83, 1241.96, 0.05476865, NaN, NaN, NaN, 0.03601294, "- N/A -   "
32.87, 1243.514, 0.05482419, NaN, NaN, NaN, 0.04089605, "- N/A -   "
32.91, 1245.18, 0.0548881, NaN, NaN, NaN, 0.04211683, "- N/A -   "
32.95, 1247.09, 0.05496025, NaN, NaN, NaN, 0.0396753, "- N/A -   "
32.99, 1248.88, 0.05502967, NaN, NaN, NaN, 0.0384545, "- N/A -   "
33.03, 1250.55, 0.05509631, NaN, NaN, NaN, 0.0384545, "- N/A -   "
33.07, 1252.22, 0.0551574, NaN, NaN, NaN, 0.04089605, "- N/A -   "
33.11, 1254.01, 0.055224, NaN, NaN, NaN, 0.04089605, "- N/A -   "
33.15, 1255.797, 0.0552879, NaN, NaN, NaN, 0.04211683, "- N/A -   "
33.19, 1257.59, 0.0553573, NaN, NaN, NaN, 0.04089605, "- N/A -   "
33.23, 1259.61, 0.05542952, NaN, NaN, NaN, 0.0384545, "- N/A -   "
33.27, 1261.64, 0.0555017, NaN, NaN, NaN, 0.03601294, "- N/A -   "
33.31, 1263.31, 0.05557391, NaN, NaN, NaN, 0.0347922, "- N/A -   "
33.35, 1265.1, 0.0556378, NaN, NaN, NaN, 0.0347922, "- N/A -   "
33.39, 1266.89, 0.0557072, NaN, NaN, NaN, 0.0335714, "- N/A -   "
33.43, 1268.68, 0.05577106, NaN, NaN, NaN, 0.0347922, "- N/A -   "
33.47, 1270.465, 0.05584048, NaN, NaN, NaN, 0.0335714, "- N/A -   "
33.51, 1272.25, 0.05590712, NaN, NaN, NaN, 0.0335714, "- N/A -   "
33.55, 1273.8, 0.05596821, NaN, NaN, NaN, 0.03601294, "- N/A -   "
33.59, 1275.35, 0.0560293, NaN, NaN, NaN, 0.0384545, "- N/A -   "
33.63, 1277.02, 0.05609039, NaN, NaN, NaN, 0.04089605, "- N/A -   "
33.67, 1278.81, 0.05615425, NaN, NaN, NaN, 0.04211683, "- N/A -   "
33.71, 1280.36, 0.0562126, NaN, NaN, NaN, 0.04577916, "- N/A -   "
33.75, 1282.15, 0.05628476, NaN, NaN, NaN, 0.0433376, "- N/A -   "
33.79, 1284.179, 0.056357, NaN, NaN, NaN, 0.04089605, "- N/A -   "
33.83, 1286.44, 0.05643748, NaN, NaN, NaN, 0.0347922, "- N/A -   "
33.87, 1288.35, 0.0565097, NaN, NaN, NaN, 0.0323506, "- N/A -   "
33.91, 1290.14, 0.0565791, NaN, NaN, NaN, 0.03112983, "- N/A -   "
33.95, 1291.93, 0.0566485, NaN, NaN, NaN, 0.0299091, "- N/A -   "
33.99, 1293.6, 0.0567152, NaN, NaN, NaN, 0.0299091, "- N/A -   "
34.03, 1295.39, 0.05677902, NaN, NaN, NaN, 0.03112983, "- N/A -   "
34.07, 1297.416, 0.0568512, NaN, NaN, NaN, 0.0286883, "- N/A -   "
34.11, 1299.09, 0.0569179, NaN, NaN, NaN, 0.0286883, "- N/A -   "
34.15, 1300.64, 0.05697895, NaN, NaN, NaN, 0.03112983, "- N/A -   "
34.19, 1302.31, 0.05704004, NaN, NaN, NaN, 0.0335714, "- N/A -   "
34.23, 1303.62, 0.05709557, NaN, NaN, NaN, 0.0384545, "- N/A -   "
34.27, 1305.17, 0.0571483, NaN, NaN, NaN, 0.0445584, "- N/A -   "
34.31, 1306.72, 0.0572094, NaN, NaN, NaN, 0.04699994, "- N/A -   "
34.35, 1308.39, 0.0572733, NaN, NaN, NaN, 0.0482207, "- N/A -   "
34.39, 1310.295, 0.0573455, NaN, NaN, NaN, 0.04577916, "- N/A -   "
34.43, 1312.44, 0.05742323, NaN, NaN, NaN, 0.04089605, "- N/A -   "
34.47, 1314.35, 0.0574954, NaN, NaN, NaN, 0.0384545, "- N/A -   "
34.51, 1316.14, 0.0575621, NaN, NaN, NaN, 0.0384545, "- N/A -   "
34.55, 1317.81, 0.0576287, NaN, NaN, NaN, 0.0384545, "- N/A -   "
34.59, 1319.48, 0.05769535, NaN, NaN, NaN, 0.0384545, "- N/A -   "
34.63, 1321.5, 0.0577675, NaN, NaN, NaN, 0.03601294, "- N/A -   "
34.67, 1323.65, 0.0578425, NaN, NaN, NaN, 0.0323506, "- N/A -   "
34.71, 1325.32, 0.05790916, NaN, NaN, NaN, 0.0323506, "- N/A -   "
34.75, 1327.11, 0.0579758, NaN, NaN, NaN, 0.0323506, "- N/A -   "
34.79, 1329.02, 0.05804522, NaN, NaN, NaN, 0.03112983, "- N/A -   "
34.83, 1330.45, 0.05810631, NaN, NaN, NaN, 0.0335714, "- N/A -   "
34.87, 1331.999, 0.0581618, NaN, NaN, NaN, 0.0384545, "- N/A -   "
34.91, 1333.43, 0.0582202, NaN, NaN, NaN, 0.04211683, "- N/A -   "
34.95, 1335.22, 0.0582868, NaN, NaN, NaN, 0.0433376, "- N/A -   "
34.99, 1337.01, 0.0583562, NaN, NaN, NaN, 0.04089605, "- N/A -   "
35.03, 1338.8, 0.05842564, NaN, NaN, NaN, 0.0396753, "- N/A -   "
35.07, 1340.466, 0.0584895, NaN, NaN, NaN, 0.04089605, "- N/A -   "
35.11, 1342.49, 0.05855892, NaN, NaN, NaN, 0.0396753, "- N/A -   "
35.15, 1344.4, 0.0586311, NaN, NaN, NaN, 0.0372337, "- N/A -   "
35.19, 1346.55, 0.0587089, NaN, NaN, NaN, 0.0323506, "- N/A -   "
35.23, 1348.69, 0.05878939, NaN, NaN, NaN, 0.0262467, "- N/A -   "
35.27, 1350.6, 0.05885603, NaN, NaN, NaN, 0.0262467, "- N/A -   "
35.31, 1352.15, 0.0589227, NaN, NaN, NaN, 0.0274675, "- N/A -   "
35.35, 1353.94, 0.05898654, NaN, NaN, NaN, 0.0286883, "- N/A -   "
35.39, 1355.49, 0.0590449, NaN, NaN, NaN, 0.0323506, "- N/A -   "
35.43, 1357.16, 0.05910594, NaN, NaN, NaN, 0.0347922, "- N/A -   "
35.47, 1358.83, 0.0591726, NaN, NaN, NaN, 0.0347922, "- N/A -   "
35.51, 1360.74, 0.0592392, NaN, NaN, NaN, 0.0347922, "- N/A -   "
35.55, 1362.41, 0.0593059, NaN, NaN, NaN, 0.0347922, "- N/A -   "
35.59, 1363.96, 0.0593642, NaN, NaN, NaN, 0.0384545, "- N/A -   "
35.63, 1365.39, 0.0594225, NaN, NaN, NaN, 0.04211683, "- N/A -   "
35.67, 1367.06, 0.0594836, NaN, NaN, NaN, 0.0445584, "- N/A -   "
35.71, 1368.73, 0.0595447, NaN, NaN, NaN, 0.04699994, "- N/A -   "
35.75, 1370.64, 0.0596169, NaN, NaN, NaN, 0.0445584, "- N/A -   "
35.79, 1372.664, 0.05969183, NaN, NaN, NaN, 0.04089605, "- N/A -   "
35.83, 1374.69, 0.0597696, NaN, NaN, NaN, 0.03601294, "- N/A -   "
35.87, 1376.72, 0.059839, NaN, NaN, NaN, 0.0347922, "- N/A -   "
35.91, 1378.51, 0.05990842, NaN, NaN, NaN, 0.0335714, "- N/A -   "
35.95, 1380.18, 0.05997229, NaN, NaN, NaN, 0.0347922, "- N/A -   "
35.99, 1381.727, 0.0600334, NaN, NaN, NaN, 0.0384545, "- N/A -   "
36.03, 1383.28, 0.0600945, NaN, NaN, NaN, 0.0396753, "- N/A -   "
36.07, 1385.424, 0.06016666, NaN, NaN, NaN, 0.0372337, "- N/A -   "
36.11, 1387.33, 0.06024163, NaN, NaN, NaN, 0.0335714, "- N/A -   "
36.15, 1389.12, 0.0603083, NaN, NaN, NaN, 0.0335714, "- N/A -   "
36.19, 1390.79, 0.06037214, NaN, NaN, NaN, 0.0347922, "- N/A -   "
36.23, 1392.34, 0.0604332, NaN, NaN, NaN, 0.0372337, "- N/A -   "
36.27, 1393.77, 0.06049154, NaN, NaN, NaN, 0.04089605, "- N/A -   "
36.31, 1395.56, 0.0605526, NaN, NaN, NaN, 0.0433376, "- N/A -   "
36.35, 1397.349, 0.0606248, NaN, NaN, NaN, 0.04089605, "- N/A -   "
36.39, 1399.38, 0.06069702, NaN, NaN, NaN, 0.0384545, "- N/A -   "
36.43, 1401.17, 0.06076088, NaN, NaN, NaN, 0.0396753, "- N/A -   "
36.47, 1402.954, 0.0608303, NaN, NaN, NaN, 0.0384545, "- N/A -   "
36.51, 1404.74, 0.0608969, NaN, NaN, NaN, 0.0384545, "- N/A -   "
36.55, 1406.65, 0.0609664, NaN, NaN, NaN, 0.0372337, "- N/A -   "
36.59, 1408.32, 0.0610358, NaN, NaN, NaN, 0.03601294, "- N/A -   "
36.63, 1410.23, 0.0611052, NaN, NaN, NaN, 0.0347922, "- N/A -   "
36.67, 1412.26, 0.0611802, NaN, NaN, NaN, 0.03112983, "- N/A -   "
36.71, 1413.93, 0.06124404, NaN, NaN, NaN, 0.0323506, "- N/A -   "
36.75, 1415.83, 0.0613135, NaN, NaN, NaN, 0.03112983, "- N/A -   "
36.79, 1417.622, 0.0613773, NaN, NaN, NaN, 0.0323506, "- N/A -   "
36.83, 1419.17, 0.06143841, NaN, NaN, NaN, 0.0347922, "- N/A -   "
36.87, 1420.96, 0.06150783, NaN, NaN, NaN, 0.0335714, "- N/A -   "
36.91, 1422.869, 0.06157725, NaN, NaN, NaN, 0.0323506, "- N/A -   "
36.95, 1424.3, 0.06163834, NaN, NaN, NaN, 0.0347922, "- N/A -   "
36.99, 1425.85, 0.0616939, NaN, NaN, NaN, 0.0396753, "- N/A -   "
37.03, 1427.4, 0.06175218, NaN, NaN, NaN, 0.0433376, "- N/A -   "
37.07, 1429.07, 0.06181605, NaN, NaN, NaN, 0.0445584, "- N/A -   "
37.11, 1430.74, 0.0618827, NaN, NaN, NaN, 0.0445584, "- N/A -   "
37.15, 1432.65, 0.06194933, NaN, NaN, NaN, 0.0445584, "- N/A -   "
37.19, 1434.56, 0.0620243, NaN, NaN, NaN, 0.04089605, "- N/A -   "
37.23, 1436.7, 0.0620993, NaN, NaN, NaN, 0.0372337, "- N/A -   "
37.27, 1438.73, 0.0621715, NaN, NaN, NaN, 0.0347922, "- N/A -   "
37.31, 1440.28, 0.0622353, NaN, NaN, NaN, 0.03601294, "- N/A -   "
37.35, 1442.07, 0.062302, NaN, NaN, NaN, 0.03601294, "- N/A -   "
37.39, 1443.86, 0.0623714, NaN, NaN, NaN, 0.0347922, "- N/A -   "
37.43, 1445.77, 0.062438, NaN, NaN, NaN, 0.0347922, "- N/A -   "
37.47, 1447.55, 0.062513, NaN, NaN, NaN, 0.03112983, "- N/A -   "
37.51, 1449.58, 0.0625797, NaN, NaN, NaN, 0.03112983, "- N/A -   "
37.55, 1451.251, 0.0626463, NaN, NaN, NaN, 0.03112983, "- N/A -   "
37.59, 1452.92, 0.06270739, NaN, NaN, NaN, 0.0335714, "- N/A -   "
37.63, 1454.35, 0.0627685, NaN, NaN, NaN, 0.03601294, "- N/A -   "
37.67, 1455.78, 0.06282401, NaN, NaN, NaN, 0.04089605, "- N/A -   "
37.71, 1457.452, 0.0628851, NaN, NaN, NaN, 0.0433376, "- N/A -   "
37.75, 1459.12, 0.0629462, NaN, NaN, NaN, 0.04577916, "- N/A -   "
37.79, 1460.79, 0.06301283, NaN, NaN, NaN, 0.04577916, "- N/A -   "
37.83, 1462.82, 0.0630878, NaN, NaN, NaN, 0.04211683, "- N/A -   "
37.87, 1464.96, 0.06316555, NaN, NaN, NaN, 0.0372337, "- N/A -   "
37.91, 1466.75, 0.06323775, NaN, NaN, NaN, 0.0347922, "- N/A -   "
37.95, 1468.781, 0.0633099, NaN, NaN, NaN, 0.0323506, "- N/A -   "
37.99, 1470.57, 0.06337658, NaN, NaN, NaN, 0.0323506, "- N/A -   "
38.03, 1472.48, 0.063446, NaN, NaN, NaN, 0.03112983, "- N/A -   "
38.07, 1474.39, 0.0635182, NaN, NaN, NaN, 0.0286883, "- N/A -   "
38.11, 1476.17, 0.06358484, NaN, NaN, NaN, 0.0286883, "- N/A -   "
38.15, 1477.84, 0.06365149, NaN, NaN, NaN, 0.0286883, "- N/A -   "
38.19, 1479.39, 0.0637153, NaN, NaN, NaN, 0.0299091, "- N/A -   "
38.23, 1480.94, 0.06377366, NaN, NaN, NaN, 0.0335714, "- N/A -   "
38.27, 1482.495, 0.0638292, NaN, NaN, NaN, 0.0384545, "- N/A -   "
38.31, 1484.05, 0.06389306, NaN, NaN, NaN, 0.0396753, "- N/A -   "
38.35, 1485.6, 0.06395137, NaN, NaN, NaN, 0.0433376, "- N/A -   "
38.39, 1487.38, 0.06401524, NaN, NaN, NaN, 0.0445584, "- N/A -   "
38.43, 1488.93, 0.0640791, NaN, NaN, NaN, 0.04577916, "- N/A -   "
38.47, 1490.84, 0.0641457, NaN, NaN, NaN, 0.04577916, "- N/A -   "
38.51, 1492.63, 0.06421794, NaN, NaN, NaN, 0.0433376, "- N/A -   "
38.55, 1494.66, 0.0642901, NaN, NaN, NaN, 0.04089605, "- N/A -   "
38.59, 1496.57, 0.0643651, NaN, NaN, NaN, 0.0372337, "- N/A -   "
38.63, 1498.83, 0.06444564, NaN, NaN, NaN, 0.03112983, "- N/A -   "
38.67, 1500.74, 0.06451783, NaN, NaN, NaN, 0.0286883, "- N/A -   "
38.71, 1502.41, 0.06458169, NaN, NaN, NaN, 0.0299091, "- N/A -   "
38.75, 1504.08, 0.06464556, NaN, NaN, NaN, 0.03112983, "- N/A -   "
38.79, 1505.63, 0.0647066, NaN, NaN, NaN, 0.0335714, "- N/A -   "
38.83, 1507.538, 0.06476774, NaN, NaN, NaN, 0.03601294, "- N/A -   "
38.87, 1509.21, 0.06483716, NaN, NaN, NaN, 0.0347922, "- N/A -   "
38.91, 1510.877, 0.06490102, NaN, NaN, NaN, 0.03601294, "- N/A -   "
38.95, 1512.785, 0.06496766, NaN, NaN, NaN, 0.03601294, "- N/A -   "
38.99, 1514.45, 0.06503153, NaN, NaN, NaN, 0.0372337, "- N/A -   "
39.03, 1515.77, 0.0650898, NaN, NaN, NaN, 0.04089605, "- N/A -   "
39.07, 1517.44, 0.06514815, NaN, NaN, NaN, 0.0445584, "- N/A -   "
39.11, 1518.87, 0.06520924, NaN, NaN, NaN, 0.04699994, "- N/A -   "
39.15, 1520.77, 0.06527866, NaN, NaN, NaN, 0.04577916, "- N/A -   "
39.19, 1522.92, 0.06535363, NaN, NaN, NaN, 0.04211683, "- N/A -   "
39.23, 1524.95, 0.06543138, NaN, NaN, NaN, 0.0372337, "- N/A -   "
39.27, 1526.976, 0.0655064, NaN, NaN, NaN, 0.0335714, "- N/A -   "
39.31, 1529, 0.06558133, NaN, NaN, NaN, 0.0299091, "- N/A -   "
39.35, 1530.79, 0.06565352, NaN, NaN, NaN, 0.0274675, "- N/A -   "
39.39, 1532.58, 0.0657174, NaN, NaN, NaN, 0.0286883, "- N/A -   "
39.43, 1534.37, 0.06578125, NaN, NaN, NaN, 0.0299091, "- N/A -   "
39.47, 1535.92, 0.06584234, NaN, NaN, NaN, 0.0323506, "- N/A -   "
39.51, 1537.71, 0.0659118, NaN, NaN, NaN, 0.03112983, "- N/A -   "
39.55, 1539.62, 0.0659784, NaN, NaN, NaN, 0.03112983, "- N/A -   "
39.59, 1541.05, 0.06603671, NaN, NaN, NaN, 0.0347922, "- N/A -   "
39.63, 1542.48, 0.066095, NaN, NaN, NaN, 0.0384545, "- N/A -   "
39.67, 1544.15, 0.06615889, NaN, NaN, NaN, 0.0396753, "- N/A -   "
39.71, 1545.82, 0.06621998, NaN, NaN, NaN, 0.04211683, "- N/A -   "
39.75, 1547.61, 0.0662866, NaN, NaN, NaN, 0.04211683, "- N/A -   "
39.79, 1549.4, 0.06635604, NaN, NaN, NaN, 0.04089605, "- N/A -   "
39.83, 1551.065, 0.06641713, NaN, NaN, NaN, 0.0445584, "- N/A -   "
39.87, 1552.85, 0.0664893, NaN, NaN, NaN, 0.04211683, "- N/A -   "
39.91, 1555, 0.0665643, NaN, NaN, NaN, 0.0384545, "- N/A -   "
39.95, 1556.91, 0.0666365, NaN, NaN, NaN, 0.03601294, "- N/A -   "
39.99, 1558.697, 0.06670313, NaN, NaN, NaN, 0.03601294, "- N/A -   "
40.03, 1560.49, 0.06676977, NaN, NaN, NaN, 0.03601294, "- N/A -   "
40.07, 1562.27, 0.0668392, NaN, NaN, NaN, 0.0347922, "- N/A -   "
40.11, 1564.06, 0.06690861, NaN, NaN, NaN, 0.0335714, "- N/A -   "
40.15, 1565.73, 0.06697248, NaN, NaN, NaN, 0.0347922, "- N/A -   "
40.19, 1567.52, 0.0670363, NaN, NaN, NaN, 0.03601294, "- N/A -   "
40.23, 1569.072, 0.06710298, NaN, NaN, NaN, 0.03601294, "- N/A -   "
40.27, 1570.86, 0.06716963, NaN, NaN, NaN, 0.03601294, "- N/A -   "
40.31, 1572.65, 0.067239, NaN, NaN, NaN, 0.0347922, "- N/A -   "
40.35, 1574.44, 0.06730569, NaN, NaN, NaN, 0.0347922, "- N/A -   "
40.39, 1575.99, 0.067364, NaN, NaN, NaN, 0.0384545, "- N/A -   "
40.43, 1577.54, 0.0674279, NaN, NaN, NaN, 0.0396753, "- N/A -   "
40.47, 1579.21, 0.06748895, NaN, NaN, NaN, 0.04211683, "- N/A -   "
40.51, 1580.88, 0.06755282, NaN, NaN, NaN, 0.0433376, "- N/A -   "
40.55, 1582.67, 0.06761946, NaN, NaN, NaN, 0.0433376, "- N/A -   "
40.59, 1584.57, 0.0676889, NaN, NaN, NaN, 0.04211683, "- N/A -   "
40.63, 1586.48, 0.06776385, NaN, NaN, NaN, 0.0384545, "- N/A -   "
40.67, 1588.63, 0.0678416, NaN, NaN, NaN, 0.0335714, "- N/A -   "
40.71, 1590.54, 0.0679138, NaN, NaN, NaN, 0.03112983, "- N/A -   "
40.75, 1592.21, 0.06798044, NaN, NaN, NaN, 0.03112983, "- N/A -   "
40.79, 1594, 0.0680499, NaN, NaN, NaN, 0.03112983, "- N/A -   "
40.83, 1595.55, 0.06811373, NaN, NaN, NaN, 0.03112983, "- N/A -   "
40.87, 1597.57, 0.06818592, NaN, NaN, NaN, 0.0286883, "- N/A -   "
40.91, 1599.48, 0.06825256, NaN, NaN, NaN, 0.0286883, "- N/A -   "
40.95, 1600.91, 0.06831087, NaN, NaN, NaN, 0.0323506, "- N/A -   "
40.99, 1602.46, 0.06837196, NaN, NaN, NaN, 0.0347922, "- N/A -   "
41.03, 1604.01, 0.0684303, NaN, NaN, NaN, 0.0384545, "- N/A -   "
41.07, 1605.44, 0.06849136, NaN, NaN, NaN, 0.04089605, "- N/A -   "
41.11, 1606.994, 0.0685469, NaN, NaN, NaN, 0.04577916, "- N/A -   "
41.15, 1608.54, 0.0686108, NaN, NaN, NaN, 0.04699994, "- N/A -   "
41.19, 1610.21, 0.0686746, NaN, NaN, NaN, 0.0482207, "- N/A -   "
41.23, 1612.12, 0.06874682, NaN, NaN, NaN, 0.04577916, "- N/A -   "
41.27, 1614.15, 0.0688246, NaN, NaN, NaN, 0.04089605, "- N/A -   "
41.31, 1616.18, 0.06889954, NaN, NaN, NaN, 0.0372337, "- N/A -   "
41.35, 1618.08, 0.06897174, NaN, NaN, NaN, 0.0347922, "- N/A -   "
41.39, 1619.87, 0.0690412, NaN, NaN, NaN, 0.0335714, "- N/A -   "
41.43, 1621.662, 0.06911057, NaN, NaN, NaN, 0.0323506, "- N/A -   "
41.47, 1623.45, 0.06918, NaN, NaN, NaN, 0.03112983, "- N/A -   "
41.51, 1625.36, 0.0692494, NaN, NaN, NaN, 0.0299091, "- N/A -   "
41.55, 1627.03, 0.06931328, NaN, NaN, NaN, 0.03112983, "- N/A -   "
41.59, 1628.82, 0.0693827, NaN, NaN, NaN, 0.0299091, "- N/A -   "
41.63, 1630.37, 0.06944656, NaN, NaN, NaN, 0.03112983, "- N/A -   "
41.67, 1631.68, 0.06949932, NaN, NaN, NaN, 0.0372337, "- N/A -   "
41.71, 1633.11, 0.06955763, NaN, NaN, NaN, 0.04089605, "- N/A -   "
41.75, 1634.66, 0.0696187, NaN, NaN, NaN, 0.0433376, "- N/A -   "
41.79, 1636.45, 0.06968259, NaN, NaN, NaN, 0.0445584, "- N/A -   "
41.83, 1638.12, 0.06975201, NaN, NaN, NaN, 0.0433376, "- N/A -   "
41.87, 1639.91, 0.0698214, NaN, NaN, NaN, 0.04211683, "- N/A -   "
41.91, 1641.7, 0.06988529, NaN, NaN, NaN, 0.0433376, "- N/A -   "
41.95, 1643.6, 0.06996027, NaN, NaN, NaN, 0.0396753, "- N/A -   "
41.972, 1644.68, 0.0699991, NaN, NaN, NaN, 0.0396753, "- N/A -   "