File: 2_Tensile_Data/Hamel_ForceTest_Bolt3_Test10.csv
Time, Load (lb), Position (in), AxialStrain (in), TransverseStrain (in), Auxiliary (), Control Out (V), Stress (psi)
0.0, 10.8512, 0.0, NaN, NaN, NaN, -0.007935055, "- N/A -   "
0.01, 10.8512, 0.0, NaN, NaN, NaN, -6.103888E-4, "- N/A -   "
0.02, 10.8512, 0.0, NaN, NaN, NaN, 0.0115974, "- N/A -   "
0.03, 10.8512, 0.0, NaN, NaN, NaN, 0.03112983, "- N/A -   "
0.04, 10.9691, 8.330256E-6, NaN, NaN, NaN, 0.04699994, "- N/A -   "
0.05, 11.205, 1.94373e-05, NaN, NaN, NaN, 0.06164927, "- N/A -   "
0.06, 11.5589, 3.60978e-05, NaN, NaN, NaN, 0.07385705, "- N/A -   "
0.07, 11.9127, 5.83118e-05, NaN, NaN, NaN, 0.084844, "- N/A -   "
0.08, 12.3845, 8.33026e-05, NaN, NaN, NaN, 0.09338949, "- N/A -   "
0.09, 12.8563, 0.00011107, NaN, NaN, NaN, 0.09949338, "- N/A -   "
0.1, 13.446, 0.000141614, NaN, NaN, NaN, 0.103156, "- N/A -   "
0.11, 13.9178, 0.000177712, NaN, NaN, NaN, 0.095831, "- N/A -   "
0.12, 14.3896, 0.000211033, NaN, NaN, NaN, 0.08850638, "- N/A -   "
0.13, 14.8614, 2.360239E-4, NaN, NaN, NaN, 0.08362327, "- N/A -   "
0.14, 15.2152, 0.000266568, NaN, NaN, NaN, 0.07874016, "- N/A -   "
0.15, 15.5691, 0.000288782, NaN, NaN, NaN, 0.0762986, "- N/A -   "
0.16, 15.9229, 0.000308219, NaN, NaN, NaN, 0.07385705, "- N/A -   "
0.17, 16.1588, 0.000330433, NaN, NaN, NaN, 0.07141549, "- N/A -   "
0.18, 16.5126, 0.000349871, NaN, NaN, NaN, 0.0701947, "- N/A -   "
0.19, 16.86649, 0.000372085, NaN, NaN, NaN, 0.0689739, "- N/A -   "
0.2, 17.1024, 0.000388745, NaN, NaN, NaN, 0.06775316, "- N/A -   "
0.21, 17.4562, 0.000410959, NaN, NaN, NaN, 0.06653238, "- N/A -   "
0.22, 17.6921, 4.276198E-4, NaN, NaN, NaN, 0.0653116, "- N/A -   "
0.23, 17.928, 0.000449834, NaN, NaN, NaN, 0.0640908, "- N/A -   "
0.24, 18.2819, 0.000469271, NaN, NaN, NaN, 0.06287005, "- N/A -   "
0.25, 18.5178, 0.000485932, NaN, NaN, NaN, 0.06164927, "- N/A -   "
0.26, 18.7536, 5.053688E-4, NaN, NaN, NaN, 0.0604285, "- N/A -   "
0.27, 19.1075, 5.248061E-4, NaN, NaN, NaN, 0.0592077, "- N/A -   "
0.28, 19.3434, 5.442434E-4, NaN, NaN, NaN, 0.0579869, "- N/A -   "
0.29, 19.57928, 5.636806E-4, NaN, NaN, NaN, 0.05676616, "- N/A -   "
0.3, 19.8152, 5.831179E-4, NaN, NaN, NaN, 0.0555454, "- N/A -   "
0.31, 20.169, 6.053319E-4, NaN, NaN, NaN, 0.0531038, "- N/A -   "
0.32, 20.6408, 0.000627546, NaN, NaN, NaN, 0.05066227, "- N/A -   "
0.33, 20.8767, 0.000646983, NaN, NaN, NaN, 0.0494415, "- N/A -   "
0.34, 21.1126, 0.00066642, NaN, NaN, NaN, 0.0482207, "- N/A -   "
0.35, 21.3485, 0.000688634, NaN, NaN, NaN, 0.04699994, "- N/A -   "
0.36, 21.5844, 0.000705295, NaN, NaN, NaN, 0.04577916, "- N/A -   "
0.37, 21.8203, 0.000724732, NaN, NaN, NaN, 0.04577916, "- N/A -   "
0.38, 22.1741, 0.000744169, NaN, NaN, NaN, 0.0445584, "- N/A -   "
0.39, 22.41, 7.6083E-4, NaN, NaN, NaN, 0.0433376, "- N/A -   "
0.4, 22.6459, 0.000780267, NaN, NaN, NaN, 0.04211683, "- N/A -   "
0.41, 22.9998, 7.997045E-4, NaN, NaN, NaN, 0.04211683, "- N/A -   "
0.42, 23.2357, 8.16365E-4, NaN, NaN, NaN, 0.04089605, "- N/A -   "
0.43, 23.4715, 8.358023E-4, NaN, NaN, NaN, 0.0396753, "- N/A -   "
0.44, 23.7074, 8.552396E-4, NaN, NaN, NaN, 0.0396753, "- N/A -   "
0.45, 23.9433, 0.0008719, NaN, NaN, NaN, 0.0384545, "- N/A -   "
0.46, 24.1792, 8.885606E-4, NaN, NaN, NaN, 0.0384545, "- N/A -   "
0.47, 24.4151, 0.000907998, NaN, NaN, NaN, 0.0384545, "- N/A -   "
0.48, 24.769, 9.246584E-4, NaN, NaN, NaN, 0.0384545, "- N/A -   "
0.49, 25.0049, 0.000941319, NaN, NaN, NaN, 0.0372337, "- N/A -   "
0.5, 25.3587, 0.000960756, NaN, NaN, NaN, 0.03601294, "- N/A -   "
0.51, 25.4767, 9.774166E-4, NaN, NaN, NaN, 0.03601294, "- N/A -   "
0.52, 25.7125, 9.968539E-4, NaN, NaN, NaN, 0.0347922, "- N/A -   "
0.53, 26.0664, 0.00101629, NaN, NaN, NaN, 0.0335714, "- N/A -   "
0.54, 26.18434, 0.00103295, NaN, NaN, NaN, 0.0335714, "- N/A -   "
0.55, 26.5382, 0.00104961, NaN, NaN, NaN, 0.0335714, "- N/A -   "
0.56, 26.7741, 0.00106905, NaN, NaN, NaN, 0.0323506, "- N/A -   "
0.57, 26.892, 0.00108571, NaN, NaN, NaN, 0.0323506, "- N/A -   "
0.58, 27.2459, 0.00110237, NaN, NaN, NaN, 0.0323506, "- N/A -   "
0.59, 27.4818, 0.001119031, NaN, NaN, NaN, 0.0323506, "- N/A -   "
0.6, 27.7177, 0.00113847, NaN, NaN, NaN, 0.03112983, "- N/A -   "
0.61, 27.95355, 0.00115513, NaN, NaN, NaN, 0.03112983, "- N/A -   "
0.62, 28.1894, 0.00117179, NaN, NaN, NaN, 0.03112983, "- N/A -   "
0.63, 28.42534, 0.001185673, NaN, NaN, NaN, 0.0323506, "- N/A -   "
0.64, 28.6612, 0.00120511, NaN, NaN, NaN, 0.0323506, "- N/A -   "
0.65, 28.89713, 0.001218994, NaN, NaN, NaN, 0.0323506, "- N/A -   "
0.66, 29.133, 0.00123565, NaN, NaN, NaN, 0.0323506, "- N/A -   "
0.67, 29.3689, 0.00125232, NaN, NaN, NaN, 0.0335714, "- N/A -   "
0.68, 29.6048, 0.00126898, NaN, NaN, NaN, 0.0335714, "- N/A -   "
0.69, 29.7228, 0.00128286, NaN, NaN, NaN, 0.0335714, "- N/A -   "
0.7, 30.0766, 0.00129952, NaN, NaN, NaN, 0.0335714, "- N/A -   "
0.71, 30.3125, 0.00131618, NaN, NaN, NaN, 0.0335714, "- N/A -   "
0.72, 30.5484, 0.00133006, NaN, NaN, NaN, 0.0347922, "- N/A -   "
0.73, 30.6663, 0.00134395, NaN, NaN, NaN, 0.0372337, "- N/A -   "
0.74, 30.78429, 0.00135783, NaN, NaN, NaN, 0.0384545, "- N/A -   "
0.75, 31.0202, 0.00136894, NaN, NaN, NaN, 0.0396753, "- N/A -   "
0.76, 31.2561, 0.00138282, NaN, NaN, NaN, 0.04089605, "- N/A -   "
0.77, 31.374, 0.00139671, NaN, NaN, NaN, 0.04211683, "- N/A -   "
0.78, 31.72787, 0.00141337, NaN, NaN, NaN, 0.0433376, "- N/A -   "
0.79, 31.9638, 0.00142725, NaN, NaN, NaN, 0.0433376, "- N/A -   "
0.8, 32.3176, 0.001443911, NaN, NaN, NaN, 0.0433376, "- N/A -   "
0.81, 32.5535, 0.00146057, NaN, NaN, NaN, 0.0433376, "- N/A -   "
0.82, 32.67145, 0.001477232, NaN, NaN, NaN, 0.0445584, "- N/A -   "
0.83, 33.02529, 0.00149389, NaN, NaN, NaN, 0.0445584, "- N/A -   "
0.84, 33.2612, 0.001510553, NaN, NaN, NaN, 0.0445584, "- N/A -   "
0.85, 33.61503, 0.00152721, NaN, NaN, NaN, 0.0445584, "- N/A -   "
0.86, 33.8509, 0.001543874, NaN, NaN, NaN, 0.0433376, "- N/A -   "
0.87, 34.2048, 0.00156053, NaN, NaN, NaN, 0.0433376, "- N/A -   "
0.88, 34.4407, 0.001577195, NaN, NaN, NaN, 0.0433376, "- N/A -   "
0.89, 34.6766, 0.00159108, NaN, NaN, NaN, 0.0445584, "- N/A -   "
0.9, 35.0304, 0.00161052, NaN, NaN, NaN, 0.0445584, "- N/A -   "
0.91, 35.2663, 0.0016244, NaN, NaN, NaN, 0.0445584, "- N/A -   "
0.92, 35.50219, 0.00164106, NaN, NaN, NaN, 0.0445584, "- N/A -   "
0.93, 35.97398, 0.00165772, NaN, NaN, NaN, 0.0445584, "- N/A -   "
0.94, 36.2099, 0.00167438, NaN, NaN, NaN, 0.0445584, "- N/A -   "
0.95, 36.5637, 0.00169382, NaN, NaN, NaN, 0.0445584, "- N/A -   "
0.96, 36.79961, 0.00171048, NaN, NaN, NaN, 0.0433376, "- N/A -   "
0.97, 37.0355, 0.00172992, NaN, NaN, NaN, 0.0433376, "- N/A -   "
0.98, 37.5073, 0.00174658, NaN, NaN, NaN, 0.04211683, "- N/A -   "
0.99, 37.8611, 0.00176601, NaN, NaN, NaN, 0.04089605, "- N/A -   "
1, 38.215, 0.00178823, NaN, NaN, NaN, 0.0384545, "- N/A -   "
1.01, 38.5688, 0.00180767, NaN, NaN, NaN, 0.0384545, "- N/A -   "
1.02, 38.9227, 0.00182433, NaN, NaN, NaN, 0.0372337, "- N/A -   "
1.03, 39.2765, 0.00184099, NaN, NaN, NaN, 0.0372337, "- N/A -   "
1.04, 39.3945, 0.00186042, NaN, NaN, NaN, 0.0372337, "- N/A -   "
1.05, 39.8662, 0.00187708, NaN, NaN, NaN, 0.03601294, "- N/A -   "
1.06, 40.22009, 0.00189652, NaN, NaN, NaN, 0.0347922, "- N/A -   "
1.07, 40.456, 0.00191596, NaN, NaN, NaN, 0.0335714, "- N/A -   "
1.08, 40.8098, 0.00193262, NaN, NaN, NaN, 0.0335714, "- N/A -   "
1.09, 41.2816, 0.00195483, NaN, NaN, NaN, 0.03112983, "- N/A -   "
1.1, 41.6355, 0.00197427, NaN, NaN, NaN, 0.0299091, "- N/A -   "
1.11, 41.8714, 0.00199371, NaN, NaN, NaN, 0.0299091, "- N/A -   "
1.12, 42.2252, 0.002013145, NaN, NaN, NaN, 0.0286883, "- N/A -   "
1.13, 42.697, 0.00202981, NaN, NaN, NaN, 0.0274675, "- N/A -   "
1.14, 42.93288, 0.00204924, NaN, NaN, NaN, 0.0262467, "- N/A -   "
1.15, 43.2867, 0.00206868, NaN, NaN, NaN, 0.0262467, "- N/A -   "
1.16, 43.6406, 0.002082564, NaN, NaN, NaN, 0.0262467, "- N/A -   "
1.17, 43.9944, 0.00209922, NaN, NaN, NaN, 0.0262467, "- N/A -   "
1.18, 44.1124, 0.00211588, NaN, NaN, NaN, 0.0262467, "- N/A -   "
1.19, 44.4662, 0.00213255, NaN, NaN, NaN, 0.0274675, "- N/A -   "
1.2, 44.70209, 0.002149206, NaN, NaN, NaN, 0.0274675, "- N/A -   "
1.21, 44.93799, 0.00216309, NaN, NaN, NaN, 0.0286883, "- N/A -   "
1.22, 45.17388, 0.00217697, NaN, NaN, NaN, 0.0286883, "- N/A -   "
1.23, 45.40978, 0.00219086, NaN, NaN, NaN, 0.0299091, "- N/A -   "
1.24, 45.76362, 0.00220752, NaN, NaN, NaN, 0.03112983, "- N/A -   "
1.25, 45.8816, 0.0022214, NaN, NaN, NaN, 0.0323506, "- N/A -   "
1.26, 46.23541, 0.00223529, NaN, NaN, NaN, 0.0323506, "- N/A -   "
1.27, 46.4713, 0.00225195, NaN, NaN, NaN, 0.0323506, "- N/A -   "
1.28, 46.9431, 0.00226583, NaN, NaN, NaN, 0.0335714, "- N/A -   "
1.29, 47.061, 0.00228249, NaN, NaN, NaN, 0.0335714, "- N/A -   "
1.3, 47.4149, 0.00229915, NaN, NaN, NaN, 0.0335714, "- N/A -   "
1.31, 47.7687, 0.00231303, NaN, NaN, NaN, 0.0347922, "- N/A -   "
1.32, 48.00462, 0.00232969, NaN, NaN, NaN, 0.0347922, "- N/A -   "
1.33, 48.2405, 0.00234636, NaN, NaN, NaN, 0.0347922, "- N/A -   "
1.34, 48.59436, 0.002363016, NaN, NaN, NaN, 0.0347922, "- N/A -   "
1.35, 48.83025, 0.00237968, NaN, NaN, NaN, 0.0347922, "- N/A -   "
1.36, 49.1841, 0.00239634, NaN, NaN, NaN, 0.03601294, "- N/A -   "
1.37, 49.5379, 0.00241022, NaN, NaN, NaN, 0.03601294, "- N/A -   "
1.38, 49.7738, 0.00242966, NaN, NaN, NaN, 0.03601294, "- N/A -   "
1.39, 50.1277, 0.00244632, NaN, NaN, NaN, 0.03601294, "- N/A -   "
1.4, 50.4815, 0.00246298, NaN, NaN, NaN, 0.03601294, "- N/A -   "
1.41, 50.7174, 0.00247964, NaN, NaN, NaN, 0.03601294, "- N/A -   "
1.42, 51.0713, 0.002493523, NaN, NaN, NaN, 0.03601294, "- N/A -   "
1.43, 51.4251, 0.00251018, NaN, NaN, NaN, 0.03601294, "- N/A -   "
1.44, 51.66099, 0.00252684, NaN, NaN, NaN, 0.03601294, "- N/A -   "
1.45, 52.01483, 0.0025435, NaN, NaN, NaN, 0.0372337, "- N/A -   "
1.46, 52.1328, 0.00255739, NaN, NaN, NaN, 0.0372337, "- N/A -   "
1.47, 52.6046, 0.00257127, NaN, NaN, NaN, 0.0384545, "- N/A -   "
1.48, 52.72252, 0.00258516, NaN, NaN, NaN, 0.0396753, "- N/A -   "
1.49, 52.9584, 0.00259904, NaN, NaN, NaN, 0.04211683, "- N/A -   "
1.5, 53.19431, 0.00261292, NaN, NaN, NaN, 0.04211683, "- N/A -   "
1.51, 53.54815, 0.00262681, NaN, NaN, NaN, 0.0433376, "- N/A -   "
1.52, 53.784, 0.00264347, NaN, NaN, NaN, 0.0433376, "- N/A -   "
1.53, 54.13789, 0.00266013, NaN, NaN, NaN, 0.0445584, "- N/A -   "
1.54, 54.3738, 0.00267679, NaN, NaN, NaN, 0.0433376, "- N/A -   "
1.55, 54.8456, 0.00269345, NaN, NaN, NaN, 0.0433376, "- N/A -   "
1.56, 55.0815, 0.00271011, NaN, NaN, NaN, 0.0445584, "- N/A -   "
1.57, 55.3174, 0.00272399, NaN, NaN, NaN, 0.0445584, "- N/A -   "
1.58, 55.55326, 0.002743431, NaN, NaN, NaN, 0.0445584, "- N/A -   "
1.59, 55.9071, 0.00276009, NaN, NaN, NaN, 0.0445584, "- N/A -   "
1.6, 56.2609, 0.00277398, NaN, NaN, NaN, 0.0445584, "- N/A -   "
1.61, 56.4968, 0.00279064, NaN, NaN, NaN, 0.0445584, "- N/A -   "
1.62, 56.73273, 0.002807296, NaN, NaN, NaN, 0.0445584, "- N/A -   "
1.63, 57.08658, 0.00282396, NaN, NaN, NaN, 0.0445584, "- N/A -   "
1.64, 57.44042, 0.002843394, NaN, NaN, NaN, 0.0445584, "- N/A -   "
1.65, 57.79426, 0.00286283, NaN, NaN, NaN, 0.0433376, "- N/A -   "
1.66, 58.26605, 0.00287949, NaN, NaN, NaN, 0.04211683, "- N/A -   "
1.67, 58.384, 0.002898929, NaN, NaN, NaN, 0.04089605, "- N/A -   "
1.68, 58.8558, 0.00291837, NaN, NaN, NaN, 0.0396753, "- N/A -   "
1.69, 59.2096, 0.0029378, NaN, NaN, NaN, 0.0396753, "- N/A -   "
1.7, 59.5635, 0.002954464, NaN, NaN, NaN, 0.0384545, "- N/A -   "
1.71, 59.9173, 0.00297668, NaN, NaN, NaN, 0.03601294, "- N/A -   "
1.72, 60.27116, 0.00299334, NaN, NaN, NaN, 0.03601294, "- N/A -   "
1.73, 60.625, 0.003012776, NaN, NaN, NaN, 0.03601294, "- N/A -   "
1.74, 60.97884, 0.003032213, NaN, NaN, NaN, 0.0347922, "- N/A -   "
1.75, 61.3327, 0.00304887, NaN, NaN, NaN, 0.0335714, "- N/A -   "
1.76, 61.6865, 0.003065534, NaN, NaN, NaN, 0.0335714, "- N/A -   "
1.77, 62.0404, 0.00308219, NaN, NaN, NaN, 0.0335714, "- N/A -   "
1.78, 62.2763, 0.003101632, NaN, NaN, NaN, 0.0335714, "- N/A -   "
1.79, 62.7481, 0.00311829, NaN, NaN, NaN, 0.0323506, "- N/A -   "
1.8, 62.98395, 0.00313495, NaN, NaN, NaN, 0.0323506, "- N/A -   "
1.81, 63.2198, 0.00315161, NaN, NaN, NaN, 0.0323506, "- N/A -   "
1.82, 63.45574, 0.003168274, NaN, NaN, NaN, 0.0335714, "- N/A -   "
1.83, 63.80958, 0.00318493, NaN, NaN, NaN, 0.0335714, "- N/A -   "
1.84, 64.28137, 0.003201595, NaN, NaN, NaN, 0.0335714, "- N/A -   "
1.85, 64.5173, 0.00321548, NaN, NaN, NaN, 0.0335714, "- N/A -   "
1.86, 64.75317, 0.00323214, NaN, NaN, NaN, 0.0347922, "- N/A -   "
1.87, 65.107, 0.003246023, NaN, NaN, NaN, 0.0347922, "- N/A -   "
1.88, 65.3429, 0.00326268, NaN, NaN, NaN, 0.03601294, "- N/A -   "
1.89, 65.69674, 0.00327657, NaN, NaN, NaN, 0.03601294, "- N/A -   "
1.9, 65.93263, 0.00329045, NaN, NaN, NaN, 0.0372337, "- N/A -   "
1.91, 66.16853, 0.00330433, NaN, NaN, NaN, 0.0384545, "- N/A -   "
1.92, 66.52237, 0.003321, NaN, NaN, NaN, 0.0384545, "- N/A -   "
1.93, 66.87622, 0.00333766, NaN, NaN, NaN, 0.0384545, "- N/A -   "
1.94, 67.1121, 0.003354316, NaN, NaN, NaN, 0.0384545, "- N/A -   "
1.95, 67.46596, 0.00337375, NaN, NaN, NaN, 0.0372337, "- N/A -   "
1.96, 67.81979, 0.00339041, NaN, NaN, NaN, 0.0372337, "- N/A -   "
1.97, 68.17364, 0.003409851, NaN, NaN, NaN, 0.0372337, "- N/A -   "
1.98, 68.6454, 0.00342929, NaN, NaN, NaN, 0.03601294, "- N/A -   "
1.99, 68.9993, 0.00344873, NaN, NaN, NaN, 0.0347922, "- N/A -   "
2, 69.35311, 0.00346539, NaN, NaN, NaN, 0.0335714, "- N/A -   "
2.01, 69.8249, 0.00348205, NaN, NaN, NaN, 0.0335714, "- N/A -   "
2.02, 69.94285, 0.00349871, NaN, NaN, NaN, 0.0335714, "- N/A -   "
2.03, 70.41464, 0.00351537, NaN, NaN, NaN, 0.0335714, "- N/A -   "
2.04, 70.6505, 0.00353203, NaN, NaN, NaN, 0.0335714, "- N/A -   "
2.05, 71.00438, 0.00355147, NaN, NaN, NaN, 0.0335714, "- N/A -   "
2.06, 71.24027, 0.00356535, NaN, NaN, NaN, 0.0335714, "- N/A -   "
2.07, 71.59412, 0.00358201, NaN, NaN, NaN, 0.0335714, "- N/A -   "
2.08, 71.94796, 0.00359867, NaN, NaN, NaN, 0.0335714, "- N/A -   "
2.09, 72.1838, 0.003615331, NaN, NaN, NaN, 0.0335714, "- N/A -   "
2.1, 72.5377, 0.00362921, NaN, NaN, NaN, 0.0347922, "- N/A -   "
2.11, 72.77359, 0.00364588, NaN, NaN, NaN, 0.03601294, "- N/A -   "
2.12, 73.12743, 0.003659759, NaN, NaN, NaN, 0.03601294, "- N/A -   "
2.13, 73.48127, 0.00367364, NaN, NaN, NaN, 0.0372337, "- N/A -   "
2.14, 73.71717, 0.0036903, NaN, NaN, NaN, 0.0372337, "- N/A -   "
2.15, 73.9531, 0.003704187, NaN, NaN, NaN, 0.0384545, "- N/A -   "
2.16, 74.189, 0.003718071, NaN, NaN, NaN, 0.0396753, "- N/A -   "
2.17, 74.42485, 0.00373195, NaN, NaN, NaN, 0.04089605, "- N/A -   "
2.18, 74.8966, 0.003748615, NaN, NaN, NaN, 0.04089605, "- N/A -   "
2.19, 75.13254, 0.00376528, NaN, NaN, NaN, 0.04089605, "- N/A -   "
2.2, 75.48638, 0.003781936, NaN, NaN, NaN, 0.04211683, "- N/A -   "
2.21, 75.7223, 0.0037986, NaN, NaN, NaN, 0.04211683, "- N/A -   "
2.22, 76.31202, 0.003815257, NaN, NaN, NaN, 0.04089605, "- N/A -   "
2.23, 76.5479, 0.00383469, NaN, NaN, NaN, 0.04089605, "- N/A -   "
2.24, 77.0197, 0.00385135, NaN, NaN, NaN, 0.04089605, "- N/A -   "
2.25, 77.37354, 0.00386802, NaN, NaN, NaN, 0.0396753, "- N/A -   "
2.26, 77.72738, 0.00388745, NaN, NaN, NaN, 0.0396753, "- N/A -   "
2.27, 78.08122, 0.003904113, NaN, NaN, NaN, 0.0384545, "- N/A -   "
2.28, 78.4351, 0.003917997, NaN, NaN, NaN, 0.0396753, "- N/A -   "
2.29, 78.67096, 0.00393466, NaN, NaN, NaN, 0.0396753, "- N/A -   "
2.3, 79.0248, 0.003951318, NaN, NaN, NaN, 0.0396753, "- N/A -   "
2.31, 79.37865, 0.00396798, NaN, NaN, NaN, 0.0396753, "- N/A -   "
2.32, 79.73249, 0.00398742, NaN, NaN, NaN, 0.0384545, "- N/A -   "
2.33, 80.0863, 0.004004076, NaN, NaN, NaN, 0.0384545, "- N/A -   "
2.34, 80.44018, 0.00402629, NaN, NaN, NaN, 0.0372337, "- N/A -   "
2.35, 80.794, 0.00404295, NaN, NaN, NaN, 0.03601294, "- N/A -   "
2.36, 81.26581, 0.004062388, NaN, NaN, NaN, 0.0347922, "- N/A -   "
2.37, 81.61965, 0.00408183, NaN, NaN, NaN, 0.0347922, "- N/A -   "
2.38, 82.09144, 0.00409849, NaN, NaN, NaN, 0.0335714, "- N/A -   "
2.39, 82.32734, 0.004115146, NaN, NaN, NaN, 0.0335714, "- N/A -   "
2.4, 82.68118, 0.00413181, NaN, NaN, NaN, 0.0335714, "- N/A -   "
2.41, 83.15297, 0.004148467, NaN, NaN, NaN, 0.0335714, "- N/A -   "
2.42, 83.27091, 0.0041679, NaN, NaN, NaN, 0.0335714, "- N/A -   "
2.43, 83.6248, 0.00418179, NaN, NaN, NaN, 0.0335714, "- N/A -   "
2.44, 83.9786, 0.00420123, NaN, NaN, NaN, 0.0335714, "- N/A -   "
2.45, 84.33244, 0.004215109, NaN, NaN, NaN, 0.0335714, "- N/A -   "
2.46, 84.68629, 0.004234547, NaN, NaN, NaN, 0.0335714, "- N/A -   "
2.47, 84.92217, 0.00424843, NaN, NaN, NaN, 0.0335714, "- N/A -   "
2.48, 85.276, 0.004265091, NaN, NaN, NaN, 0.0335714, "- N/A -   "
2.49, 85.51192, 0.00428175, NaN, NaN, NaN, 0.0347922, "- N/A -   "
2.5, 85.86576, 0.004298412, NaN, NaN, NaN, 0.0347922, "- N/A -   "
2.51, 86.33755, 0.004315072, NaN, NaN, NaN, 0.0347922, "- N/A -   "
2.52, 86.4555, 0.00433173, NaN, NaN, NaN, 0.0335714, "- N/A -   "
2.53, 86.92729, 0.00435117, NaN, NaN, NaN, 0.0335714, "- N/A -   "
2.54, 87.28113, 0.004365054, NaN, NaN, NaN, 0.0335714, "- N/A -   "
2.55, 87.63497, 0.004384491, NaN, NaN, NaN, 0.0323506, "- N/A -   "
2.56, 87.9888, 0.00440393, NaN, NaN, NaN, 0.03112983, "- N/A -   "
2.57, 88.34265, 0.00442059, NaN, NaN, NaN, 0.03112983, "- N/A -   "
2.58, 88.6965, 0.00444003, NaN, NaN, NaN, 0.03112983, "- N/A -   "
2.59, 89.05035, 0.00445391, NaN, NaN, NaN, 0.03112983, "- N/A -   "
2.6, 89.40418, 0.00447057, NaN, NaN, NaN, 0.03112983, "- N/A -   "
2.61, 89.6401, 0.004484454, NaN, NaN, NaN, 0.0323506, "- N/A -   "
2.62, 89.87598, 0.00450111, NaN, NaN, NaN, 0.0323506, "- N/A -   "
2.63, 90.34776, 0.004515, NaN, NaN, NaN, 0.0335714, "- N/A -   "
2.64, 90.58366, 0.004531659, NaN, NaN, NaN, 0.0347922, "- N/A -   "
2.65, 90.81956, 0.004545543, NaN, NaN, NaN, 0.0347922, "- N/A -   "
2.66, 91.1734, 0.0045622, NaN, NaN, NaN, 0.0347922, "- N/A -   "
2.67, 91.40929, 0.00457886, NaN, NaN, NaN, 0.0347922, "- N/A -   "
2.68, 91.76313, 0.004595524, NaN, NaN, NaN, 0.03601294, "- N/A -   "
2.69, 92.117, 0.004609408, NaN, NaN, NaN, 0.03601294, "- N/A -   "
2.7, 92.58876, 0.00462885, NaN, NaN, NaN, 0.03601294, "- N/A -   "
2.71, 92.82466, 0.004645506, NaN, NaN, NaN, 0.03601294, "- N/A -   "
2.72, 93.1785, 0.00466217, NaN, NaN, NaN, 0.03601294, "- N/A -   "
2.73, 93.53234, 0.00467605, NaN, NaN, NaN, 0.03601294, "- N/A -   "
2.74, 93.8862, 0.00469549, NaN, NaN, NaN, 0.0347922, "- N/A -   "
2.75, 94.24, 0.00471492, NaN, NaN, NaN, 0.0347922, "- N/A -   "
2.76, 94.59387, 0.00473159, NaN, NaN, NaN, 0.0335714, "- N/A -   "
2.77, 94.9477, 0.00474825, NaN, NaN, NaN, 0.0335714, "- N/A -   "
2.78, 95.30156, 0.004767683, NaN, NaN, NaN, 0.0335714, "- N/A -   "
2.79, 95.5374, 0.00478434, NaN, NaN, NaN, 0.0335714, "- N/A -   "
2.8, 95.8913, 0.004801004, NaN, NaN, NaN, 0.0323506, "- N/A -   "
2.81, 96.24514, 0.00481766, NaN, NaN, NaN, 0.0335714, "- N/A -   "
2.82, 96.481, 0.00483155, NaN, NaN, NaN, 0.0335714, "- N/A -   "
2.83, 96.83487, 0.004845432, NaN, NaN, NaN, 0.0347922, "- N/A -   "
2.84, 97.07077, 0.004859315, NaN, NaN, NaN, 0.03601294, "- N/A -   "
2.85, 97.4246, 0.004875976, NaN, NaN, NaN, 0.0372337, "- N/A -   "
2.86, 97.77845, 0.00488986, NaN, NaN, NaN, 0.0372337, "- N/A -   "
2.87, 98.01435, 0.00490652, NaN, NaN, NaN, 0.0384545, "- N/A -   "
2.88, 98.3682, 0.004920405, NaN, NaN, NaN, 0.0384545, "- N/A -   "
2.89, 98.60408, 0.004937065, NaN, NaN, NaN, 0.0384545, "- N/A -   "
2.9, 98.9579, 0.00495373, NaN, NaN, NaN, 0.0384545, "- N/A -   "
2.91, 99.1938, 0.004970385, NaN, NaN, NaN, 0.0384545, "- N/A -   "
2.92, 99.54767, 0.00498427, NaN, NaN, NaN, 0.0396753, "- N/A -   "
2.93, 99.9015, 0.00500093, NaN, NaN, NaN, 0.0396753, "- N/A -   "
2.94, 100.137, 0.00501481, NaN, NaN, NaN, 0.04089605, "- N/A -   "
2.95, 100.491, 0.005031475, NaN, NaN, NaN, 0.04089605, "- N/A -   "
2.96, 100.845, 0.00504814, NaN, NaN, NaN, 0.04089605, "- N/A -   "
2.97, 101.199, 0.0050648, NaN, NaN, NaN, 0.04089605, "- N/A -   "
2.98, 101.435, 0.00508146, NaN, NaN, NaN, 0.04089605, "- N/A -   "
2.99, 101.789, 0.005098117, NaN, NaN, NaN, 0.04211683, "- N/A -   "
3, 102.143, 0.00510922, NaN, NaN, NaN, 0.0433376, "- N/A -   "
3.01, 102.496, 0.005128661, NaN, NaN, NaN, 0.04211683, "- N/A -   "
3.02, 102.732, 0.005145321, NaN, NaN, NaN, 0.04211683, "- N/A -   "
3.03, 103.086, 0.00516198, NaN, NaN, NaN, 0.0433376, "- N/A -   "
3.04, 103.558, 0.00517864, NaN, NaN, NaN, 0.0433376, "- N/A -   "
3.05, 103.794, 0.005195303, NaN, NaN, NaN, 0.04211683, "- N/A -   "
3.06, 104.266, 0.00521196, NaN, NaN, NaN, 0.04211683, "- N/A -   "
3.07, 104.501, 0.00522862, NaN, NaN, NaN, 0.04211683, "- N/A -   "
3.08, 104.855, 0.00524528, NaN, NaN, NaN, 0.04211683, "- N/A -   "
3.09, 105.209, 0.00526472, NaN, NaN, NaN, 0.04089605, "- N/A -   "
3.1, 105.563, 0.005284159, NaN, NaN, NaN, 0.04089605, "- N/A -   "
3.11, 105.917, 0.0053036, NaN, NaN, NaN, 0.0384545, "- N/A -   "
3.12, 106.271, 0.00532303, NaN, NaN, NaN, 0.0372337, "- N/A -   "
3.13, 106.742, 0.005342471, NaN, NaN, NaN, 0.03601294, "- N/A -   "
3.14, 107.214, 0.00536191, NaN, NaN, NaN, 0.03601294, "- N/A -   "
3.15, 107.686, 0.00538135, NaN, NaN, NaN, 0.0335714, "- N/A -   "
3.16, 107.922, 0.00539801, NaN, NaN, NaN, 0.0335714, "- N/A -   "
3.17, 108.276, 0.00541744, NaN, NaN, NaN, 0.0335714, "- N/A -   "
3.18, 108.63, 0.0054341, NaN, NaN, NaN, 0.0323506, "- N/A -   "
3.19, 108.983, 0.00545076, NaN, NaN, NaN, 0.0323506, "- N/A -   "
3.2, 109.3373, 0.00546742, NaN, NaN, NaN, 0.0323506, "- N/A -   "
3.21, 109.5732, 0.005484085, NaN, NaN, NaN, 0.0335714, "- N/A -   "
3.22, 109.8091, 0.00550075, NaN, NaN, NaN, 0.0335714, "- N/A -   "
3.23, 110.163, 0.005517406, NaN, NaN, NaN, 0.0335714, "- N/A -   "
3.24, 110.635, 0.00553129, NaN, NaN, NaN, 0.0335714, "- N/A -   "
3.25, 110.753, 0.00554517, NaN, NaN, NaN, 0.0347922, "- N/A -   "
3.26, 111.107, 0.00556183, NaN, NaN, NaN, 0.0347922, "- N/A -   "
3.27, 111.46, 0.005578494, NaN, NaN, NaN, 0.0347922, "- N/A -   "
3.28, 111.696, 0.00559516, NaN, NaN, NaN, 0.03601294, "- N/A -   "
3.29, 112.0501, 0.005609039, NaN, NaN, NaN, 0.03601294, "- N/A -   "
3.3, 112.286, 0.0056257, NaN, NaN, NaN, 0.03601294, "- N/A -   "
3.31, 112.64, 0.00564236, NaN, NaN, NaN, 0.03601294, "- N/A -   "
3.32, 113.112, 0.0056618, NaN, NaN, NaN, 0.03601294, "- N/A -   "
3.33, 113.465, 0.00567846, NaN, NaN, NaN, 0.0347922, "- N/A -   "
3.34, 113.819, 0.0056979, NaN, NaN, NaN, 0.0335714, "- N/A -   "
3.35, 114.173, 0.005717332, NaN, NaN, NaN, 0.0323506, "- N/A -   "
3.36, 114.645, 0.00573677, NaN, NaN, NaN, 0.0323506, "- N/A -   "
3.37, 114.999, 0.00575343, NaN, NaN, NaN, 0.03112983, "- N/A -   "
3.38, 115.353, 0.00577287, NaN, NaN, NaN, 0.03112983, "- N/A -   "
3.39, 115.706, 0.00578953, NaN, NaN, NaN, 0.0299091, "- N/A -   "
3.4, 116.06, 0.00580897, NaN, NaN, NaN, 0.0286883, "- N/A -   "
3.41, 116.414, 0.00582563, NaN, NaN, NaN, 0.0286883, "- N/A -   "
3.42, 116.768, 0.00584229, NaN, NaN, NaN, 0.0299091, "- N/A -   "
3.43, 117.004, 0.00585617, NaN, NaN, NaN, 0.03112983, "- N/A -   "
3.44, 117.358, 0.00587005, NaN, NaN, NaN, 0.03112983, "- N/A -   "
3.45, 117.594, 0.005886714, NaN, NaN, NaN, 0.03112983, "- N/A -   "
3.46, 117.947, 0.005903374, NaN, NaN, NaN, 0.03112983, "- N/A -   "
3.47, 118.183, 0.005917258, NaN, NaN, NaN, 0.0323506, "- N/A -   "
3.48, 118.537, 0.005933918, NaN, NaN, NaN, 0.0323506, "- N/A -   "
3.49, 118.7731, 0.005947802, NaN, NaN, NaN, 0.0335714, "- N/A -   "
3.5, 119.009, 0.005961686, NaN, NaN, NaN, 0.03601294, "- N/A -   "
3.51, 119.245, 0.00597557, NaN, NaN, NaN, 0.0372337, "- N/A -   "
3.52, 119.481, 0.00598668, NaN, NaN, NaN, 0.0384545, "- N/A -   "
3.53, 119.717, 0.006003338, NaN, NaN, NaN, 0.0396753, "- N/A -   "
3.54, 120.071, 0.00601722, NaN, NaN, NaN, 0.04089605, "- N/A -   "
3.55, 120.306, 0.006028328, NaN, NaN, NaN, 0.04211683, "- N/A -   "
3.56, 120.66, 0.006044988, NaN, NaN, NaN, 0.0433376, "- N/A -   "
3.57, 121.014, 0.006056096, NaN, NaN, NaN, 0.0445584, "- N/A -   "
3.58, 121.25, 0.006072756, NaN, NaN, NaN, 0.0445584, "- N/A -   "
3.59, 121.604, 0.00608664, NaN, NaN, NaN, 0.04577916, "- N/A -   "
3.6, 121.958, 0.0061033, NaN, NaN, NaN, 0.04577916, "- N/A -   "
3.61, 122.194, 0.00611996, NaN, NaN, NaN, 0.04577916, "- N/A -   "
3.62, 122.547, 0.006136622, NaN, NaN, NaN, 0.04699994, "- N/A -   "
3.63, 123.019, 0.00615606, NaN, NaN, NaN, 0.04699994, "- N/A -   "
3.64, 123.255, 0.00617272, NaN, NaN, NaN, 0.04699994, "- N/A -   "
3.65, 123.491, 0.00618938, NaN, NaN, NaN, 0.04699994, "- N/A -   "
3.66, 123.963, 0.006203264, NaN, NaN, NaN, 0.04699994, "- N/A -   "
3.67, 124.317, 0.0062227, NaN, NaN, NaN, 0.04577916, "- N/A -   "
3.68, 124.553, 0.00623936, NaN, NaN, NaN, 0.04577916, "- N/A -   "
3.69, 125.024, 0.0062588, NaN, NaN, NaN, 0.0445584, "- N/A -   "
3.7, 125.496, 0.006278236, NaN, NaN, NaN, 0.0433376, "- N/A -   "
3.71, 125.85, 0.00629767, NaN, NaN, NaN, 0.04211683, "- N/A -   "
3.72, 126.204, 0.00631711, NaN, NaN, NaN, 0.04211683, "- N/A -   "
3.73, 126.558, 0.006336548, NaN, NaN, NaN, 0.04089605, "- N/A -   "
3.74, 127.029, 0.00635598, NaN, NaN, NaN, 0.0396753, "- N/A -   "
3.75, 127.383, 0.006372646, NaN, NaN, NaN, 0.0384545, "- N/A -   "
3.76, 127.855, 0.00639486, NaN, NaN, NaN, 0.0372337, "- N/A -   "
3.77, 128.091, 0.00641152, NaN, NaN, NaN, 0.03601294, "- N/A -   "
3.78, 128.563, 0.006430958, NaN, NaN, NaN, 0.0347922, "- N/A -   "
3.79, 128.917, 0.006447618, NaN, NaN, NaN, 0.0347922, "- N/A -   "
3.8, 129.27, 0.00646705, NaN, NaN, NaN, 0.0335714, "- N/A -   "
3.81, 129.624, 0.006483716, NaN, NaN, NaN, 0.0335714, "- N/A -   "
3.82, 129.978, 0.00650315, NaN, NaN, NaN, 0.0335714, "- N/A -   "
3.83, 130.332, 0.006519814, NaN, NaN, NaN, 0.0323506, "- N/A -   "
3.84, 130.568, 0.006536474, NaN, NaN, NaN, 0.0323506, "- N/A -   "
3.85, 131.04, 0.00655313, NaN, NaN, NaN, 0.0323506, "- N/A -   "
3.86, 131.276, 0.00656979, NaN, NaN, NaN, 0.0323506, "- N/A -   "
3.87, 131.629, 0.00658368, NaN, NaN, NaN, 0.0335714, "- N/A -   "
3.88, 131.865, 0.00660034, NaN, NaN, NaN, 0.0335714, "- N/A -   "
3.89, 132.219, 0.006619776, NaN, NaN, NaN, 0.0323506, "- N/A -   "
3.9, 132.6909, 0.006639214, NaN, NaN, NaN, 0.0323506, "- N/A -   "
3.91, 133.045, 0.00665865, NaN, NaN, NaN, 0.03112983, "- N/A -   "
3.92, 133.399, 0.006678088, NaN, NaN, NaN, 0.0299091, "- N/A -   "
3.93, 133.752, 0.00669475, NaN, NaN, NaN, 0.0286883, "- N/A -   "
3.94, 134.224, 0.006714186, NaN, NaN, NaN, 0.0286883, "- N/A -   "
3.95, 134.46, 0.00673085, NaN, NaN, NaN, 0.0274675, "- N/A -   "
3.96, 134.814, 0.00674751, NaN, NaN, NaN, 0.0274675, "- N/A -   "
3.97, 135.05, 0.006764168, NaN, NaN, NaN, 0.0274675, "- N/A -   "
3.98, 135.522, 0.00678083, NaN, NaN, NaN, 0.0274675, "- N/A -   "
3.99, 135.758, 0.00679749, NaN, NaN, NaN, 0.0286883, "- N/A -   "
4, 136.229, 0.00681415, NaN, NaN, NaN, 0.0286883, "- N/A -   "
4.01, 136.465, 0.00682803, NaN, NaN, NaN, 0.0286883, "- N/A -   "
4.02, 136.583, 0.00684192, NaN, NaN, NaN, 0.0299091, "- N/A -   "
4.03, 137.055, 0.00685858, NaN, NaN, NaN, 0.0299091, "- N/A -   "
4.04, 137.173, 0.00687246, NaN, NaN, NaN, 0.03112983, "- N/A -   "
4.05, 137.527, 0.006889122, NaN, NaN, NaN, 0.0323506, "- N/A -   "
4.06, 137.8806, 0.006903005, NaN, NaN, NaN, 0.0323506, "- N/A -   "
4.07, 138.234, 0.006919666, NaN, NaN, NaN, 0.0323506, "- N/A -   "
4.08, 138.47, 0.006936326, NaN, NaN, NaN, 0.0323506, "- N/A -   "
4.09, 138.824, 0.00695299, NaN, NaN, NaN, 0.0323506, "- N/A -   "
4.1, 139.178, 0.00696687, NaN, NaN, NaN, 0.0335714, "- N/A -   "
4.11, 139.532, 0.00698353, NaN, NaN, NaN, 0.0347922, "- N/A -   "
4.12, 139.65, 0.006994638, NaN, NaN, NaN, 0.03601294, "- N/A -   "
4.13, 140.004, 0.0070113, NaN, NaN, NaN, 0.0372337, "- N/A -   "
4.14, 140.24, 0.00702518, NaN, NaN, NaN, 0.0372337, "- N/A -   "
4.15, 140.711, 0.00703907, NaN, NaN, NaN, 0.0384545, "- N/A -   "
4.16, 140.829, 0.00705295, NaN, NaN, NaN, 0.0396753, "- N/A -   "
4.17, 141.065, 0.00706961, NaN, NaN, NaN, 0.0396753, "- N/A -   "
4.18, 141.301, 0.007083494, NaN, NaN, NaN, 0.04089605, "- N/A -   "
4.19, 141.537, 0.00709738, NaN, NaN, NaN, 0.04211683, "- N/A -   "
4.2, 142.009, 0.00711404, NaN, NaN, NaN, 0.0433376, "- N/A -   "
4.21, 142.245, 0.00712792, NaN, NaN, NaN, 0.0433376, "- N/A -   "
4.22, 142.481, 0.00714458, NaN, NaN, NaN, 0.0445584, "- N/A -   "
4.23, 142.8344, 0.00715847, NaN, NaN, NaN, 0.0445584, "- N/A -   "
4.24, 143.07, 0.00717513, NaN, NaN, NaN, 0.0445584, "- N/A -   "
4.25, 143.424, 0.00718901, NaN, NaN, NaN, 0.04577916, "- N/A -   "
4.26, 143.778, 0.00720567, NaN, NaN, NaN, 0.04577916, "- N/A -   "
4.27, 144.132, 0.007222332, NaN, NaN, NaN, 0.04577916, "- N/A -   "
4.28, 144.486, 0.00724177, NaN, NaN, NaN, 0.04577916, "- N/A -   "
4.29, 144.8395, 0.00725843, NaN, NaN, NaN, 0.04577916, "- N/A -   "
4.3, 145.0754, 0.00727509, NaN, NaN, NaN, 0.04577916, "- N/A -   "
4.31, 145.547, 0.00729175, NaN, NaN, NaN, 0.04577916, "- N/A -   "
4.32, 145.783, 0.007308411, NaN, NaN, NaN, 0.0445584, "- N/A -   "
4.33, 146.137, 0.007325071, NaN, NaN, NaN, 0.0445584, "- N/A -   "
4.34, 146.3728, 0.007338955, NaN, NaN, NaN, 0.04577916, "- N/A -   "
4.35, 146.6087, 0.00735562, NaN, NaN, NaN, 0.04699994, "- N/A -   "
4.36, 146.963, 0.007369499, NaN, NaN, NaN, 0.04699994, "- N/A -   "
4.37, 147.316, 0.007388937, NaN, NaN, NaN, 0.04699994, "- N/A -   "
4.38, 147.67, 0.00740837, NaN, NaN, NaN, 0.04577916, "- N/A -   "
4.39, 148.024, 0.00742503, NaN, NaN, NaN, 0.0445584, "- N/A -   "
4.4, 148.496, 0.007441695, NaN, NaN, NaN, 0.0445584, "- N/A -   "
4.41, 148.8497, 0.00746113, NaN, NaN, NaN, 0.0433376, "- N/A -   "
4.42, 149.204, 0.007477793, NaN, NaN, NaN, 0.0433376, "- N/A -   "
4.43, 149.557, 0.00749723, NaN, NaN, NaN, 0.04211683, "- N/A -   "
4.44, 149.793, 0.00751389, NaN, NaN, NaN, 0.04211683, "- N/A -   "
4.45, 150.265, 0.00753333, NaN, NaN, NaN, 0.04089605, "- N/A -   "
4.46, 150.501, 0.00755554, NaN, NaN, NaN, 0.0396753, "- N/A -   "
4.47, 150.973, 0.00757498, NaN, NaN, NaN, 0.0384545, "- N/A -   "
4.48, 151.327, 0.007594417, NaN, NaN, NaN, 0.0372337, "- N/A -   "
4.49, 151.68, 0.007613853, NaN, NaN, NaN, 0.03601294, "- N/A -   "
4.5, 152.152, 0.00763329, NaN, NaN, NaN, 0.0335714, "- N/A -   "
4.51, 152.506, 0.00765273, NaN, NaN, NaN, 0.0323506, "- N/A -   "
4.52, 152.86, 0.007672165, NaN, NaN, NaN, 0.0323506, "- N/A -   "
4.53, 153.214, 0.00768883, NaN, NaN, NaN, 0.03112983, "- N/A -   "
4.54, 153.45, 0.007708263, NaN, NaN, NaN, 0.0299091, "- N/A -   "
4.55, 153.8035, 0.007724923, NaN, NaN, NaN, 0.0299091, "- N/A -   "
4.56, 154.0394, 0.00774158, NaN, NaN, NaN, 0.0299091, "- N/A -   "
4.57, 154.2753, 0.007758245, NaN, NaN, NaN, 0.03112983, "- N/A -   "
4.58, 154.629, 0.00777491, NaN, NaN, NaN, 0.03112983, "- N/A -   "
4.59, 154.983, 0.00779157, NaN, NaN, NaN, 0.03112983, "- N/A -   "
4.6, 155.219, 0.00780823, NaN, NaN, NaN, 0.03112983, "- N/A -   "
4.61, 155.573, 0.00782211, NaN, NaN, NaN, 0.03112983, "- N/A -   "
4.62, 155.927, 0.007838771, NaN, NaN, NaN, 0.03112983, "- N/A -   "
4.63, 156.162, 0.007855431, NaN, NaN, NaN, 0.03112983, "- N/A -   "
4.64, 156.5163, 0.007872092, NaN, NaN, NaN, 0.0323506, "- N/A -   "
4.65, 156.752, 0.007885975, NaN, NaN, NaN, 0.0323506, "- N/A -   "
4.66, 156.988, 0.007902635, NaN, NaN, NaN, 0.0323506, "- N/A -   "
4.67, 157.342, 0.007919297, NaN, NaN, NaN, 0.0323506, "- N/A -   "
4.68, 157.578, 0.007935957, NaN, NaN, NaN, 0.0335714, "- N/A -   "
4.69, 157.696, 0.007949841, NaN, NaN, NaN, 0.0335714, "- N/A -   "
4.7, 158.0496, 0.007963724, NaN, NaN, NaN, 0.0347922, "- N/A -   "
4.71, 158.521, 0.007980385, NaN, NaN, NaN, 0.0347922, "- N/A -   "
4.72, 158.639, 0.007997045, NaN, NaN, NaN, 0.03601294, "- N/A -   "
4.73, 158.875, 0.008010929, NaN, NaN, NaN, 0.03601294, "- N/A -   "
4.74, 159.229, 0.008027589, NaN, NaN, NaN, 0.03601294, "- N/A -   "
4.75, 159.583, 0.00804425, NaN, NaN, NaN, 0.03601294, "- N/A -   "
4.76, 159.937, 0.008060911, NaN, NaN, NaN, 0.03601294, "- N/A -   "
4.77, 160.055, 0.008077571, NaN, NaN, NaN, 0.03601294, "- N/A -   "
4.78, 160.409, 0.008094232, NaN, NaN, NaN, 0.0372337, "- N/A -   "
4.79, 160.7624, 0.008110893, NaN, NaN, NaN, 0.03601294, "- N/A -   "
4.8, 161.116, 0.008127553, NaN, NaN, NaN, 0.03601294, "- N/A -   "
4.81, 161.4701, 0.008144213, NaN, NaN, NaN, 0.03601294, "- N/A -   "
4.82, 161.706, 0.008160873, NaN, NaN, NaN, 0.03601294, "- N/A -   "
4.83, 162.06, 0.008177535, NaN, NaN, NaN, 0.03601294, "- N/A -   "
4.84, 162.296, 0.008194195, NaN, NaN, NaN, 0.03601294, "- N/A -   "
4.85, 162.65, 0.008210856, NaN, NaN, NaN, 0.03601294, "- N/A -   "
4.86, 162.885, 0.008224739, NaN, NaN, NaN, 0.0372337, "- N/A -   "
4.87, 163.0034, 0.008238623, NaN, NaN, NaN, 0.0384545, "- N/A -   "
4.88, 163.2393, 0.008252507, NaN, NaN, NaN, 0.0396753, "- N/A -   "
4.89, 163.593, 0.00826917, NaN, NaN, NaN, 0.0396753, "- N/A -   "
4.9, 163.829, 0.00828027, NaN, NaN, NaN, 0.04211683, "- N/A -   "
4.91, 164.183, 0.008294158, NaN, NaN, NaN, 0.0433376, "- N/A -   "
4.92, 164.419, 0.008310819, NaN, NaN, NaN, 0.0433376, "- N/A -   "
4.93, 164.655, 0.008324701, NaN, NaN, NaN, 0.0445584, "- N/A -   "
4.94, 164.891, 0.008341363, NaN, NaN, NaN, 0.0445584, "- N/A -   "
4.95, 165.2444, 0.008358023, NaN, NaN, NaN, 0.0445584, "- N/A -   "
4.96, 165.4803, 0.008374684, NaN, NaN, NaN, 0.0445584, "- N/A -   "
4.97, 165.834, 0.008391344, NaN, NaN, NaN, 0.04577916, "- N/A -   "
4.98, 166.188, 0.008405227, NaN, NaN, NaN, 0.04577916, "- N/A -   "
4.99, 166.424, 0.008424665, NaN, NaN, NaN, 0.04577916, "- N/A -   "
5, 166.778, 0.008438549, NaN, NaN, NaN, 0.04577916, "- N/A -   "
5.01, 167.014, 0.008455209, NaN, NaN, NaN, 0.04577916, "- N/A -   "
5.02, 167.367, 0.008474647, NaN, NaN, NaN, 0.04577916, "- N/A -   "
5.03, 167.603, 0.008488531, NaN, NaN, NaN, 0.04577916, "- N/A -   "
5.04, 168.075, 0.008507968, NaN, NaN, NaN, 0.0445584, "- N/A -   "
5.05, 168.429, 0.008527406, NaN, NaN, NaN, 0.0433376, "- N/A -   "
5.06, 168.783, 0.008546841, NaN, NaN, NaN, 0.04211683, "- N/A -   "
5.07, 169.137, 0.00856628, NaN, NaN, NaN, 0.04211683, "- N/A -   "
5.08, 169.491, 0.00858572, NaN, NaN, NaN, 0.0396753, "- N/A -   "
5.09, 169.962, 0.008607931, NaN, NaN, NaN, 0.0384545, "- N/A -   "
5.1, 170.1982, 0.008627368, NaN, NaN, NaN, 0.03601294, "- N/A -   "
5.11, 170.67, 0.008646806, NaN, NaN, NaN, 0.03601294, "- N/A -   "
5.12, 170.906, 0.008663465, NaN, NaN, NaN, 0.0347922, "- N/A -   "
5.13, 171.26, 0.008682903, NaN, NaN, NaN, 0.0335714, "- N/A -   "
5.14, 171.614, 0.00870234, NaN, NaN, NaN, 0.0323506, "- N/A -   "
5.15, 171.9674, 0.008721777, NaN, NaN, NaN, 0.0323506, "- N/A -   "
5.16, 172.321, 0.008741215, NaN, NaN, NaN, 0.03112983, "- N/A -   "
5.17, 172.6751, 0.008757875, NaN, NaN, NaN, 0.0299091, "- N/A -   "
5.18, 173.029, 0.008774536, NaN, NaN, NaN, 0.0299091, "- N/A -   "
5.19, 173.383, 0.008793973, NaN, NaN, NaN, 0.0286883, "- N/A -   "
5.2, 173.619, 0.008810634, NaN, NaN, NaN, 0.0299091, "- N/A -   "
5.21, 173.973, 0.008827294, NaN, NaN, NaN, 0.0286883, "- N/A -   "
5.22, 174.208, 0.008841177, NaN, NaN, NaN, 0.0299091, "- N/A -   "
5.23, 174.4443, 0.008857838, NaN, NaN, NaN, 0.0299091, "- N/A -   "
5.24, 174.6802, 0.008874499, NaN, NaN, NaN, 0.03112983, "- N/A -   "
5.25, 175.034, 0.008888383, NaN, NaN, NaN, 0.03112983, "- N/A -   "
5.26, 175.388, 0.008905044, NaN, NaN, NaN, 0.0323506, "- N/A -   "
5.27, 175.624, 0.008918927, NaN, NaN, NaN, 0.0323506, "- N/A -   "
5.28, 175.86, 0.00893559, NaN, NaN, NaN, 0.0323506, "- N/A -   "
5.29, 176.096, 0.008949472, NaN, NaN, NaN, 0.0335714, "- N/A -   "
5.3, 176.449, 0.008966132, NaN, NaN, NaN, 0.0335714, "- N/A -   "
5.31, 176.6853, 0.008982792, NaN, NaN, NaN, 0.0335714, "- N/A -   "
5.32, 176.9212, 0.008996676, NaN, NaN, NaN, 0.0347922, "- N/A -   "
5.33, 177.275, 0.009016113, NaN, NaN, NaN, 0.0347922, "- N/A -   "
5.34, 177.629, 0.009032774, NaN, NaN, NaN, 0.0347922, "- N/A -   "
5.35, 177.983, 0.009049434, NaN, NaN, NaN, 0.0335714, "- N/A -   "
5.36, 178.219, 0.009066096, NaN, NaN, NaN, 0.0335714, "- N/A -   "
5.37, 178.69, 0.009085532, NaN, NaN, NaN, 0.0323506, "- N/A -   "
5.38, 178.808, 0.009102192, NaN, NaN, NaN, 0.0323506, "- N/A -   "
5.39, 179.28, 0.009118853, NaN, NaN, NaN, 0.0323506, "- N/A -   "
5.4, 179.516, 0.00913829, NaN, NaN, NaN, 0.0323506, "- N/A -   "
5.41, 179.87, 0.009154951, NaN, NaN, NaN, 0.0323506, "- N/A -   "
5.42, 180.106, 0.009168834, NaN, NaN, NaN, 0.0323506, "- N/A -   "
5.43, 180.342, 0.009185496, NaN, NaN, NaN, 0.0335714, "- N/A -   "
5.44, 180.696, 0.009199379, NaN, NaN, NaN, 0.0335714, "- N/A -   "
5.45, 180.931, 0.009216039, NaN, NaN, NaN, 0.0347922, "- N/A -   "
5.46, 181.167, 0.009229924, NaN, NaN, NaN, 0.0347922, "- N/A -   "
5.47, 181.403, 0.009246584, NaN, NaN, NaN, 0.03601294, "- N/A -   "
5.48, 181.757, 0.009260467, NaN, NaN, NaN, 0.03601294, "- N/A -   "
5.49, 181.993, 0.009274351, NaN, NaN, NaN, 0.0372337, "- N/A -   "
5.5, 182.229, 0.009291012, NaN, NaN, NaN, 0.0384545, "- N/A -   "
5.51, 182.3468, 0.009302118, NaN, NaN, NaN, 0.0396753, "- N/A -   "
5.52, 182.701, 0.009318779, NaN, NaN, NaN, 0.0396753, "- N/A -   "
5.53, 183.054, 0.009332663, NaN, NaN, NaN, 0.04089605, "- N/A -   "
5.54, 183.29, 0.009349324, NaN, NaN, NaN, 0.04211683, "- N/A -   "
5.55, 183.526, 0.009363208, NaN, NaN, NaN, 0.04211683, "- N/A -   "
5.56, 183.8801, 0.009379867, NaN, NaN, NaN, 0.04211683, "- N/A -   "
5.57, 183.998, 0.009393752, NaN, NaN, NaN, 0.0433376, "- N/A -   "
5.58, 184.3519, 0.009410412, NaN, NaN, NaN, 0.0433376, "- N/A -   "
5.59, 184.5878, 0.009424296, NaN, NaN, NaN, 0.0445584, "- N/A -   "
5.6, 184.942, 0.009440956, NaN, NaN, NaN, 0.0445584, "- N/A -   "
5.61, 185.178, 0.009457616, NaN, NaN, NaN, 0.0445584, "- N/A -   "
5.62, 185.649, 0.00947428, NaN, NaN, NaN, 0.0445584, "- N/A -   "
5.63, 185.885, 0.009493714, NaN, NaN, NaN, 0.0445584, "- N/A -   "
5.64, 186.239, 0.009510376, NaN, NaN, NaN, 0.0445584, "- N/A -   "
5.65, 186.475, 0.009527036, NaN, NaN, NaN, 0.0433376, "- N/A -   "
5.66, 186.829, 0.009546473, NaN, NaN, NaN, 0.0433376, "- N/A -   "
5.67, 187.301, 0.00956591, NaN, NaN, NaN, 0.04211683, "- N/A -   "
5.68, 187.536, 0.009582571, NaN, NaN, NaN, 0.04089605, "- N/A -   "
5.69, 187.89, 0.009599232, NaN, NaN, NaN, 0.04089605, "- N/A -   "
5.7, 188.1262, 0.009613114, NaN, NaN, NaN, 0.04211683, "- N/A -   "
5.71, 188.3621, 0.009629776, NaN, NaN, NaN, 0.04211683, "- N/A -   "
5.72, 188.716, 0.009646436, NaN, NaN, NaN, 0.04211683, "- N/A -   "
5.73, 188.952, 0.009663097, NaN, NaN, NaN, 0.0433376, "- N/A -   "
5.74, 189.3057, 0.009679756, NaN, NaN, NaN, 0.04211683, "- N/A -   "
5.75, 189.777, 0.009701971, NaN, NaN, NaN, 0.0396753, "- N/A -   "
5.76, 190.131, 0.009721409, NaN, NaN, NaN, 0.0396753, "- N/A -   "
5.77, 190.367, 0.009738068, NaN, NaN, NaN, 0.0384545, "- N/A -   "
5.78, 190.839, 0.00975473, NaN, NaN, NaN, 0.0384545, "- N/A -   "
5.79, 191.075, 0.009774166, NaN, NaN, NaN, 0.0372337, "- N/A -   "
5.8, 191.429, 0.009793604, NaN, NaN, NaN, 0.0372337, "- N/A -   "
5.81, 191.7826, 0.00981304, NaN, NaN, NaN, 0.03601294, "- N/A -   "
5.82, 192.136, 0.009829701, NaN, NaN, NaN, 0.0347922, "- N/A -   "
5.83, 192.49, 0.009846362, NaN, NaN, NaN, 0.0347922, "- N/A -   "
5.84, 192.726, 0.009865799, NaN, NaN, NaN, 0.0347922, "- N/A -   "
5.85, 193.08, 0.009879682, NaN, NaN, NaN, 0.0347922, "- N/A -   "
5.86, 193.3159, 0.009896343, NaN, NaN, NaN, 0.0347922, "- N/A -   "
5.87, 193.67, 0.009913004, NaN, NaN, NaN, 0.0347922, "- N/A -   "
5.88, 193.906, 0.009929664, NaN, NaN, NaN, 0.0347922, "- N/A -   "
5.89, 194.142, 0.009946325, NaN, NaN, NaN, 0.0347922, "- N/A -   "
5.9, 194.495, 0.009962985, NaN, NaN, NaN, 0.0347922, "- N/A -   "
5.91, 194.849, 0.009979647, NaN, NaN, NaN, 0.0347922, "- N/A -   "
5.92, 195.085, 0.009996306, NaN, NaN, NaN, 0.03601294, "- N/A -   "
5.93, 195.439, 0.010013, NaN, NaN, NaN, 0.0347922, "- N/A -   "
5.94, 195.675, 0.0100296, NaN, NaN, NaN, 0.0347922, "- N/A -   "
5.95, 196.0287, 0.0100491, NaN, NaN, NaN, 0.0335714, "- N/A -   "
5.96, 196.383, 0.0100657, NaN, NaN, NaN, 0.0335714, "- N/A -   "
[...]
38.43, 1497.04, 0.0641624, NaN, NaN, NaN, 0.0433376, "- N/A -   "
38.45, 1497.88, 0.06419295, NaN, NaN, NaN, 0.0433376, "- N/A -   "
38.47, 1498.83, 0.06422627, NaN, NaN, NaN, 0.0433376, "- N/A -   "
38.49, 1499.67, 0.06425959, NaN, NaN, NaN, 0.0433376, "- N/A -   "
38.51, 1500.5, 0.0642901, NaN, NaN, NaN, 0.0445584, "- N/A -   "
38.53, 1501.34, 0.0643235, NaN, NaN, NaN, 0.0445584, "- N/A -   "
38.55, 1502.29, 0.06435678, NaN, NaN, NaN, 0.0445584, "- N/A -   "
38.57, 1503.48, 0.06439565, NaN, NaN, NaN, 0.04211683, "- N/A -   "
38.59, 1504.44, 0.0644373, NaN, NaN, NaN, 0.0396753, "- N/A -   "
38.61, 1505.63, 0.064479, NaN, NaN, NaN, 0.03601294, "- N/A -   "
38.63, 1506.82, 0.0645206, NaN, NaN, NaN, 0.0323506, "- N/A -   "
38.65, 1507.9, 0.0645567, NaN, NaN, NaN, 0.0299091, "- N/A -   "
38.67, 1508.73, 0.0645928, NaN, NaN, NaN, 0.0286883, "- N/A -   "
38.69, 1509.68, 0.06462612, NaN, NaN, NaN, 0.0286883, "- N/A -   "
38.71, 1510.52, 0.06465945, NaN, NaN, NaN, 0.0286883, "- N/A -   "
38.73, 1511.47, 0.0646928, NaN, NaN, NaN, 0.0286883, "- N/A -   "
38.75, 1512.19, 0.0647205, NaN, NaN, NaN, 0.03112983, "- N/A -   "
38.77, 1513.02, 0.06475107, NaN, NaN, NaN, 0.0323506, "- N/A -   "
38.79, 1513.74, 0.06478162, NaN, NaN, NaN, 0.0335714, "- N/A -   "
38.81, 1514.693, 0.06480939, NaN, NaN, NaN, 0.03601294, "- N/A -   "
38.83, 1515.53, 0.06484271, NaN, NaN, NaN, 0.03601294, "- N/A -   "
38.85, 1516.36, 0.0648733, NaN, NaN, NaN, 0.0372337, "- N/A -   "
38.87, 1517.32, 0.0649066, NaN, NaN, NaN, 0.0372337, "- N/A -   "
38.89, 1518.27, 0.0649399, NaN, NaN, NaN, 0.0372337, "- N/A -   "
38.91, 1519.11, 0.06497599, NaN, NaN, NaN, 0.03601294, "- N/A -   "
38.93, 1520.18, 0.06501487, NaN, NaN, NaN, 0.0347922, "- N/A -   "
38.95, 1521.13, 0.06504819, NaN, NaN, NaN, 0.0335714, "- N/A -   "
38.97, 1522.09, 0.06508151, NaN, NaN, NaN, 0.0335714, "- N/A -   "
38.99, 1522.92, 0.0651121, NaN, NaN, NaN, 0.0347922, "- N/A -   "
39.01, 1523.52, 0.06513704, NaN, NaN, NaN, 0.0384545, "- N/A -   "
39.03, 1524.35, 0.06516759, NaN, NaN, NaN, 0.04089605, "- N/A -   "
39.05, 1524.95, 0.06519535, NaN, NaN, NaN, 0.0433376, "- N/A -   "
39.07, 1525.78, 0.0652259, NaN, NaN, NaN, 0.0445584, "- N/A -   "
39.09, 1526.62, 0.06525922, NaN, NaN, NaN, 0.0433376, "- N/A -   "
39.11, 1527.57, 0.0652898, NaN, NaN, NaN, 0.0445584, "- N/A -   "
39.13, 1528.407, 0.0653231, NaN, NaN, NaN, 0.0445584, "- N/A -   "
39.15, 1529.36, 0.06535918, NaN, NaN, NaN, 0.0433376, "- N/A -   "
39.17, 1530.43, 0.06539528, NaN, NaN, NaN, 0.04211683, "- N/A -   "
39.19, 1531.51, 0.06543416, NaN, NaN, NaN, 0.0396753, "- N/A -   "
39.21, 1532.58, 0.06547581, NaN, NaN, NaN, 0.03601294, "- N/A -   "
39.23, 1533.77, 0.0655175, NaN, NaN, NaN, 0.0335714, "- N/A -   "
39.25, 1534.85, 0.06555633, NaN, NaN, NaN, 0.0299091, "- N/A -   "
39.27, 1535.92, 0.06559521, NaN, NaN, NaN, 0.0286883, "- N/A -   "
39.29, 1536.87, 0.06562853, NaN, NaN, NaN, 0.0274675, "- N/A -   "
39.31, 1537.71, 0.06566185, NaN, NaN, NaN, 0.0286883, "- N/A -   "
39.33, 1538.54, 0.0656924, NaN, NaN, NaN, 0.0286883, "- N/A -   "
39.35, 1539.38, 0.06572294, NaN, NaN, NaN, 0.0299091, "- N/A -   "
39.37, 1540.09, 0.0657507, NaN, NaN, NaN, 0.0323506, "- N/A -   "
39.39, 1540.81, 0.06577848, NaN, NaN, NaN, 0.0347922, "- N/A -   "
39.41, 1541.76, 0.06580902, NaN, NaN, NaN, 0.03601294, "- N/A -   "
39.43, 1542.48, 0.06584234, NaN, NaN, NaN, 0.0372337, "- N/A -   "
39.45, 1543.31, 0.06587566, NaN, NaN, NaN, 0.0372337, "- N/A -   "
39.47, 1544.39, 0.06590898, NaN, NaN, NaN, 0.03601294, "- N/A -   "
39.49, 1545.46, 0.06594785, NaN, NaN, NaN, 0.0335714, "- N/A -   "
39.51, 1546.41, 0.06598395, NaN, NaN, NaN, 0.0335714, "- N/A -   "
39.53, 1547.368, 0.06601727, NaN, NaN, NaN, 0.0335714, "- N/A -   "
39.55, 1548.32, 0.0660506, NaN, NaN, NaN, 0.0323506, "- N/A -   "
39.57, 1549.16, 0.0660839, NaN, NaN, NaN, 0.0335714, "- N/A -   "
39.59, 1550.111, 0.06611724, NaN, NaN, NaN, 0.0323506, "- N/A -   "
39.61, 1550.95, 0.06615056, NaN, NaN, NaN, 0.0323506, "- N/A -   "
39.63, 1551.78, 0.0661811, NaN, NaN, NaN, 0.0335714, "- N/A -   "
39.65, 1552.5, 0.06620887, NaN, NaN, NaN, 0.03601294, "- N/A -   "
39.67, 1553.33, 0.06623942, NaN, NaN, NaN, 0.0384545, "- N/A -   "
39.69, 1553.93, 0.0662672, NaN, NaN, NaN, 0.0396753, "- N/A -   "
39.71, 1554.76, 0.0662977, NaN, NaN, NaN, 0.04089605, "- N/A -   "
39.73, 1555.6, 0.06633105, NaN, NaN, NaN, 0.04089605, "- N/A -   "
39.75, 1556.67, 0.06636437, NaN, NaN, NaN, 0.04089605, "- N/A -   "
39.77, 1557.62, 0.06640047, NaN, NaN, NaN, 0.04089605, "- N/A -   "
39.79, 1558.46, 0.06643379, NaN, NaN, NaN, 0.0396753, "- N/A -   "
39.81, 1559.29, 0.0664643, NaN, NaN, NaN, 0.04089605, "- N/A -   "
39.83, 1560.25, 0.06649765, NaN, NaN, NaN, 0.04211683, "- N/A -   "
39.85, 1561.082, 0.06652819, NaN, NaN, NaN, 0.0433376, "- N/A -   "
39.87, 1561.92, 0.06656152, NaN, NaN, NaN, 0.0433376, "- N/A -   "
39.89, 1562.99, 0.06660039, NaN, NaN, NaN, 0.04089605, "- N/A -   "
39.91, 1563.94, 0.06663649, NaN, NaN, NaN, 0.0396753, "- N/A -   "
39.93, 1565.02, 0.06666981, NaN, NaN, NaN, 0.0396753, "- N/A -   "
39.95, 1565.73, 0.06670313, NaN, NaN, NaN, 0.0396753, "- N/A -   "
39.97, 1566.69, 0.06673645, NaN, NaN, NaN, 0.0396753, "- N/A -   "
39.99, 1567.76, 0.06677533, NaN, NaN, NaN, 0.0384545, "- N/A -   "
40.01, 1568.71, 0.06680865, NaN, NaN, NaN, 0.0372337, "- N/A -   "
40.03, 1569.549, 0.06684475, NaN, NaN, NaN, 0.0372337, "- N/A -   "
40.05, 1570.503, 0.0668781, NaN, NaN, NaN, 0.03601294, "- N/A -   "
40.07, 1571.457, 0.06691416, NaN, NaN, NaN, 0.0347922, "- N/A -   "
40.09, 1572.41, 0.06695026, NaN, NaN, NaN, 0.0347922, "- N/A -   "
40.11, 1573.365, 0.06698636, NaN, NaN, NaN, 0.0335714, "- N/A -   "
40.13, 1574.319, 0.06701691, NaN, NaN, NaN, 0.0335714, "- N/A -   "
40.15, 1575.03, 0.06704745, NaN, NaN, NaN, 0.0347922, "- N/A -   "
40.17, 1575.87, 0.067078, NaN, NaN, NaN, 0.03601294, "- N/A -   "
40.19, 1576.58, 0.06710854, NaN, NaN, NaN, 0.0372337, "- N/A -   "
40.21, 1577.54, 0.06714186, NaN, NaN, NaN, 0.0372337, "- N/A -   "
40.23, 1578.37, 0.0671724, NaN, NaN, NaN, 0.0384545, "- N/A -   "
40.25, 1579.21, 0.06720572, NaN, NaN, NaN, 0.0384545, "- N/A -   "
40.27, 1580.16, 0.06724182, NaN, NaN, NaN, 0.0372337, "- N/A -   "
40.29, 1581.12, 0.0672807, NaN, NaN, NaN, 0.03601294, "- N/A -   "
40.31, 1582.19, 0.06731679, NaN, NaN, NaN, 0.0335714, "- N/A -   "
40.33, 1583.26, 0.06735289, NaN, NaN, NaN, 0.0323506, "- N/A -   "
40.35, 1583.98, 0.06738344, NaN, NaN, NaN, 0.0335714, "- N/A -   "
40.37, 1584.694, 0.067414, NaN, NaN, NaN, 0.0347922, "- N/A -   "
40.39, 1585.648, 0.0674445, NaN, NaN, NaN, 0.03601294, "- N/A -   "
40.41, 1586.24, 0.0674723, NaN, NaN, NaN, 0.0384545, "- N/A -   "
40.43, 1587.2, 0.06750006, NaN, NaN, NaN, 0.04089605, "- N/A -   "
40.45, 1587.91, 0.0675306, NaN, NaN, NaN, 0.04211683, "- N/A -   "
40.47, 1588.75, 0.06756392, NaN, NaN, NaN, 0.04211683, "- N/A -   "
40.49, 1589.58, 0.06759725, NaN, NaN, NaN, 0.0433376, "- N/A -   "
40.51, 1590.54, 0.06763057, NaN, NaN, NaN, 0.04211683, "- N/A -   "
40.53, 1591.49, 0.06766389, NaN, NaN, NaN, 0.04211683, "- N/A -   "
40.55, 1592.45, 0.06769721, NaN, NaN, NaN, 0.04211683, "- N/A -   "
40.57, 1593.4, 0.06773053, NaN, NaN, NaN, 0.04211683, "- N/A -   "
40.59, 1594.35, 0.06776663, NaN, NaN, NaN, 0.04089605, "- N/A -   "
40.61, 1595.31, 0.06780551, NaN, NaN, NaN, 0.0396753, "- N/A -   "
40.63, 1596.5, 0.0678444, NaN, NaN, NaN, 0.03601294, "- N/A -   "
40.65, 1597.69, 0.067886, NaN, NaN, NaN, 0.0335714, "- N/A -   "
40.67, 1598.65, 0.06792212, NaN, NaN, NaN, 0.0323506, "- N/A -   "
40.69, 1599.6, 0.06795545, NaN, NaN, NaN, 0.0323506, "- N/A -   "
40.71, 1600.316, 0.06798877, NaN, NaN, NaN, 0.0323506, "- N/A -   "
40.73, 1601.15, 0.0680193, NaN, NaN, NaN, 0.0323506, "- N/A -   "
40.75, 1602.1, 0.0680526, NaN, NaN, NaN, 0.0323506, "- N/A -   "
40.77, 1602.94, 0.06808595, NaN, NaN, NaN, 0.0323506, "- N/A -   "
40.79, 1603.77, 0.06811927, NaN, NaN, NaN, 0.0323506, "- N/A -   "
40.81, 1604.609, 0.06814982, NaN, NaN, NaN, 0.0335714, "- N/A -   "
40.83, 1605.44, 0.06818314, NaN, NaN, NaN, 0.0335714, "- N/A -   "
40.85, 1606.4, 0.06821646, NaN, NaN, NaN, 0.0335714, "- N/A -   "
40.87, 1607.47, 0.0682553, NaN, NaN, NaN, 0.0323506, "- N/A -   "
40.89, 1608.425, 0.06829143, NaN, NaN, NaN, 0.0299091, "- N/A -   "
40.91, 1609.38, 0.06832475, NaN, NaN, NaN, 0.0299091, "- N/A -   "
40.93, 1610.09, 0.06835252, NaN, NaN, NaN, 0.0323506, "- N/A -   "
40.95, 1610.93, 0.06838307, NaN, NaN, NaN, 0.0335714, "- N/A -   "
40.97, 1611.76, 0.06841639, NaN, NaN, NaN, 0.0335714, "- N/A -   "
40.99, 1612.6, 0.06844693, NaN, NaN, NaN, 0.0347922, "- N/A -   "
41.01, 1613.43, 0.06848025, NaN, NaN, NaN, 0.0347922, "- N/A -   "
41.03, 1614.27, 0.0685108, NaN, NaN, NaN, 0.03601294, "- N/A -   "
41.05, 1615.1, 0.06854134, NaN, NaN, NaN, 0.0372337, "- N/A -   "
41.07, 1615.82, 0.06856911, NaN, NaN, NaN, 0.0396753, "- N/A -   "
41.09, 1616.41, 0.0685997, NaN, NaN, NaN, 0.04211683, "- N/A -   "
41.11, 1617.25, 0.06862742, NaN, NaN, NaN, 0.0433376, "- N/A -   "
41.13, 1618.08, 0.068658, NaN, NaN, NaN, 0.04577916, "- N/A -   "
41.15, 1618.8, 0.06868851, NaN, NaN, NaN, 0.04577916, "- N/A -   "
41.17, 1619.754, 0.06871905, NaN, NaN, NaN, 0.04699994, "- N/A -   "
41.19, 1620.59, 0.06875237, NaN, NaN, NaN, 0.0482207, "- N/A -   "
41.21, 1621.42, 0.0687857, NaN, NaN, NaN, 0.04699994, "- N/A -   "
41.23, 1622.38, 0.0688218, NaN, NaN, NaN, 0.04577916, "- N/A -   "
41.25, 1623.45, 0.0688607, NaN, NaN, NaN, 0.0445584, "- N/A -   "
41.27, 1624.524, 0.06889676, NaN, NaN, NaN, 0.04211683, "- N/A -   "
41.29, 1625.6, 0.06893564, NaN, NaN, NaN, 0.0396753, "- N/A -   "
41.31, 1626.43, 0.06897174, NaN, NaN, NaN, 0.0384545, "- N/A -   "
41.33, 1627.51, 0.06900784, NaN, NaN, NaN, 0.0372337, "- N/A -   "
41.35, 1628.46, 0.06904671, NaN, NaN, NaN, 0.03601294, "- N/A -   "
41.37, 1629.53, 0.06908281, NaN, NaN, NaN, 0.0347922, "- N/A -   "
41.39, 1630.37, 0.06911613, NaN, NaN, NaN, 0.0335714, "- N/A -   "
41.41, 1631.2, 0.06914945, NaN, NaN, NaN, 0.0335714, "- N/A -   "
41.43, 1632.16, 0.06918555, NaN, NaN, NaN, 0.0323506, "- N/A -   "
41.45, 1633.11, 0.06921887, NaN, NaN, NaN, 0.0323506, "- N/A -   "
41.47, 1633.945, 0.069255, NaN, NaN, NaN, 0.0323506, "- N/A -   "
41.49, 1634.899, 0.06928829, NaN, NaN, NaN, 0.03112983, "- N/A -   "
41.51, 1635.853, 0.06932161, NaN, NaN, NaN, 0.03112983, "- N/A -   "
41.53, 1636.69, 0.06935493, NaN, NaN, NaN, 0.03112983, "- N/A -   "
41.55, 1637.52, 0.06939103, NaN, NaN, NaN, 0.03112983, "- N/A -   "
41.57, 1638.48, 0.0694216, NaN, NaN, NaN, 0.03112983, "- N/A -   "
41.59, 1639.31, 0.06945489, NaN, NaN, NaN, 0.03112983, "- N/A -   "
41.61, 1640.27, 0.06948544, NaN, NaN, NaN, 0.0323506, "- N/A -   "
41.63, 1640.86, 0.0695132, NaN, NaN, NaN, 0.0347922, "- N/A -   "
41.65, 1641.7, 0.06954653, NaN, NaN, NaN, 0.03601294, "- N/A -   "
41.67, 1642.53, 0.0695743, NaN, NaN, NaN, 0.0372337, "- N/A -   "
41.69, 1643.25, 0.06960484, NaN, NaN, NaN, 0.0384545, "- N/A -   "
41.71, 1644.08, 0.0696326, NaN, NaN, NaN, 0.04089605, "- N/A -   "
41.73, 1644.68, 0.06966315, NaN, NaN, NaN, 0.04211683, "- N/A -   "
41.75, 1645.51, 0.06969091, NaN, NaN, NaN, 0.0445584, "- N/A -   "
41.77, 1646.35, 0.06972424, NaN, NaN, NaN, 0.0445584, "- N/A -   "
41.79, 1647.182, 0.06975478, NaN, NaN, NaN, 0.04577916, "- N/A -   "
41.81, 1648.02, 0.06979088, NaN, NaN, NaN, 0.04577916, "- N/A -   "
41.83, 1648.97, 0.0698242, NaN, NaN, NaN, 0.0445584, "- N/A -   "
41.85, 1649.92, 0.0698603, NaN, NaN, NaN, 0.0445584, "- N/A -   "
41.87, 1650.88, 0.06989362, NaN, NaN, NaN, 0.0433376, "- N/A -   "
41.89, 1651.952, 0.06992972, NaN, NaN, NaN, 0.04211683, "- N/A -   "
41.91, 1652.79, 0.0699686, NaN, NaN, NaN, 0.04089605, "- N/A -   "
41.93, 1653.86, 0.0700019, NaN, NaN, NaN, 0.0396753, "- N/A -   "
41.95, 1654.81, 0.07003801, NaN, NaN, NaN, 0.0384545, "- N/A -   "
41.97, 1655.89, 0.07007411, NaN, NaN, NaN, 0.0372337, "- N/A -   "
41.99, 1656.72, 0.07010743, NaN, NaN, NaN, 0.0372337, "- N/A -   "
42.01, 1657.8, 0.07014908, NaN, NaN, NaN, 0.0347922, "- N/A -   "
42.03, 1658.87, 0.07019073, NaN, NaN, NaN, 0.03112983, "- N/A -   "
42.05, 1660.06, 0.0702296, NaN, NaN, NaN, 0.0286883, "- N/A -   "
42.07, 1661.02, 0.07026015, NaN, NaN, NaN, 0.0286883, "- N/A -   "
42.09, 1661.73, 0.07029347, NaN, NaN, NaN, 0.0299091, "- N/A -   "
42.11, 1662.57, 0.0703268, NaN, NaN, NaN, 0.0286883, "- N/A -   "
42.13, 1663.52, 0.0703629, NaN, NaN, NaN, 0.0286883, "- N/A -   "
42.15, 1664.35, 0.0703962, NaN, NaN, NaN, 0.0274675, "- N/A -   "
42.17, 1665.189, 0.0704268, NaN, NaN, NaN, 0.0286883, "- N/A -   "
42.19, 1665.9, 0.07045452, NaN, NaN, NaN, 0.03112983, "- N/A -   "
42.21, 1666.74, 0.07048507, NaN, NaN, NaN, 0.0323506, "- N/A -   "
42.23, 1667.57, 0.07051839, NaN, NaN, NaN, 0.0323506, "- N/A -   "
42.25, 1668.41, 0.07054616, NaN, NaN, NaN, 0.0347922, "- N/A -   "
42.27, 1669.24, 0.07057948, NaN, NaN, NaN, 0.0347922, "- N/A -   "
42.29, 1670.08, 0.07061, NaN, NaN, NaN, 0.03601294, "- N/A -   "
42.31, 1670.79, 0.0706406, NaN, NaN, NaN, 0.0372337, "- N/A -   "
42.33, 1671.87, 0.07067388, NaN, NaN, NaN, 0.0372337, "- N/A -   "
42.35, 1672.7, 0.07070721, NaN, NaN, NaN, 0.0372337, "- N/A -   "
42.37, 1673.54, 0.07074053, NaN, NaN, NaN, 0.0372337, "- N/A -   "
42.39, 1674.37, 0.0707739, NaN, NaN, NaN, 0.0372337, "- N/A -   "
42.41, 1675.21, 0.0708044, NaN, NaN, NaN, 0.0384545, "- N/A -   "
42.43, 1675.92, 0.0708349, NaN, NaN, NaN, 0.04089605, "- N/A -   "
42.45, 1676.64, 0.07086271, NaN, NaN, NaN, 0.04211683, "- N/A -   "
42.47, 1677.472, 0.07089047, NaN, NaN, NaN, 0.0445584, "- N/A -   "
42.49, 1678.19, 0.0709238, NaN, NaN, NaN, 0.04577916, "- N/A -   "
42.51, 1679.02, 0.07095434, NaN, NaN, NaN, 0.04699994, "- N/A -   "
42.53, 1679.98, 0.07098766, NaN, NaN, NaN, 0.04699994, "- N/A -   "
42.55, 1680.93, 0.07102098, NaN, NaN, NaN, 0.04577916, "- N/A -   "
42.57, 1681.88, 0.07105708, NaN, NaN, NaN, 0.0445584, "- N/A -   "
42.59, 1682.96, 0.07109318, NaN, NaN, NaN, 0.0433376, "- N/A -   "
42.61, 1683.91, 0.07113205, NaN, NaN, NaN, 0.04089605, "- N/A -   "
42.63, 1684.98, 0.0711709, NaN, NaN, NaN, 0.0384545, "- N/A -   "
42.65, 1686.06, 0.071207, NaN, NaN, NaN, 0.0372337, "- N/A -   "
42.67, 1687.13, 0.07124312, NaN, NaN, NaN, 0.03601294, "- N/A -   "
42.69, 1688.09, 0.07127922, NaN, NaN, NaN, 0.0347922, "- N/A -   "
42.71, 1689.04, 0.0713181, NaN, NaN, NaN, 0.0323506, "- N/A -   "
42.73, 1690.11, 0.0713542, NaN, NaN, NaN, 0.03112983, "- N/A -   "
42.75, 1690.95, 0.0713875, NaN, NaN, NaN, 0.03112983, "- N/A -   "
42.77, 1691.9, 0.07142361, NaN, NaN, NaN, 0.0299091, "- N/A -   "
42.79, 1692.74, 0.07145693, NaN, NaN, NaN, 0.03112983, "- N/A -   "
42.81, 1693.57, 0.07149025, NaN, NaN, NaN, 0.0299091, "- N/A -   "
42.83, 1694.41, 0.07152357, NaN, NaN, NaN, 0.0299091, "- N/A -   "
42.85, 1695.24, 0.07155412, NaN, NaN, NaN, 0.03112983, "- N/A -   "
42.87, 1696.19, 0.07158744, NaN, NaN, NaN, 0.03112983, "- N/A -   "
42.89, 1696.91, 0.07162076, NaN, NaN, NaN, 0.03112983, "- N/A -   "
42.91, 1697.86, 0.07165408, NaN, NaN, NaN, 0.0323506, "- N/A -   "
42.93, 1698.7, 0.07168462, NaN, NaN, NaN, 0.0323506, "- N/A -   "
42.95, 1699.65, 0.07171795, NaN, NaN, NaN, 0.0323506, "- N/A -   "
42.97, 1700.49, 0.07175127, NaN, NaN, NaN, 0.0323506, "- N/A -   "
42.99, 1701.32, 0.0717818, NaN, NaN, NaN, 0.0335714, "- N/A -   "
43.01, 1702.04, 0.0718124, NaN, NaN, NaN, 0.03601294, "- N/A -   "
43.03, 1702.75, 0.07184012, NaN, NaN, NaN, 0.0372337, "- N/A -   "
43.05, 1703.47, 0.07186789, NaN, NaN, NaN, 0.04089605, "- N/A -   "
43.07, 1704.18, 0.07189566, NaN, NaN, NaN, 0.04211683, "- N/A -   "
43.09, 1705.02, 0.07192621, NaN, NaN, NaN, 0.0445584, "- N/A -   "
43.11, 1705.73, 0.07195397, NaN, NaN, NaN, 0.04577916, "- N/A -   "
43.13, 1706.57, 0.0719873, NaN, NaN, NaN, 0.04577916, "- N/A -   "
43.15, 1707.4, 0.07201783, NaN, NaN, NaN, 0.04699994, "- N/A -   "
43.17, 1708.239, 0.07205116, NaN, NaN, NaN, 0.04699994, "- N/A -   "
43.19, 1709.31, 0.07208726, NaN, NaN, NaN, 0.04577916, "- N/A -   "
43.21, 1710.147, 0.0721234, NaN, NaN, NaN, 0.0445584, "- N/A -   "
43.23, 1711.22, 0.0721595, NaN, NaN, NaN, 0.0433376, "- N/A -   "
43.25, 1712.17, 0.07219277, NaN, NaN, NaN, 0.0433376, "- N/A -   "
43.27, 1713.13, 0.07223164, NaN, NaN, NaN, 0.04089605, "- N/A -   "
43.29, 1714.32, 0.0722733, NaN, NaN, NaN, 0.0384545, "- N/A -   "
43.31, 1715.51, 0.07231217, NaN, NaN, NaN, 0.0347922, "- N/A -   "
43.33, 1716.47, 0.07234827, NaN, NaN, NaN, 0.0335714, "- N/A -   "
43.35, 1717.42, 0.0723844, NaN, NaN, NaN, 0.0323506, "- N/A -   "
43.37, 1718.26, 0.0724177, NaN, NaN, NaN, 0.0323506, "- N/A -   "
43.39, 1719.09, 0.07245101, NaN, NaN, NaN, 0.0323506, "- N/A -   "
43.41, 1720.04, 0.07248711, NaN, NaN, NaN, 0.0323506, "- N/A -   "
43.43, 1720.76, 0.07251765, NaN, NaN, NaN, 0.0335714, "- N/A -   "
43.45, 1721.6, 0.0725482, NaN, NaN, NaN, 0.0335714, "- N/A -   "
43.47, 1722.43, 0.0725815, NaN, NaN, NaN, 0.0335714, "- N/A -   "
43.49, 1723.26, 0.07261483, NaN, NaN, NaN, 0.0335714, "- N/A -   "
43.51, 1724.22, 0.07264816, NaN, NaN, NaN, 0.0335714, "- N/A -   "
43.53, 1725.292, 0.07268426, NaN, NaN, NaN, 0.0323506, "- N/A -   "
43.55, 1726.13, 0.07272036, NaN, NaN, NaN, 0.03112983, "- N/A -   "
43.57, 1727.08, 0.0727537, NaN, NaN, NaN, 0.03112983, "- N/A -   "
43.59, 1728.03, 0.072787, NaN, NaN, NaN, 0.03112983, "- N/A -   "
43.61, 1728.87, 0.07282031, NaN, NaN, NaN, 0.0323506, "- N/A -   "
43.63, 1729.585, 0.07285086, NaN, NaN, NaN, 0.0323506, "- N/A -   "
43.65, 1730.42, 0.07288418, NaN, NaN, NaN, 0.0323506, "- N/A -   "
43.67, 1731.37, 0.07292028, NaN, NaN, NaN, 0.0323506, "- N/A -   "
43.69, 1732.33, 0.0729508, NaN, NaN, NaN, 0.0323506, "- N/A -   "
43.71, 1733.04, 0.0729814, NaN, NaN, NaN, 0.0335714, "- N/A -   "
43.73, 1733.88, 0.0730147, NaN, NaN, NaN, 0.0335714, "- N/A -   "
43.75, 1734.71, 0.07304801, NaN, NaN, NaN, 0.0335714, "- N/A -   "
43.77, 1735.667, 0.07307856, NaN, NaN, NaN, 0.03601294, "- N/A -   "
43.79, 1736.38, 0.0731091, NaN, NaN, NaN, 0.03601294, "- N/A -   "
43.81, 1736.98, 0.0731369, NaN, NaN, NaN, 0.0384545, "- N/A -   "
43.83, 1737.81, 0.0731646, NaN, NaN, NaN, 0.04089605, "- N/A -   "
43.85, 1738.41, 0.0731924, NaN, NaN, NaN, 0.0433376, "- N/A -   "
43.87, 1739.24, 0.07322295, NaN, NaN, NaN, 0.0445584, "- N/A -   "
43.89, 1740.08, 0.07325627, NaN, NaN, NaN, 0.0445584, "- N/A -   "
43.91, 1740.79, 0.07328681, NaN, NaN, NaN, 0.04577916, "- N/A -   "
43.93, 1741.75, 0.07331736, NaN, NaN, NaN, 0.04699994, "- N/A -   "
43.95, 1742.58, 0.0733507, NaN, NaN, NaN, 0.04699994, "- N/A -   "
43.97, 1743.54, 0.073384, NaN, NaN, NaN, 0.04699994, "- N/A -   "
43.99, 1744.37, 0.07341732, NaN, NaN, NaN, 0.04699994, "- N/A -   "
44.01, 1745.33, 0.0734562, NaN, NaN, NaN, 0.04577916, "- N/A -   "
44.03, 1746.4, 0.0734923, NaN, NaN, NaN, 0.0433376, "- N/A -   "
44.05, 1747.47, 0.0735312, NaN, NaN, NaN, 0.04089605, "- N/A -   "
44.07, 1748.55, 0.07357, NaN, NaN, NaN, 0.0384545, "- N/A -   "
44.09, 1749.62, 0.07360891, NaN, NaN, NaN, 0.03601294, "- N/A -   "
44.11, 1750.69, 0.07364779, NaN, NaN, NaN, 0.0335714, "- N/A -   "
44.13, 1751.65, 0.07368111, NaN, NaN, NaN, 0.0335714, "- N/A -   "
44.15, 1752.36, 0.07371443, NaN, NaN, NaN, 0.0335714, "- N/A -   "
44.17, 1753.44, 0.0737505, NaN, NaN, NaN, 0.0323506, "- N/A -   "
44.19, 1754.27, 0.07378385, NaN, NaN, NaN, 0.0323506, "- N/A -   "
44.21, 1755.22, 0.07381994, NaN, NaN, NaN, 0.03112983, "- N/A -   "
44.23, 1756.06, 0.07385049, NaN, NaN, NaN, 0.0323506, "- N/A -   "
44.25, 1757.01, 0.07388659, NaN, NaN, NaN, 0.0323506, "- N/A -   "
44.27, 1757.85, 0.0739199, NaN, NaN, NaN, 0.03112983, "- N/A -   "
44.29, 1758.921, 0.0739588, NaN, NaN, NaN, 0.0299091, "- N/A -   "
44.31, 1759.76, 0.07399488, NaN, NaN, NaN, 0.0286883, "- N/A -   "
44.33, 1760.83, 0.0740282, NaN, NaN, NaN, 0.0274675, "- N/A -   "
44.35, 1761.66, 0.07406153, NaN, NaN, NaN, 0.0286883, "- N/A -   "
44.363, 1762.14, 0.07408096, NaN, NaN, NaN, 0.0299091, "- N/A -   "