File: 2_Tensile_Data/Hamel_ForceTest_Bolt6_Test1.csv
Time, Load (lb), Position (in), AxialStrain (in), TransverseStrain (in), Auxiliary (), Control Out (V), Stress (psi)
0.0,1.06153,0.0, NaN, NaN, NaN,0.11048," ""- N/A -   """
0.01,1.29742,2.77675e-05, NaN, NaN, NaN,0.111701," ""- N/A -   """
0.02,1.65126,5.83118e-05, NaN, NaN, NaN,0.104376," ""- N/A -   """
0.03,1.88716,8.885606e-05, NaN, NaN, NaN,0.09949338," ""- N/A -   """
0.04,2.12305,0.000113847, NaN, NaN, NaN,0.09461027," ""- N/A -   """
0.05,2.35895,0.000141614, NaN, NaN, NaN,0.0897272," ""- N/A -   """
0.06,2.59484,0.000166605, NaN, NaN, NaN,0.08606482," ""- N/A -   """
0.07,2.83074,0.000191596, NaN, NaN, NaN,0.08240249," ""- N/A -   """
0.08,3.06663,0.0002138099, NaN, NaN, NaN,0.0799609," ""- N/A -   """
0.09,3.18458,0.000238801, NaN, NaN, NaN,0.0762986," ""- N/A -   """
0.1,3.42048,0.000261015, NaN, NaN, NaN,0.07385705," ""- N/A -   """
0.11,3.65637,0.0002832287, NaN, NaN, NaN,0.07141549," ""- N/A -   """
0.12,3.774319,0.0003054427, NaN, NaN, NaN,0.0689739," ""- N/A -   """
0.13,4.010214,0.000327657, NaN, NaN, NaN,0.06653238," ""- N/A -   """
0.14,4.246109,0.000349871, NaN, NaN, NaN,0.0640908," ""- N/A -   """
0.15,4.36406,0.0003748615, NaN, NaN, NaN,0.06164927," ""- N/A -   """
0.16,4.59995,0.000397076, NaN, NaN, NaN,0.0579869," ""- N/A -   """
0.17,4.83585,0.0004192895, NaN, NaN, NaN,0.05676616," ""- N/A -   """
0.18,4.953794,0.000441504, NaN, NaN, NaN,0.0543246," ""- N/A -   """
0.19,5.18969,0.000463718, NaN, NaN, NaN,0.05066227," ""- N/A -   """
0.2,5.425584,0.0004887083, NaN, NaN, NaN,0.0482207," ""- N/A -   """
0.21,5.66148,0.000510922, NaN, NaN, NaN,0.04577916," ""- N/A -   """
0.22,5.897373,0.000533136, NaN, NaN, NaN,0.04211683," ""- N/A -   """
0.23,6.01532,0.0005581271, NaN, NaN, NaN,0.0396753," ""- N/A -   """
0.24,6.251216,0.000577564, NaN, NaN, NaN,0.0384545," ""- N/A -   """
0.25,6.369163,0.000597002, NaN, NaN, NaN,0.03601294," ""- N/A -   """
0.26,6.487111,0.0006164389, NaN, NaN, NaN,0.0347922," ""- N/A -   """
0.27,6.723006,0.000635876, NaN, NaN, NaN,0.0335714," ""- N/A -   """
0.28,6.84095,0.0006525367, NaN, NaN, NaN,0.0347922," ""- N/A -   """
0.29,7.07685,0.0006691972, NaN, NaN, NaN,0.0347922," ""- N/A -   """
0.3,7.1948,0.0006858577, NaN, NaN, NaN,0.0335714," ""- N/A -   """
0.31,7.430691,0.000705295, NaN, NaN, NaN,0.0323506," ""- N/A -   """
0.32,7.548638,0.0007219555, NaN, NaN, NaN,0.0323506," ""- N/A -   """
0.33,7.784533,0.000738616, NaN, NaN, NaN,0.0323506," ""- N/A -   """
0.34,7.90248,0.0007525, NaN, NaN, NaN,0.0335714," ""- N/A -   """
0.35,8.020428,0.0007691603, NaN, NaN, NaN,0.0335714," ""- N/A -   """
0.36,8.138375,0.0007885975, NaN, NaN, NaN,0.0335714," ""- N/A -   """
0.37,8.256323,0.000802481, NaN, NaN, NaN,0.0335714," ""- N/A -   """
0.38,8.37427,0.0008191418, NaN, NaN, NaN,0.0347922," ""- N/A -   """
0.39,8.492218,0.000833026, NaN, NaN, NaN,0.0347922," ""- N/A -   """
0.4,8.728113,0.000849686, NaN, NaN, NaN,0.0347922," ""- N/A -   """
0.41,8.964007,0.0008663466, NaN, NaN, NaN,0.0347922," ""- N/A -   """
0.42,9.081955,0.00088023, NaN, NaN, NaN,0.03601294," ""- N/A -   """
0.43,9.199903,0.0008941141, NaN, NaN, NaN,0.0372337," ""- N/A -   """
0.44,9.31785,0.0009107746, NaN, NaN, NaN,0.0372337," ""- N/A -   """
0.45,9.553744,0.0009274351, NaN, NaN, NaN,0.0372337," ""- N/A -   """
0.46,9.671693,0.000941319, NaN, NaN, NaN,0.0384545," ""- N/A -   """
0.47,9.907588,0.0009552026, NaN, NaN, NaN,0.0396753," ""- N/A -   """
0.48,9.907588,0.000971863, NaN, NaN, NaN,0.0396753," ""- N/A -   """
0.49,10.1435,0.0009885236, NaN, NaN, NaN,0.04089605," ""- N/A -   """
0.5,10.3794,0.00100241, NaN, NaN, NaN,0.04089605," ""- N/A -   """
0.51,10.3794,0.00102184, NaN, NaN, NaN,0.0396753," ""- N/A -   """
0.52,10.6153,0.00103851, NaN, NaN, NaN,0.0396753," ""- N/A -   """
0.53,10.8512,0.00105794, NaN, NaN, NaN,0.0396753," ""- N/A -   """
0.54,10.9691,0.001074603, NaN, NaN, NaN,0.0396753," ""- N/A -   """
0.55,11.205,0.00109126, NaN, NaN, NaN,0.0384545," ""- N/A -   """
0.56,11.323,0.0011107, NaN, NaN, NaN,0.0384545," ""- N/A -   """
0.57,11.5589,0.00112458, NaN, NaN, NaN,0.0384545," ""- N/A -   """
0.58,11.5589,0.00113847, NaN, NaN, NaN,0.0396753," ""- N/A -   """
0.59,11.7947,0.00115513, NaN, NaN, NaN,0.0396753," ""- N/A -   """
0.6,12.0306,0.00117179, NaN, NaN, NaN,0.04089605," ""- N/A -   """
0.61,12.0306,0.001185673, NaN, NaN, NaN,0.04089605," ""- N/A -   """
0.62,12.2665,0.00120233, NaN, NaN, NaN,0.04089605," ""- N/A -   """
0.63,12.3845,0.001218994, NaN, NaN, NaN,0.04089605," ""- N/A -   """
0.64,12.5024,0.00123288, NaN, NaN, NaN,0.04211683," ""- N/A -   """
0.65,12.7383,0.00124954, NaN, NaN, NaN,0.04211683," ""- N/A -   """
0.66,12.8563,0.0012662, NaN, NaN, NaN,0.04211683," ""- N/A -   """
0.67,13.09217,0.00128286, NaN, NaN, NaN,0.04211683," ""- N/A -   """
0.68,13.2101,0.00129952, NaN, NaN, NaN,0.0433376," ""- N/A -   """
0.69,13.446,0.0013134, NaN, NaN, NaN,0.0433376," ""- N/A -   """
0.7,13.564,0.00132729, NaN, NaN, NaN,0.0445584," ""- N/A -   """
0.71,13.7999,0.00134395, NaN, NaN, NaN,0.0445584," ""- N/A -   """
0.72,13.9178,0.00136061, NaN, NaN, NaN,0.0445584," ""- N/A -   """
0.73,14.1537,0.00138005, NaN, NaN, NaN,0.0433376," ""- N/A -   """
0.74,14.2716,0.001399483, NaN, NaN, NaN,0.04211683," ""- N/A -   """
0.75,14.5075,0.00141614, NaN, NaN, NaN,0.04211683," ""- N/A -   """
0.76,14.7434,0.00143558, NaN, NaN, NaN,0.04089605," ""- N/A -   """
0.77,14.8614,0.001455018, NaN, NaN, NaN,0.0396753," ""- N/A -   """
0.78,15.2152,0.001477232, NaN, NaN, NaN,0.0384545," ""- N/A -   """
0.79,15.4511,0.00149667, NaN, NaN, NaN,0.0372337," ""- N/A -   """
0.8,15.687,0.00151611, NaN, NaN, NaN,0.03601294," ""- N/A -   """
0.81,15.805,0.00153554, NaN, NaN, NaN,0.0347922," ""- N/A -   """
0.82,16.0409,0.00154943, NaN, NaN, NaN,0.0347922," ""- N/A -   """
0.83,16.27675,0.00156886, NaN, NaN, NaN,0.0335714," ""- N/A -   """
0.84,16.5126,0.0015883, NaN, NaN, NaN,0.0323506," ""- N/A -   """
0.85,16.6306,0.00160774, NaN, NaN, NaN,0.0323506," ""- N/A -   """
0.86,16.86649,0.00162718, NaN, NaN, NaN,0.03112983," ""- N/A -   """
0.87,17.1024,0.00164384, NaN, NaN, NaN,0.0299091," ""- N/A -   """
0.88,17.2203,0.0016605, NaN, NaN, NaN,0.0299091," ""- N/A -   """
0.89,17.4562,0.00167993, NaN, NaN, NaN,0.0299091," ""- N/A -   """
0.9,17.5742,0.0016966, NaN, NaN, NaN,0.0299091," ""- N/A -   """
0.91,17.8101,0.00171048, NaN, NaN, NaN,0.0299091," ""- N/A -   """
0.92,17.928,0.00172714, NaN, NaN, NaN,0.0299091," ""- N/A -   """
0.93,18.046,0.00174102, NaN, NaN, NaN,0.03112983," ""- N/A -   """
0.94,18.2819,0.00175768, NaN, NaN, NaN,0.03112983," ""- N/A -   """
0.95,18.3998,0.00177434, NaN, NaN, NaN,0.0323506," ""- N/A -   """
0.96,18.6357,0.00178823, NaN, NaN, NaN,0.0323506," ""- N/A -   """
0.97,18.7536,0.001802112, NaN, NaN, NaN,0.0335714," ""- N/A -   """
0.98,18.9895,0.00181877, NaN, NaN, NaN,0.0347922," ""- N/A -   """
0.99,19.1075,0.00183266, NaN, NaN, NaN,0.0347922," ""- N/A -   """
1,19.3434,0.00184932, NaN, NaN, NaN,0.03601294," ""- N/A -   """
1.01,19.3434,0.0018632, NaN, NaN, NaN,0.03601294," ""- N/A -   """
1.02,19.57928,0.001879861, NaN, NaN, NaN,0.03601294," ""- N/A -   """
1.03,19.8152,0.00189374, NaN, NaN, NaN,0.0372337," ""- N/A -   """
1.04,20.05107,0.00191041, NaN, NaN, NaN,0.0372337," ""- N/A -   """
1.05,20.169,0.00192707, NaN, NaN, NaN,0.0372337," ""- N/A -   """
1.06,20.4049,0.00194373, NaN, NaN, NaN,0.0372337," ""- N/A -   """
1.07,20.6408,0.00196316, NaN, NaN, NaN,0.03601294," ""- N/A -   """
1.08,20.7588,0.001982601, NaN, NaN, NaN,0.03601294," ""- N/A -   """
1.09,21.1126,0.00199926, NaN, NaN, NaN,0.0347922," ""- N/A -   """
1.1,21.2305,0.0020187, NaN, NaN, NaN,0.0347922," ""- N/A -   """
1.11,21.46644,0.00203536, NaN, NaN, NaN,0.0335714," ""- N/A -   """
1.12,21.7023,0.00205202, NaN, NaN, NaN,0.0335714," ""- N/A -   """
1.13,21.8203,0.00206868, NaN, NaN, NaN,0.0335714," ""- N/A -   """
1.14,22.0562,0.00208534, NaN, NaN, NaN,0.0335714," ""- N/A -   """
1.15,22.1741,0.002102001, NaN, NaN, NaN,0.0335714," ""- N/A -   """
1.16,22.41,0.00211866, NaN, NaN, NaN,0.0335714," ""- N/A -   """
1.17,22.6459,0.002138099, NaN, NaN, NaN,0.0335714," ""- N/A -   """
1.18,22.7639,0.00215198, NaN, NaN, NaN,0.0335714," ""- N/A -   """
1.19,22.9998,0.002168643, NaN, NaN, NaN,0.0335714," ""- N/A -   """
1.2,23.2357,0.0021853, NaN, NaN, NaN,0.0335714," ""- N/A -   """
1.21,23.3536,0.00219919, NaN, NaN, NaN,0.0347922," ""- N/A -   """
1.22,23.5895,0.00221585, NaN, NaN, NaN,0.0347922," ""- N/A -   """
1.23,23.82539,0.00223251, NaN, NaN, NaN,0.0347922," ""- N/A -   """
1.24,24.0613,0.002249169, NaN, NaN, NaN,0.03601294," ""- N/A -   """
1.25,24.1792,0.00226305, NaN, NaN, NaN,0.03601294," ""- N/A -   """
1.26,24.29718,0.00227694, NaN, NaN, NaN,0.0372337," ""- N/A -   """
1.27,24.4151,0.00229082, NaN, NaN, NaN,0.0396753," ""- N/A -   """
1.28,24.5331,0.0023047, NaN, NaN, NaN,0.0396753," ""- N/A -   """
1.29,24.769,0.00231859, NaN, NaN, NaN,0.04089605," ""- N/A -   """
1.3,24.8869,0.00233247, NaN, NaN, NaN,0.04211683," ""- N/A -   """
1.31,25.0049,0.00234913, NaN, NaN, NaN,0.0433376," ""- N/A -   """
1.32,25.3587,0.00236579, NaN, NaN, NaN,0.04211683," ""- N/A -   """
1.33,25.5946,0.00238245, NaN, NaN, NaN,0.0433376," ""- N/A -   """
1.34,25.7125,0.00239911, NaN, NaN, NaN,0.04211683," ""- N/A -   """
1.35,25.8305,0.00241855, NaN, NaN, NaN,0.04211683," ""- N/A -   """
1.36,26.0664,0.00243521, NaN, NaN, NaN,0.04089605," ""- N/A -   """
1.37,26.4202,0.00245187, NaN, NaN, NaN,0.04211683," ""- N/A -   """
1.38,26.5382,0.00246853, NaN, NaN, NaN,0.04211683," ""- N/A -   """
1.39,26.7741,0.00248242, NaN, NaN, NaN,0.04211683," ""- N/A -   """
1.4,27.01,0.00250185, NaN, NaN, NaN,0.04089605," ""- N/A -   """
1.41,27.1279,0.00251851, NaN, NaN, NaN,0.04211683," ""- N/A -   """
1.42,27.3638,0.00253517, NaN, NaN, NaN,0.04089605," ""- N/A -   """
1.43,27.5997,0.00255183, NaN, NaN, NaN,0.04089605," ""- N/A -   """
1.44,27.95355,0.00257127, NaN, NaN, NaN,0.04089605," ""- N/A -   """
1.45,28.0715,0.00258793, NaN, NaN, NaN,0.0396753," ""- N/A -   """
1.46,28.42534,0.00260737, NaN, NaN, NaN,0.0384545," ""- N/A -   """
1.47,28.6612,0.00262681, NaN, NaN, NaN,0.0372337," ""- N/A -   """
1.48,28.7792,0.00264347, NaN, NaN, NaN,0.0384545," ""- N/A -   """
1.49,29.133,0.00266013, NaN, NaN, NaN,0.0372337," ""- N/A -   """
1.5,29.251,0.00267679, NaN, NaN, NaN,0.0372337," ""- N/A -   """
1.51,29.3689,0.00269345, NaN, NaN, NaN,0.0372337," ""- N/A -   """
1.52,29.6048,0.00271289, NaN, NaN, NaN,0.0372337," ""- N/A -   """
1.53,29.84071,0.00272677, NaN, NaN, NaN,0.0372337," ""- N/A -   """
1.54,30.0766,0.00274621, NaN, NaN, NaN,0.0372337," ""- N/A -   """
1.55,30.4304,0.00276009, NaN, NaN, NaN,0.0372337," ""- N/A -   """
1.56,30.5484,0.00277953, NaN, NaN, NaN,0.03601294," ""- N/A -   """
1.57,30.78429,0.002798966, NaN, NaN, NaN,0.03601294," ""- N/A -   """
1.58,31.0202,0.00281563, NaN, NaN, NaN,0.0347922," ""- N/A -   """
1.59,31.2561,0.00283229, NaN, NaN, NaN,0.03601294," ""- N/A -   """
1.6,31.492,0.00284895, NaN, NaN, NaN,0.0347922," ""- N/A -   """
1.61,31.6099,0.00286561, NaN, NaN, NaN,0.0347922," ""- N/A -   """
1.62,31.8458,0.00288227, NaN, NaN, NaN,0.03601294," ""- N/A -   """
1.63,32.08171,0.002898929, NaN, NaN, NaN,0.0347922," ""- N/A -   """
1.64,32.3176,0.00291559, NaN, NaN, NaN,0.0347922," ""- N/A -   """
1.65,32.5535,0.00293503, NaN, NaN, NaN,0.0347922," ""- N/A -   """
1.66,32.7894,0.002951687, NaN, NaN, NaN,0.0335714," ""- N/A -   """
1.67,33.02529,0.00296835, NaN, NaN, NaN,0.0335714," ""- N/A -   """
1.68,33.1432,0.002985008, NaN, NaN, NaN,0.0335714," ""- N/A -   """
1.69,33.3791,0.003001669, NaN, NaN, NaN,0.0335714," ""- N/A -   """
1.7,33.73298,0.00301833, NaN, NaN, NaN,0.0335714," ""- N/A -   """
1.71,33.8509,0.00303777, NaN, NaN, NaN,0.0335714," ""- N/A -   """
1.72,34.08682,0.003054427, NaN, NaN, NaN,0.0335714," ""- N/A -   """
1.73,34.2048,0.00307109, NaN, NaN, NaN,0.0323506," ""- N/A -   """
1.74,34.4407,0.003087748, NaN, NaN, NaN,0.0335714," ""- N/A -   """
1.75,34.6766,0.00310441, NaN, NaN, NaN,0.0335714," ""- N/A -   """
1.76,35.0304,0.003121069, NaN, NaN, NaN,0.0335714," ""- N/A -   """
1.77,35.1483,0.00313495, NaN, NaN, NaN,0.0335714," ""- N/A -   """
1.78,35.3842,0.003151613, NaN, NaN, NaN,0.0335714," ""- N/A -   """
1.79,35.6201,0.003168274, NaN, NaN, NaN,0.0335714," ""- N/A -   """
1.8,35.7381,0.00318493, NaN, NaN, NaN,0.0335714," ""- N/A -   """
1.81,35.97398,0.003198818, NaN, NaN, NaN,0.0347922," ""- N/A -   """
1.82,36.32782,0.00321826, NaN, NaN, NaN,0.0347922," ""- N/A -   """
1.83,36.32782,0.00323214, NaN, NaN, NaN,0.0347922," ""- N/A -   """
1.84,36.5637,0.0032488, NaN, NaN, NaN,0.0347922," ""- N/A -   """
1.85,36.79961,0.00326546, NaN, NaN, NaN,0.03601294," ""- N/A -   """
1.86,37.0355,0.003279344, NaN, NaN, NaN,0.03601294," ""- N/A -   """
1.87,37.2714,0.003296, NaN, NaN, NaN,0.03601294," ""- N/A -   """
1.88,37.5073,0.003312665, NaN, NaN, NaN,0.03601294," ""- N/A -   """
1.89,37.74319,0.00332933, NaN, NaN, NaN,0.03601294," ""- N/A -   """
1.9,37.9791,0.00334876, NaN, NaN, NaN,0.03601294," ""- N/A -   """
1.91,38.215,0.00336542, NaN, NaN, NaN,0.0347922," ""- N/A -   """
1.92,38.4509,0.003382084, NaN, NaN, NaN,0.0347922," ""- N/A -   """
1.93,38.68677,0.00339874, NaN, NaN, NaN,0.0347922," ""- N/A -   """
1.94,38.9227,0.003415405, NaN, NaN, NaN,0.0347922," ""- N/A -   """
1.95,39.15856,0.00342929, NaN, NaN, NaN,0.03601294," ""- N/A -   """
1.96,39.2765,0.00344595, NaN, NaN, NaN,0.03601294," ""- N/A -   """
1.97,39.5124,0.003459833, NaN, NaN, NaN,0.0372337," ""- N/A -   """
1.98,39.7483,0.00347372, NaN, NaN, NaN,0.0384545," ""- N/A -   """
1.99,39.98419,0.003493154, NaN, NaN, NaN,0.0372337," ""- N/A -   """
2,40.22009,0.00350981, NaN, NaN, NaN,0.0384545," ""- N/A -   """
2.01,40.33803,0.003526475, NaN, NaN, NaN,0.0372337," ""- N/A -   """
2.02,40.69188,0.00354036, NaN, NaN, NaN,0.0384545," ""- N/A -   """
2.03,40.69188,0.00355702, NaN, NaN, NaN,0.0384545," ""- N/A -   """
2.04,40.9278,0.00357368, NaN, NaN, NaN,0.0396753," ""- N/A -   """
2.05,41.2816,0.00359034, NaN, NaN, NaN,0.0396753," ""- N/A -   """
2.06,41.51751,0.003607, NaN, NaN, NaN,0.0396753," ""- N/A -   """
2.07,41.7534,0.00362088, NaN, NaN, NaN,0.0396753," ""- N/A -   """
2.08,41.8714,0.003637545, NaN, NaN, NaN,0.0396753," ""- N/A -   """
2.09,41.9893,0.00365143, NaN, NaN, NaN,0.04089605," ""- N/A -   """
2.1,42.2252,0.00366809, NaN, NaN, NaN,0.04211683," ""- N/A -   """
2.11,42.4611,0.003681973, NaN, NaN, NaN,0.04211683," ""- N/A -   """
2.12,42.8149,0.00369863, NaN, NaN, NaN,0.04211683," ""- N/A -   """
2.13,43.0508,0.00371807, NaN, NaN, NaN,0.04211683," ""- N/A -   """
2.14,43.2867,0.00373473, NaN, NaN, NaN,0.04211683," ""- N/A -   """
2.15,43.40467,0.00375139, NaN, NaN, NaN,0.04089605," ""- N/A -   """
2.16,43.6406,0.00376805, NaN, NaN, NaN,0.04089605," ""- N/A -   """
2.17,43.87646,0.00378471, NaN, NaN, NaN,0.04089605," ""- N/A -   """
2.18,44.1124,0.00380137, NaN, NaN, NaN,0.04089605," ""- N/A -   """
2.19,44.4662,0.00382081, NaN, NaN, NaN,0.0396753," ""- N/A -   """
2.2,44.70209,0.00383747, NaN, NaN, NaN,0.0396753," ""- N/A -   """
2.21,44.82,0.00385691, NaN, NaN, NaN,0.0384545," ""- N/A -   """
2.22,45.17388,0.00387635, NaN, NaN, NaN,0.0384545," ""- N/A -   """
2.23,45.5277,0.00389301, NaN, NaN, NaN,0.0372337," ""- N/A -   """
2.24,45.6457,0.00391244, NaN, NaN, NaN,0.0372337," ""- N/A -   """
2.25,45.8816,0.0039291, NaN, NaN, NaN,0.03601294," ""- N/A -   """
2.26,46.23541,0.00394576, NaN, NaN, NaN,0.03601294," ""- N/A -   """
2.27,46.4713,0.003965202, NaN, NaN, NaN,0.0347922," ""- N/A -   """
2.28,46.7072,0.003981862, NaN, NaN, NaN,0.0347922," ""- N/A -   """
2.29,46.9431,0.0040013, NaN, NaN, NaN,0.0335714," ""- N/A -   """
2.3,47.179,0.00402074, NaN, NaN, NaN,0.0335714," ""- N/A -   """
2.31,47.2969,0.0040374, NaN, NaN, NaN,0.0335714," ""- N/A -   """
2.32,47.7687,0.00405406, NaN, NaN, NaN,0.0335714," ""- N/A -   """
2.33,47.8867,0.00406794, NaN, NaN, NaN,0.0335714," ""- N/A -   """
2.34,48.12257,0.004084602, NaN, NaN, NaN,0.0335714," ""- N/A -   """
2.35,48.3585,0.00410126, NaN, NaN, NaN,0.0335714," ""- N/A -   """
2.36,48.59436,0.0041207, NaN, NaN, NaN,0.0323506," ""- N/A -   """
2.37,48.7123,0.00413458, NaN, NaN, NaN,0.0335714," ""- N/A -   """
2.38,48.9482,0.00415124, NaN, NaN, NaN,0.0335714," ""- N/A -   """
2.39,49.1841,0.004165128, NaN, NaN, NaN,0.0347922," ""- N/A -   """
2.4,49.5379,0.00418179, NaN, NaN, NaN,0.0347922," ""- N/A -   """
2.41,49.6559,0.00419845, NaN, NaN, NaN,0.0347922," ""- N/A -   """
2.42,49.8918,0.00421511, NaN, NaN, NaN,0.0347922," ""- N/A -   """
2.43,50.1277,0.004234547, NaN, NaN, NaN,0.0347922," ""- N/A -   """
2.44,50.4815,0.004253984, NaN, NaN, NaN,0.0335714," ""- N/A -   """
2.45,50.5995,0.00427064, NaN, NaN, NaN,0.0323506," ""- N/A -   """
2.46,50.83536,0.004287305, NaN, NaN, NaN,0.0323506," ""- N/A -   """
2.47,51.1892,0.004306742, NaN, NaN, NaN,0.03112983," ""- N/A -   """
2.48,51.543,0.00432618, NaN, NaN, NaN,0.0299091," ""- N/A -   """
2.49,51.7789,0.00434284, NaN, NaN, NaN,0.0299091," ""- N/A -   """
2.5,52.01483,0.00436228, NaN, NaN, NaN,0.0299091," ""- N/A -   """
2.51,52.25073,0.00437894, NaN, NaN, NaN,0.0286883," ""- N/A -   """
2.52,52.48662,0.004395598, NaN, NaN, NaN,0.0299091," ""- N/A -   """
2.53,52.72252,0.004409482, NaN, NaN, NaN,0.0299091," ""- N/A -   """
2.54,52.9584,0.00442614, NaN, NaN, NaN,0.0299091," ""- N/A -   """
2.55,53.0764,0.004442803, NaN, NaN, NaN,0.0299091," ""- N/A -   """
2.56,53.3123,0.00445946, NaN, NaN, NaN,0.0299091," ""- N/A -   """
2.57,53.54815,0.004476124, NaN, NaN, NaN,0.0299091," ""- N/A -   """
2.58,53.902,0.00449001, NaN, NaN, NaN,0.0323506," ""- N/A -   """
2.59,54.13789,0.004503892, NaN, NaN, NaN,0.0323506," ""- N/A -   """
2.6,54.2558,0.004520552, NaN, NaN, NaN,0.0335714," ""- N/A -   """
2.61,54.4917,0.004534436, NaN, NaN, NaN,0.0335714," ""- N/A -   """
2.62,54.7276,0.004551096, NaN, NaN, NaN,0.0347922," ""- N/A -   """
2.63,54.8456,0.00456498, NaN, NaN, NaN,0.0347922," ""- N/A -   """
2.64,55.0815,0.00457886, NaN, NaN, NaN,0.03601294," ""- N/A -   """
2.65,55.3174,0.004592748, NaN, NaN, NaN,0.0372337," ""- N/A -   """
2.66,55.43531,0.004606631, NaN, NaN, NaN,0.0384545," ""- N/A -   """
2.67,55.6712,0.004620515, NaN, NaN, NaN,0.0396753," ""- N/A -   """
2.68,55.7892,0.004634399, NaN, NaN, NaN,0.04211683," ""- N/A -   """
2.69,56.02505,0.00464828, NaN, NaN, NaN,0.0433376," ""- N/A -   """
2.7,56.2609,0.00466217, NaN, NaN, NaN,0.0433376," ""- N/A -   """
2.71,56.4968,0.00467605, NaN, NaN, NaN,0.0445584," ""- N/A -   """
2.72,56.73273,0.004692711, NaN, NaN, NaN,0.04577916," ""- N/A -   """
2.73,56.9686,0.00470659, NaN, NaN, NaN,0.04699994," ""- N/A -   """
2.74,57.20452,0.004720478, NaN, NaN, NaN,0.04699994," ""- N/A -   """
2.75,57.44042,0.00473714, NaN, NaN, NaN,0.04699994," ""- N/A -   """
2.76,57.6763,0.004753799, NaN, NaN, NaN,0.04699994," ""- N/A -   """
2.77,57.91221,0.004773237, NaN, NaN, NaN,0.04699994," ""- N/A -   """
2.78,58.1481,0.0047899, NaN, NaN, NaN,0.04577916," ""- N/A -   """
2.79,58.6199,0.00480656, NaN, NaN, NaN,0.04577916," ""- N/A -   """
2.8,58.8558,0.004823218, NaN, NaN, NaN,0.04577916," ""- N/A -   """
2.81,59.0917,0.004845432, NaN, NaN, NaN,0.0445584," ""- N/A -   """
2.82,59.4455,0.004864869, NaN, NaN, NaN,0.0433376," ""- N/A -   """
2.83,59.68142,0.004884307, NaN, NaN, NaN,0.04211683," ""- N/A -   """
2.84,59.9173,0.004903744, NaN, NaN, NaN,0.0396753," ""- N/A -   """
2.85,60.27116,0.004923181, NaN, NaN, NaN,0.0396753," ""- N/A -   """
2.86,60.5071,0.004939842, NaN, NaN, NaN,0.0384545," ""- N/A -   """
2.87,60.7429,0.004959279, NaN, NaN, NaN,0.0384545," ""- N/A -   """
2.88,60.97884,0.004975939, NaN, NaN, NaN,0.0372337," ""- N/A -   """
2.89,61.3327,0.0049926, NaN, NaN, NaN,0.0372337," ""- N/A -   """
2.9,61.6865,0.005012037, NaN, NaN, NaN,0.03601294," ""- N/A -   """
2.91,61.9224,0.00503147, NaN, NaN, NaN,0.03601294," ""- N/A -   """
2.92,62.1583,0.00504814, NaN, NaN, NaN,0.0347922," ""- N/A -   """
2.93,62.3942,0.0050648, NaN, NaN, NaN,0.0347922," ""- N/A -   """
2.94,62.7481,0.005081456, NaN, NaN, NaN,0.0347922," ""- N/A -   """
2.95,62.98395,0.00510089, NaN, NaN, NaN,0.0347922," ""- N/A -   """
2.96,63.2198,0.005117554, NaN, NaN, NaN,0.0335714," ""- N/A -   """
2.97,63.45574,0.005134214, NaN, NaN, NaN,0.0347922," ""- N/A -   """
2.98,63.6916,0.005150875, NaN, NaN, NaN,0.0335714," ""- N/A -   """
2.99,64.04548,0.005167535, NaN, NaN, NaN,0.0335714," ""- N/A -   """
3,64.28137,0.005186972, NaN, NaN, NaN,0.0323506," ""- N/A -   """
3.01,64.5173,0.00520641, NaN, NaN, NaN,0.0323506," ""- N/A -   """
3.02,64.87111,0.005225847, NaN, NaN, NaN,0.03112983," ""- N/A -   """
3.03,65.107,0.00524251, NaN, NaN, NaN,0.0299091," ""- N/A -   """
3.04,65.3429,0.00525917, NaN, NaN, NaN,0.0299091," ""- N/A -   """
3.05,65.69674,0.00527583, NaN, NaN, NaN,0.0299091," ""- N/A -   """
3.06,65.93263,0.005292489, NaN, NaN, NaN,0.0299091," ""- N/A -   """
3.07,66.16853,0.00531193, NaN, NaN, NaN,0.0299091," ""- N/A -   """
3.08,66.40443,0.00532859, NaN, NaN, NaN,0.0299091," ""- N/A -   """
3.09,66.64032,0.005345247, NaN, NaN, NaN,0.0286883," ""- N/A -   """
3.1,66.99416,0.005361908, NaN, NaN, NaN,0.0299091," ""- N/A -   """
3.11,67.23006,0.00537579, NaN, NaN, NaN,0.0299091," ""- N/A -   """
3.12,67.46596,0.00539245, NaN, NaN, NaN,0.0299091," ""- N/A -   """
3.13,67.70185,0.00541189, NaN, NaN, NaN,0.0286883," ""- N/A -   """
3.14,68.05569,0.00542855, NaN, NaN, NaN,0.0286883," ""- N/A -   """
3.15,68.40953,0.00544799, NaN, NaN, NaN,0.0274675," ""- N/A -   """
3.16,68.52748,0.00546465, NaN, NaN, NaN,0.0274675," ""- N/A -   """
3.17,68.8813,0.00548131, NaN, NaN, NaN,0.0286883," ""- N/A -   """
3.18,68.9993,0.00549519, NaN, NaN, NaN,0.0286883," ""- N/A -   """
3.19,69.35311,0.00551185, NaN, NaN, NaN,0.0299091," ""- N/A -   """
3.2,69.589,0.00552574, NaN, NaN, NaN,0.0299091," ""- N/A -   """
3.21,69.707,0.00553962, NaN, NaN, NaN,0.03112983," ""- N/A -   """
3.22,69.94285,0.0055535, NaN, NaN, NaN,0.0323506," ""- N/A -   """
3.23,70.17874,0.00556739, NaN, NaN, NaN,0.0335714," ""- N/A -   """
3.24,70.41464,0.00558127, NaN, NaN, NaN,0.0347922," ""- N/A -   """
3.25,70.5326,0.00559516, NaN, NaN, NaN,0.03601294," ""- N/A -   """
3.26,70.88643,0.00560904, NaN, NaN, NaN,0.0372337," ""- N/A -   """
3.27,71.00438,0.00562292, NaN, NaN, NaN,0.0384545," ""- N/A -   """
3.28,71.24027,0.00563958, NaN, NaN, NaN,0.0384545," ""- N/A -   """
3.29,71.4762,0.00565347, NaN, NaN, NaN,0.0396753," ""- N/A -   """
3.3,71.71206,0.00566735, NaN, NaN, NaN,0.04089605," ""- N/A -   """
3.31,71.94796,0.00568123, NaN, NaN, NaN,0.04211683," ""- N/A -   """
3.32,72.06591,0.00569512, NaN, NaN, NaN,0.0433376," ""- N/A -   """
3.33,72.3018,0.005709002, NaN, NaN, NaN,0.0445584," ""- N/A -   """
3.34,72.65564,0.00572566, NaN, NaN, NaN,0.0445584," ""- N/A -   """
3.35,72.89154,0.00573955, NaN, NaN, NaN,0.04577916," ""- N/A -   """
3.36,73.12743,0.005756207, NaN, NaN, NaN,0.04577916," ""- N/A -   """
3.37,73.48127,0.00577287, NaN, NaN, NaN,0.04577916," ""- N/A -   """
3.38,73.83511,0.0057923, NaN, NaN, NaN,0.0445584," ""- N/A -   """
3.39,74.071,0.005808965, NaN, NaN, NaN,0.0445584," ""- N/A -   """
3.4,74.42485,0.0058284, NaN, NaN, NaN,0.0445584," ""- N/A -   """
3.41,74.7787,0.005845063, NaN, NaN, NaN,0.0433376," ""- N/A -   """
3.42,75.13254,0.00586172, NaN, NaN, NaN,0.0433376," ""- N/A -   """
3.43,75.36844,0.00588116, NaN, NaN, NaN,0.04211683," ""- N/A -   """
3.44,75.48638,0.00589504, NaN, NaN, NaN,0.0433376," ""- N/A -   """
3.45,75.8402,0.0059117, NaN, NaN, NaN,0.0433376," ""- N/A -   """
3.46,76.19407,0.00592837, NaN, NaN, NaN,0.0433376," ""- N/A -   """
3.47,76.43,0.005945026, NaN, NaN, NaN,0.0445584," ""- N/A -   """
3.48,76.7838,0.005964463, NaN, NaN, NaN,0.0433376," ""- N/A -   """
3.49,77.13765,0.0059839, NaN, NaN, NaN,0.04211683," ""- N/A -   """
3.5,77.37354,0.006003338, NaN, NaN, NaN,0.04089605," ""- N/A -   """
3.51,77.72738,0.006019998, NaN, NaN, NaN,0.04089605," ""- N/A -   """
3.52,78.08122,0.00603944, NaN, NaN, NaN,0.04089605," ""- N/A -   """
3.53,78.31712,0.006056096, NaN, NaN, NaN,0.0396753," ""- N/A -   """
3.54,78.67096,0.006072757, NaN, NaN, NaN,0.0396753," ""- N/A -   """
3.55,79.14275,0.00609219, NaN, NaN, NaN,0.0396753," ""- N/A -   """
3.56,79.37865,0.006108854, NaN, NaN, NaN,0.0384545," ""- N/A -   """
3.57,79.61454,0.00612829, NaN, NaN, NaN,0.0372337," ""- N/A -   """
3.58,79.96838,0.006147729, NaN, NaN, NaN,0.0372337," ""- N/A -   """
3.59,80.32223,0.006164389, NaN, NaN, NaN,0.03601294," ""- N/A -   """
3.6,80.55813,0.006183827, NaN, NaN, NaN,0.03601294," ""- N/A -   """
3.61,81.0299,0.006200487, NaN, NaN, NaN,0.0347922," ""- N/A -   """
3.62,81.26581,0.006219924, NaN, NaN, NaN,0.0335714," ""- N/A -   """
3.63,81.61965,0.006236585, NaN, NaN, NaN,0.0335714," ""- N/A -   """
3.64,81.97349,0.0062588, NaN, NaN, NaN,0.0323506," ""- N/A -   """
3.65,82.32734,0.006275459, NaN, NaN, NaN,0.03112983," ""- N/A -   """
3.66,82.56323,0.00629212, NaN, NaN, NaN,0.03112983," ""- N/A -   """
3.67,82.91707,0.006311557, NaN, NaN, NaN,0.0299091," ""- N/A -   """
3.68,83.15297,0.006330994, NaN, NaN, NaN,0.0299091," ""- N/A -   """
3.69,83.6248,0.006347655, NaN, NaN, NaN,0.0286883," ""- N/A -   """
3.7,83.86065,0.006367092, NaN, NaN, NaN,0.0274675," ""- N/A -   """
3.71,84.21449,0.006383753, NaN, NaN, NaN,0.0274675," ""- N/A -   """
3.72,84.45039,0.006400413, NaN, NaN, NaN,0.0274675," ""- N/A -   """
3.73,84.80424,0.006417074, NaN, NaN, NaN,0.0274675," ""- N/A -   """
3.74,85.15807,0.006433734, NaN, NaN, NaN,0.0286883," ""- N/A -   """
3.75,85.39397,0.006447618, NaN, NaN, NaN,0.0286883," ""- N/A -   """
3.76,85.62987,0.006464279, NaN, NaN, NaN,0.0286883," ""- N/A -   """
3.77,85.86576,0.006480939, NaN, NaN, NaN,0.0299091," ""- N/A -   """
3.78,86.1017,0.006494823, NaN, NaN, NaN,0.03112983," ""- N/A -   """
3.79,86.4555,0.00650871, NaN, NaN, NaN,0.03112983," ""- N/A -   """
3.8,86.57345,0.00652259, NaN, NaN, NaN,0.0323506," ""- N/A -   """
3.81,86.92729,0.006536474, NaN, NaN, NaN,0.0335714," ""- N/A -   """
3.82,87.28113,0.006553135, NaN, NaN, NaN,0.0335714," ""- N/A -   """
3.83,87.51702,0.006567018, NaN, NaN, NaN,0.0347922," ""- N/A -   """
3.84,87.8709,0.006583679, NaN, NaN, NaN,0.0347922," ""- N/A -   """
3.85,88.10676,0.006600339, NaN, NaN, NaN,0.0347922," ""- N/A -   """
3.86,88.4606,0.006617, NaN, NaN, NaN,0.03601294," ""- N/A -   """
3.87,88.6965,0.006630884, NaN, NaN, NaN,0.03601294," ""- N/A -   """
3.88,89.05035,0.006650321, NaN, NaN, NaN,0.03601294," ""- N/A -   """
3.89,89.28623,0.006664205, NaN, NaN, NaN,0.03601294," ""- N/A -   """
3.9,89.6401,0.00668087, NaN, NaN, NaN,0.03601294," ""- N/A -   """
3.91,89.87598,0.00669753, NaN, NaN, NaN,0.03601294," ""- N/A -   """
3.92,90.22981,0.006714186, NaN, NaN, NaN,0.03601294," ""- N/A -   """
3.93,90.4657,0.006730847, NaN, NaN, NaN,0.03601294," ""- N/A -   """
3.94,90.81956,0.006747507, NaN, NaN, NaN,0.03601294," ""- N/A -   """
3.95,91.05545,0.006764168, NaN, NaN, NaN,0.03601294," ""- N/A -   """
3.96,91.40929,0.00678083, NaN, NaN, NaN,0.03601294," ""- N/A -   """
3.97,91.76313,0.006797489, NaN, NaN, NaN,0.03601294," ""- N/A -   """
3.98,91.88108,0.00681137, NaN, NaN, NaN,0.0372337," ""- N/A -   """
3.99,92.35287,0.006825256, NaN, NaN, NaN,0.0384545," ""- N/A -   """
4,92.58876,0.006841917, NaN, NaN, NaN,0.0384545," ""- N/A -   """
4.01,92.94261,0.00685858, NaN, NaN, NaN,0.0384545," ""- N/A -   """
4.02,93.1785,0.006872461, NaN, NaN, NaN,0.0396753," ""- N/A -   """
4.03,93.2965,0.006886345, NaN, NaN, NaN,0.04089605," ""- N/A -   """
4.04,93.65029,0.00690023, NaN, NaN, NaN,0.04211683," ""- N/A -   """
4.05,94.0041,0.00691411, NaN, NaN, NaN,0.0433376," ""- N/A -   """
4.06,94.24,0.006930773, NaN, NaN, NaN,0.0445584," ""- N/A -   """
4.07,94.35797,0.00694466, NaN, NaN, NaN,0.0445584," ""- N/A -   """
4.08,94.7118,0.00696132, NaN, NaN, NaN,0.0445584," ""- N/A -   """
4.09,94.9477,0.006977977, NaN, NaN, NaN,0.04577916," ""- N/A -   """
4.1,95.30156,0.006994638, NaN, NaN, NaN,0.04577916," ""- N/A -   """
4.11,95.5374,0.00700852, NaN, NaN, NaN,0.04577916," ""- N/A -   """
4.12,95.8913,0.00702518, NaN, NaN, NaN,0.04577916," ""- N/A -   """
4.13,96.24514,0.007041843, NaN, NaN, NaN,0.04577916," ""- N/A -   """
4.14,96.599,0.0070585, NaN, NaN, NaN,0.04577916," ""- N/A -   """
4.15,96.95282,0.007075164, NaN, NaN, NaN,0.04577916," ""- N/A -   """
4.16,97.30666,0.00709182, NaN, NaN, NaN,0.04577916," ""- N/A -   """
4.17,97.54256,0.00711126, NaN, NaN, NaN,0.0445584," ""- N/A -   """
4.18,98.01435,0.007130699, NaN, NaN, NaN,0.0433376," ""- N/A -   """
4.19,98.3682,0.007152913, NaN, NaN, NaN,0.04089605," ""- N/A -   """
4.2,98.72203,0.007175127, NaN, NaN, NaN,0.0396753," ""- N/A -   """
4.21,99.0759,0.007194564, NaN, NaN, NaN,0.0384545," ""- N/A -   """
4.22,99.54767,0.007214, NaN, NaN, NaN,0.0372337," ""- N/A -   """
4.23,100.019,0.00723344, NaN, NaN, NaN,0.0347922," ""- N/A -   """
4.24,100.255,0.0072501, NaN, NaN, NaN,0.0347922," ""- N/A -   """
4.25,100.6092,0.00726676, NaN, NaN, NaN,0.0347922," ""- N/A -   """
4.26,100.845,0.0072862, NaN, NaN, NaN,0.0335714," ""- N/A -   """
4.27,101.317,0.00730563, NaN, NaN, NaN,0.0323506," ""- N/A -   """
4.28,101.671,0.00732507, NaN, NaN, NaN,0.03112983," ""- N/A -   """
4.29,102.025,0.00734173, NaN, NaN, NaN,0.03112983," ""- N/A -   """
4.3,102.26,0.00736117, NaN, NaN, NaN,0.0299091," ""- N/A -   """
4.31,102.6143,0.00737783, NaN, NaN, NaN,0.0299091," ""- N/A -   """
4.32,102.968,0.00739171, NaN, NaN, NaN,0.03112983," ""- N/A -   """
4.33,103.086,0.00740837, NaN, NaN, NaN,0.03112983," ""- N/A -   """
4.34,103.44,0.00742503, NaN, NaN, NaN,0.0323506," ""- N/A -   """
4.35,103.794,0.0074417, NaN, NaN, NaN,0.0323506," ""- N/A -   """
4.36,104.03,0.00745558, NaN, NaN, NaN,0.0323506," ""- N/A -   """
4.37,104.384,0.00747224, NaN, NaN, NaN,0.0323506," ""- N/A -   """
4.38,104.619,0.00748612, NaN, NaN, NaN,0.0335714," ""- N/A -   """
4.39,104.973,0.00750278, NaN, NaN, NaN,0.0335714," ""- N/A -   """
4.4,105.209,0.00751667, NaN, NaN, NaN,0.0347922," ""- N/A -   """
4.41,105.445,0.007536105, NaN, NaN, NaN,0.0347922," ""- N/A -   """
4.42,105.799,0.00754999, NaN, NaN, NaN,0.0347922," ""- N/A -   """
4.43,106.035,0.007566649, NaN, NaN, NaN,0.03601294," ""- N/A -   """
4.44,106.389,0.00758053, NaN, NaN, NaN,0.03601294," ""- N/A -   """
4.45,106.742,0.00759719, NaN, NaN, NaN,0.03601294," ""- N/A -   """
4.46,107.0963,0.00761385, NaN, NaN, NaN,0.03601294," ""- N/A -   """
4.47,107.3322,0.00763051, NaN, NaN, NaN,0.03601294," ""- N/A -   """
4.48,107.804,0.00764995, NaN, NaN, NaN,0.03601294," ""- N/A -   """
4.49,108.04,0.007663836, NaN, NaN, NaN,0.03601294," ""- N/A -   """
4.5,108.394,0.00768327, NaN, NaN, NaN,0.0347922," ""- N/A -   """
4.51,108.748,0.00770271, NaN, NaN, NaN,0.0347922," ""- N/A -   """
4.52,109.101,0.007722147, NaN, NaN, NaN,0.0335714," ""- N/A -   """
4.53,109.455,0.00773881, NaN, NaN, NaN,0.0323506," ""- N/A -   """
4.54,109.8091,0.007758245, NaN, NaN, NaN,0.0323506," ""- N/A -   """
4.55,110.045,0.00777213, NaN, NaN, NaN,0.0323506," ""- N/A -   """
4.56,110.281,0.007788789, NaN, NaN, NaN,0.0323506," ""- N/A -   """
4.57,110.635,0.00780545, NaN, NaN, NaN,0.0323506," ""- N/A -   """
4.58,110.989,0.007819334, NaN, NaN, NaN,0.0335714," ""- N/A -   """
4.59,111.224,0.007835994, NaN, NaN, NaN,0.0335714," ""- N/A -   """
4.6,111.578,0.007852655, NaN, NaN, NaN,0.0335714," ""- N/A -   """
4.61,111.8142,0.007866538, NaN, NaN, NaN,0.0347922," ""- N/A -   """
4.62,112.0501,0.007883199, NaN, NaN, NaN,0.03601294," ""- N/A -   """
4.63,112.404,0.007897083, NaN, NaN, NaN,0.03601294," ""- N/A -   """
4.64,112.64,0.007910966, NaN, NaN, NaN,0.0372337," ""- N/A -   """
4.65,112.876,0.00792485, NaN, NaN, NaN,0.0384545," ""- N/A -   """
4.66,113.112,0.007938734, NaN, NaN, NaN,0.0396753," ""- N/A -   """
4.67,113.583,0.00795262, NaN, NaN, NaN,0.04089605," ""- N/A -   """
4.68,113.583,0.007966501, NaN, NaN, NaN,0.04211683," ""- N/A -   """
4.69,113.937,0.007983162, NaN, NaN, NaN,0.04211683," ""- N/A -   """
4.7,114.2911,0.007997046, NaN, NaN, NaN,0.0433376," ""- N/A -   """
4.71,114.527,0.008013706, NaN, NaN, NaN,0.0445584," ""- N/A -   """
4.72,114.881,0.008030367, NaN, NaN, NaN,0.0445584," ""- N/A -   """
4.73,115.235,0.008047027, NaN, NaN, NaN,0.0445584," ""- N/A -   """
4.74,115.589,0.008063688, NaN, NaN, NaN,0.0433376," ""- N/A -   """
4.75,115.942,0.008083125, NaN, NaN, NaN,0.0433376," ""- N/A -   """
4.76,116.178,0.008099785, NaN, NaN, NaN,0.04211683," ""- N/A -   """
4.77,116.768,0.008119223, NaN, NaN, NaN,0.04089605," ""- N/A -   """
4.78,117.004,0.008135883, NaN, NaN, NaN,0.04089605," ""- N/A -   """
4.79,117.358,0.00815532, NaN, NaN, NaN,0.0396753," ""- N/A -   """
4.8,117.712,0.008171981, NaN, NaN, NaN,0.0396753," ""- N/A -   """
4.81,118.065,0.008191418, NaN, NaN, NaN,0.0396753," ""- N/A -   """
4.82,118.419,0.008208079, NaN, NaN, NaN,0.0396753," ""- N/A -   """
4.83,118.7731,0.008224739, NaN, NaN, NaN,0.0396753," ""- N/A -   """
4.84,119.127,0.0082414, NaN, NaN, NaN,0.0396753," ""- N/A -   """
4.85,119.481,0.008258061, NaN, NaN, NaN,0.0384545," ""- N/A -   """
4.86,119.717,0.008274721, NaN, NaN, NaN,0.0384545," ""- N/A -   """
4.87,120.188,0.008294158, NaN, NaN, NaN,0.0372337," ""- N/A -   """
4.88,120.542,0.008313595, NaN, NaN, NaN,0.0372337," ""- N/A -   """
4.89,120.778,0.008330256, NaN, NaN, NaN,0.03601294," ""- N/A -   """
4.9,121.132,0.008346916, NaN, NaN, NaN,0.03601294," ""- N/A -   """
4.91,121.604,0.008363577, NaN, NaN, NaN,0.03601294," ""- N/A -   """
4.92,121.722,0.008380237, NaN, NaN, NaN,0.03601294," ""- N/A -   """
4.93,122.194,0.008396898, NaN, NaN, NaN,0.03601294," ""- N/A -   """
4.94,122.429,0.008413558, NaN, NaN, NaN,0.03601294," ""- N/A -   """
4.95,122.783,0.008430219, NaN, NaN, NaN,0.03601294," ""- N/A -   """
4.96,123.137,0.00844688, NaN, NaN, NaN,0.03601294," ""- N/A -   """
4.97,123.491,0.00846354, NaN, NaN, NaN,0.03601294," ""- N/A -   """
4.98,123.609,0.008480201, NaN, NaN, NaN,0.0372337," ""- N/A -   """
4.99,123.845,0.008494084, NaN, NaN, NaN,0.0372337," ""- N/A -   """
5,124.199,0.008510744, NaN, NaN, NaN,0.0372337," ""- N/A -   """
5.01,124.435,0.008524628, NaN, NaN, NaN,0.0384545," ""- N/A -   """
5.02,124.906,0.008544065, NaN, NaN, NaN,0.0384545," ""- N/A -   """
5.03,125.142,0.008560726, NaN, NaN, NaN,0.0384545," ""- N/A -   """
5.04,125.614,0.008577387, NaN, NaN, NaN,0.0372337," ""- N/A -   """
5.05,125.732,0.008594047, NaN, NaN, NaN,0.0372337," ""- N/A -   """
5.06,126.204,0.008613484, NaN, NaN, NaN,0.03601294," ""- N/A -   """
5.07,126.676,0.008630145, NaN, NaN, NaN,0.03601294," ""- N/A -   """
5.08,127.029,0.008649582, NaN, NaN, NaN,0.0347922," ""- N/A -   """
5.09,127.383,0.00866902, NaN, NaN, NaN,0.0347922," ""- N/A -   """
5.1,127.737,0.00868568, NaN, NaN, NaN,0.0335714," ""- N/A -   """
5.11,128.091,0.008705118, NaN, NaN, NaN,0.0323506," ""- N/A -   """
5.12,128.4448,0.008724554, NaN, NaN, NaN,0.0323506," ""- N/A -   """
5.13,128.799,0.008738439, NaN, NaN, NaN,0.0323506," ""- N/A -   """
5.14,129.035,0.008755099, NaN, NaN, NaN,0.0323506," ""- N/A -   """
5.15,129.388,0.008774537, NaN, NaN, NaN,0.03112983," ""- N/A -   """
5.16,129.742,0.008791196, NaN, NaN, NaN,0.03112983," ""- N/A -   """
5.17,129.978,0.00880786, NaN, NaN, NaN,0.03112983," ""- N/A -   """
5.18,130.332,0.008821741, NaN, NaN, NaN,0.0323506," ""- N/A -   """
5.19,130.6858,0.008838401, NaN, NaN, NaN,0.0323506," ""- N/A -   """
5.2,131.04,0.008855062, NaN, NaN, NaN,0.0323506," ""- N/A -   """
5.21,131.393,0.008868946, NaN, NaN, NaN,0.0335714," ""- N/A -   """
5.22,131.511,0.008885606, NaN, NaN, NaN,0.0335714," ""- N/A -   """
5.23,131.865,0.008905044, NaN, NaN, NaN,0.0335714," ""- N/A -   """
5.24,132.219,0.008918927, NaN, NaN, NaN,0.0335714," ""- N/A -   """
5.25,132.573,0.00893559, NaN, NaN, NaN,0.0335714," ""- N/A -   """
5.26,132.9268,0.008952249, NaN, NaN, NaN,0.0335714," ""- N/A -   """
5.27,133.163,0.008968908, NaN, NaN, NaN,0.0335714," ""- N/A -   """
5.28,133.634,0.00898557, NaN, NaN, NaN,0.0347922," ""- N/A -   """
5.29,133.87,0.009002229, NaN, NaN, NaN,0.0335714," ""- N/A -   """
5.3,134.224,0.009018891, NaN, NaN, NaN,0.0335714," ""- N/A -   """
5.31,134.578,0.009038327, NaN, NaN, NaN,0.0323506," ""- N/A -   """
5.32,134.932,0.009054988, NaN, NaN, NaN,0.0323506," ""- N/A -   """
5.33,135.286,0.009074425, NaN, NaN, NaN,0.0323506," ""- N/A -   """
5.34,135.64,0.009091086, NaN, NaN, NaN,0.03112983," ""- N/A -   """
5.35,135.993,0.00910497, NaN, NaN, NaN,0.0323506," ""- N/A -   """
5.36,136.229,0.009121629, NaN, NaN, NaN,0.0335714," ""- N/A -   """
5.37,136.465,0.009135514, NaN, NaN, NaN,0.0347922," ""- N/A -   """
5.38,136.819,0.009149398, NaN, NaN, NaN,0.03601294," ""- N/A -   """
5.39,137.055,0.009163282, NaN, NaN, NaN,0.03601294," ""- N/A -   """
5.4,137.291,0.009179941, NaN, NaN, NaN,0.0372337," ""- N/A -   """
5.41,137.6447,0.009193826, NaN, NaN, NaN,0.0384545," ""- N/A -   """
5.42,137.763,0.00920771, NaN, NaN, NaN,0.0384545," ""- N/A -   """
5.43,138.234,0.009221593, NaN, NaN, NaN,0.0396753," ""- N/A -   """
5.44,138.352,0.009238253, NaN, NaN, NaN,0.0396753," ""- N/A -   """
5.45,138.824,0.009254914, NaN, NaN, NaN,0.0396753," ""- N/A -   """
5.46,139.06,0.009268798, NaN, NaN, NaN,0.04089605," ""- N/A -   """
5.47,139.414,0.009285458, NaN, NaN, NaN,0.04089605," ""- N/A -   """
5.48,139.65,0.009299342, NaN, NaN, NaN,0.04211683," ""- N/A -   """
5.49,139.8857,0.009316003, NaN, NaN, NaN,0.04211683," ""- N/A -   """
5.5,140.357,0.009332663, NaN, NaN, NaN,0.04211683," ""- N/A -   """
5.51,140.593,0.009349324, NaN, NaN, NaN,0.04211683," ""- N/A -   """
5.52,141.065,0.009365984, NaN, NaN, NaN,0.04211683," ""- N/A -   """
5.53,141.301,0.009379867, NaN, NaN, NaN,0.0433376," ""- N/A -   """
5.54,141.6549,0.009396529, NaN, NaN, NaN,0.0433376," ""- N/A -   """
5.55,142.009,0.009410412, NaN, NaN, NaN,0.0445584," ""- N/A -   """
5.56,142.245,0.00942985, NaN, NaN, NaN,0.0445584," ""- N/A -   """
5.57,142.5985,0.00944651, NaN, NaN, NaN,0.0445584," ""- N/A -   """
5.58,142.952,0.009463171, NaN, NaN, NaN,0.0445584," ""- N/A -   """
5.59,143.306,0.009479831, NaN, NaN, NaN,0.0433376," ""- N/A -   """
5.6,143.66,0.009496491, NaN, NaN, NaN,0.0433376," ""- N/A -   """
5.61,144.132,0.009518706, NaN, NaN, NaN,0.04211683," ""- N/A -   """
5.62,144.486,0.009538142, NaN, NaN, NaN,0.0396753," ""- N/A -   """
5.63,144.8395,0.00955758, NaN, NaN, NaN,0.0384545," ""- N/A -   """
5.64,145.193,0.009577017, NaN, NaN, NaN,0.0372337," ""- N/A -   """
5.65,145.665,0.009593678, NaN, NaN, NaN,0.0372337," ""- N/A -   """
5.66,146.137,0.009613115, NaN, NaN, NaN,0.03601294," ""- N/A -   """
5.67,146.3728,0.009632552, NaN, NaN, NaN,0.03601294," ""- N/A -   """
5.68,146.727,0.00964921, NaN, NaN, NaN,0.0347922," ""- N/A -   """
5.69,147.0805,0.009665874, NaN, NaN, NaN,0.0347922," ""- N/A -   """
5.7,147.434,0.009682534, NaN, NaN, NaN,0.0347922," ""- N/A -   """
5.71,147.67,0.009699194, NaN, NaN, NaN,0.0347922," ""- N/A -   """
5.72,148.024,0.009715854, NaN, NaN, NaN,0.0347922," ""- N/A -   """
5.73,148.378,0.009732516, NaN, NaN, NaN,0.0347922," ""- N/A -   """
5.74,148.732,0.009749176, NaN, NaN, NaN,0.0347922," ""- N/A -   """
5.75,149.204,0.009765836, NaN, NaN, NaN,0.0347922," ""- N/A -   """
5.76,149.439,0.009785274, NaN, NaN, NaN,0.0347922," ""- N/A -   """
5.77,149.793,0.00980193, NaN, NaN, NaN,0.0335714," ""- N/A -   """
5.78,150.029,0.009818594, NaN, NaN, NaN,0.0347922," ""- N/A -   """
5.79,150.383,0.009832478, NaN, NaN, NaN,0.0347922," ""- N/A -   """
5.8,150.619,0.009849139, NaN, NaN, NaN,0.03601294," ""- N/A -   """
5.81,150.973,0.009863023, NaN, NaN, NaN,0.03601294," ""- N/A -   """
5.82,151.209,0.009879684, NaN, NaN, NaN,0.03601294," ""- N/A -   """
5.83,151.68,0.009896344, NaN, NaN, NaN,0.03601294," ""- N/A -   """
5.84,151.916,0.00991578, NaN, NaN, NaN,0.0347922," ""- N/A -   """
5.85,152.388,0.009932442, NaN, NaN, NaN,0.03601294," ""- N/A -   """
5.86,152.742,0.009951878, NaN, NaN, NaN,0.0347922," ""- N/A -   """
[...]
21.03,675.7813,0.0352231, NaN, NaN, NaN,0.0384545," ""- N/A -   """
21.06,677.0824,0.03527308, NaN, NaN, NaN,0.0384545," ""- N/A -   """
21.09,678.1469,0.0353175, NaN, NaN, NaN,0.04089605," ""- N/A -   """
21.12,679.2115,0.03536471, NaN, NaN, NaN,0.04211683," ""- N/A -   """
21.15,680.5126,0.0354147, NaN, NaN, NaN,0.0433376," ""- N/A -   """
21.18,681.577,0.0354619, NaN, NaN, NaN,0.0433376," ""- N/A -   """
21.21,682.6416,0.0355119, NaN, NaN, NaN,0.0445584," ""- N/A -   """
21.24,684.1792,0.0355674, NaN, NaN, NaN,0.04089605," ""- N/A -   """
21.27,685.7169,0.0356257, NaN, NaN, NaN,0.0372337," ""- N/A -   """
21.3,687.1363,0.0356868, NaN, NaN, NaN,0.0335714," ""- N/A -   """
21.33,688.3191,0.0357368, NaN, NaN, NaN,0.0323506," ""- N/A -   """
21.36,689.738,0.0357923, NaN, NaN, NaN,0.0299091," ""- N/A -   """
21.39,691.158,0.0358479, NaN, NaN, NaN,0.0274675," ""- N/A -   """
21.42,692.104,0.0358923, NaN, NaN, NaN,0.0299091," ""- N/A -   """
21.45,693.05,0.0359339, NaN, NaN, NaN,0.0335714," ""- N/A -   """
21.48,694.1148,0.0359812, NaN, NaN, NaN,0.03601294," ""- N/A -   """
21.51,695.534,0.03603113, NaN, NaN, NaN,0.0347922," ""- N/A -   """
21.54,696.835,0.0360867, NaN, NaN, NaN,0.0323506," ""- N/A -   """
21.57,698.1364,0.0361394, NaN, NaN, NaN,0.03112983," ""- N/A -   """
21.6,699.437,0.036195, NaN, NaN, NaN,0.0286883," ""- N/A -   """
21.63,700.6203,0.0362422, NaN, NaN, NaN,0.03112983," ""- N/A -   """
21.66,701.8031,0.0362866, NaN, NaN, NaN,0.0335714," ""- N/A -   """
21.69,702.6311,0.03633102, NaN, NaN, NaN,0.03601294," ""- N/A -   """
21.72,703.6956,0.03637267, NaN, NaN, NaN,0.0396753," ""- N/A -   """
21.75,704.642,0.0364143, NaN, NaN, NaN,0.0433376," ""- N/A -   """
21.78,705.7064,0.0364643, NaN, NaN, NaN,0.0433376," ""- N/A -   """
21.81,707.126,0.03651706, NaN, NaN, NaN,0.04211683," ""- N/A -   """
21.84,708.7817,0.0365754, NaN, NaN, NaN,0.0384545," ""- N/A -   """
21.87,709.8462,0.0366254, NaN, NaN, NaN,0.0384545," ""- N/A -   """
21.9,710.911,0.0366726, NaN, NaN, NaN,0.04089605," ""- N/A -   """
21.93,712.2118,0.03672254, NaN, NaN, NaN,0.0396753," ""- N/A -   """
21.96,713.513,0.0367753, NaN, NaN, NaN,0.0384545," ""- N/A -   """
21.99,714.814,0.03682806, NaN, NaN, NaN,0.0372337," ""- N/A -   """
22.02,715.9968,0.036878, NaN, NaN, NaN,0.0384545," ""- N/A -   """
22.05,717.2979,0.0369252, NaN, NaN, NaN,0.0384545," ""- N/A -   """
22.08,718.3624,0.036978, NaN, NaN, NaN,0.0372337," ""- N/A -   """
22.11,719.9001,0.03703354, NaN, NaN, NaN,0.0347922," ""- N/A -   """
22.14,721.0829,0.0370891, NaN, NaN, NaN,0.0335714," ""- N/A -   """
22.17,722.384,0.03713628, NaN, NaN, NaN,0.0335714," ""- N/A -   """
22.2,723.567,0.03718626, NaN, NaN, NaN,0.0335714," ""- N/A -   """
22.23,724.868,0.03723902, NaN, NaN, NaN,0.0323506," ""- N/A -   """
22.26,725.9324,0.0372834, NaN, NaN, NaN,0.0347922," ""- N/A -   """
22.29,726.997,0.0373279, NaN, NaN, NaN,0.0372337," ""- N/A -   """
22.32,728.1797,0.03738341, NaN, NaN, NaN,0.03601294," ""- N/A -   """
22.35,729.481,0.0374306, NaN, NaN, NaN,0.03601294," ""- N/A -   """
22.38,730.664,0.03748337, NaN, NaN, NaN,0.03601294," ""- N/A -   """
22.41,731.846,0.03753058, NaN, NaN, NaN,0.03601294," ""- N/A -   """
22.44,732.911,0.03757778, NaN, NaN, NaN,0.0384545," ""- N/A -   """
22.47,733.9755,0.03762499, NaN, NaN, NaN,0.0396753," ""- N/A -   """
22.5,735.277,0.037675, NaN, NaN, NaN,0.0396753," ""- N/A -   """
22.53,736.459,0.0377194, NaN, NaN, NaN,0.04089605," ""- N/A -   """
22.56,737.5239,0.0377638, NaN, NaN, NaN,0.0433376," ""- N/A -   """
22.59,738.7067,0.0378083, NaN, NaN, NaN,0.04577916," ""- N/A -   """
22.62,740.0078,0.0378638, NaN, NaN, NaN,0.0433376," ""- N/A -   """
22.65,741.4272,0.03791932, NaN, NaN, NaN,0.04089605," ""- N/A -   """
22.68,742.7283,0.0379776, NaN, NaN, NaN,0.0384545," ""- N/A -   """
22.71,744.266,0.03803317, NaN, NaN, NaN,0.03601294," ""- N/A -   """
22.74,745.567,0.03808593, NaN, NaN, NaN,0.0335714," ""- N/A -   """
22.77,746.868,0.0381387, NaN, NaN, NaN,0.0323506," ""- N/A -   """
22.8,748.0509,0.0381887, NaN, NaN, NaN,0.0323506," ""- N/A -   """
22.83,749.1154,0.0382359, NaN, NaN, NaN,0.0335714," ""- N/A -   """
22.86,750.417,0.03828863, NaN, NaN, NaN,0.0335714," ""- N/A -   """
22.89,751.7176,0.0383386, NaN, NaN, NaN,0.0323506," ""- N/A -   """
22.92,753.019,0.0383941, NaN, NaN, NaN,0.0299091," ""- N/A -   """
22.95,754.556,0.03845246, NaN, NaN, NaN,0.0262467," ""- N/A -   """
22.98,755.6209,0.03850522, NaN, NaN, NaN,0.0262467," ""- N/A -   """
23.01,756.804,0.0385496, NaN, NaN, NaN,0.0274675," ""- N/A -   """
23.04,757.9865,0.03859408, NaN, NaN, NaN,0.0299091," ""- N/A -   """
23.07,758.933,0.0386385, NaN, NaN, NaN,0.0335714," ""- N/A -   """
23.1,759.7607,0.03867738, NaN, NaN, NaN,0.0372337," ""- N/A -   """
23.13,760.5887,0.0387163, NaN, NaN, NaN,0.04211683," ""- N/A -   """
23.16,761.6532,0.0387579, NaN, NaN, NaN,0.04699994," ""- N/A -   """
23.19,762.836,0.03880511, NaN, NaN, NaN,0.04699994," ""- N/A -   """
23.22,764.1371,0.03885509, NaN, NaN, NaN,0.04699994," ""- N/A -   """
23.25,765.438,0.03890507, NaN, NaN, NaN,0.04699994," ""- N/A -   """
23.28,766.739,0.0389606, NaN, NaN, NaN,0.0445584," ""- N/A -   """
23.31,768.0404,0.0390161, NaN, NaN, NaN,0.04211683," ""- N/A -   """
23.34,769.4597,0.03907168, NaN, NaN, NaN,0.04089605," ""- N/A -   """
23.37,770.879,0.0391272, NaN, NaN, NaN,0.0372337," ""- N/A -   """
23.4,772.1802,0.03917997, NaN, NaN, NaN,0.03601294," ""- N/A -   """
23.43,773.363,0.03923273, NaN, NaN, NaN,0.03601294," ""- N/A -   """
23.46,774.664,0.03928549, NaN, NaN, NaN,0.0335714," ""- N/A -   """
23.49,776.0835,0.03934102, NaN, NaN, NaN,0.03112983," ""- N/A -   """
23.52,777.6211,0.0393966, NaN, NaN, NaN,0.0286883," ""- N/A -   """
23.55,778.686,0.03944654, NaN, NaN, NaN,0.0286883," ""- N/A -   """
23.58,779.868,0.0394937, NaN, NaN, NaN,0.0299091," ""- N/A -   """
23.61,781.17,0.0395465, NaN, NaN, NaN,0.0286883," ""- N/A -   """
23.64,782.2341,0.0395937, NaN, NaN, NaN,0.0299091," ""- N/A -   """
23.67,783.2986,0.0396326, NaN, NaN, NaN,0.0347922," ""- N/A -   """
23.7,784.481,0.0396826, NaN, NaN, NaN,0.03601294," ""- N/A -   """
23.73,785.4276,0.03972699, NaN, NaN, NaN,0.0372337," ""- N/A -   """
23.76,786.4922,0.03977142, NaN, NaN, NaN,0.0396753," ""- N/A -   """
23.79,787.4384,0.0398131, NaN, NaN, NaN,0.0433376," ""- N/A -   """
23.82,788.6212,0.03986028, NaN, NaN, NaN,0.0445584," ""- N/A -   """
23.85,789.8041,0.0399103, NaN, NaN, NaN,0.0445584," ""- N/A -   """
23.88,791.2234,0.0399658, NaN, NaN, NaN,0.0433376," ""- N/A -   """
23.91,792.288,0.040013, NaN, NaN, NaN,0.0445584," ""- N/A -   """
23.94,793.589,0.040063, NaN, NaN, NaN,0.0433376," ""- N/A -   """
23.97,794.89,0.0401157, NaN, NaN, NaN,0.04211683," ""- N/A -   """
24,796.191,0.0401685, NaN, NaN, NaN,0.04089605," ""- N/A -   """
24.03,797.6106,0.040224, NaN, NaN, NaN,0.0384545," ""- N/A -   """
24.06,799.148,0.0402823, NaN, NaN, NaN,0.0347922," ""- N/A -   """
24.09,800.686,0.0403462, NaN, NaN, NaN,0.0299091," ""- N/A -   """
24.12,802.1053,0.04040174, NaN, NaN, NaN,0.0274675," ""- N/A -   """
24.15,803.2881,0.0404489, NaN, NaN, NaN,0.0274675," ""- N/A -   """
24.18,804.4709,0.0404962, NaN, NaN, NaN,0.0286883," ""- N/A -   """
24.21,805.5354,0.0405434, NaN, NaN, NaN,0.0299091," ""- N/A -   """
24.24,806.8365,0.0405933, NaN, NaN, NaN,0.03112983," ""- N/A -   """
24.27,807.901,0.0406378, NaN, NaN, NaN,0.0323506," ""- N/A -   """
24.3,809.0838,0.04068497, NaN, NaN, NaN,0.0335714," ""- N/A -   """
24.33,810.267,0.04073495, NaN, NaN, NaN,0.0347922," ""- N/A -   """
24.36,811.4494,0.0407794, NaN, NaN, NaN,0.03601294," ""- N/A -   """
24.39,812.632,0.04083214, NaN, NaN, NaN,0.0347922," ""- N/A -   """
24.42,814.17,0.0408877, NaN, NaN, NaN,0.0323506," ""- N/A -   """
24.45,815.234,0.0409377, NaN, NaN, NaN,0.0335714," ""- N/A -   """
24.48,816.181,0.0409793, NaN, NaN, NaN,0.03601294," ""- N/A -   """
24.51,817.3635,0.041021, NaN, NaN, NaN,0.0396753," ""- N/A -   """
24.54,818.5463,0.0410682, NaN, NaN, NaN,0.04089605," ""- N/A -   """
24.57,819.4925,0.0411154, NaN, NaN, NaN,0.0433376," ""- N/A -   """
24.6,820.557,0.04115702, NaN, NaN, NaN,0.04577916," ""- N/A -   """
24.63,821.976,0.0412098, NaN, NaN, NaN,0.0445584," ""- N/A -   """
24.66,823.3958,0.04126531, NaN, NaN, NaN,0.04211683," ""- N/A -   """
24.69,824.8151,0.04132362, NaN, NaN, NaN,0.0384545," ""- N/A -   """
24.72,825.998,0.0413736, NaN, NaN, NaN,0.0384545," ""- N/A -   """
24.75,827.2991,0.04142636, NaN, NaN, NaN,0.0372337," ""- N/A -   """
24.78,828.718,0.0414819, NaN, NaN, NaN,0.0347922," ""- N/A -   """
24.81,830.02,0.0415319, NaN, NaN, NaN,0.0347922," ""- N/A -   """
24.84,831.202,0.0415791, NaN, NaN, NaN,0.03601294," ""- N/A -   """
24.87,832.385,0.0416291, NaN, NaN, NaN,0.0372337," ""- N/A -   """
24.9,833.6863,0.041679, NaN, NaN, NaN,0.03601294," ""- N/A -   """
24.93,835.1056,0.04173458, NaN, NaN, NaN,0.0335714," ""- N/A -   """
24.96,836.525,0.0417901, NaN, NaN, NaN,0.0323506," ""- N/A -   """
24.99,837.708,0.0418429, NaN, NaN, NaN,0.0299091," ""- N/A -   """
25.02,839.0089,0.0418929, NaN, NaN, NaN,0.0299091," ""- N/A -   """
25.05,840.192,0.04194006, NaN, NaN, NaN,0.03112983," ""- N/A -   """
25.08,841.2562,0.0419873, NaN, NaN, NaN,0.0323506," ""- N/A -   """
25.11,842.321,0.0420317, NaN, NaN, NaN,0.0347922," ""- N/A -   """
25.14,843.6219,0.0420789, NaN, NaN, NaN,0.03601294," ""- N/A -   """
25.17,844.568,0.04212055, NaN, NaN, NaN,0.0396753," ""- N/A -   """
25.2,845.633,0.0421678, NaN, NaN, NaN,0.04089605," ""- N/A -   """
25.23,847.052,0.0422205, NaN, NaN, NaN,0.0396753," ""- N/A -   """
25.26,848.353,0.04227327, NaN, NaN, NaN,0.0384545," ""- N/A -   """
25.29,849.6542,0.0423233, NaN, NaN, NaN,0.0384545," ""- N/A -   """
25.32,850.7187,0.0423705, NaN, NaN, NaN,0.0396753," ""- N/A -   """
25.35,851.9015,0.0424204, NaN, NaN, NaN,0.04089605," ""- N/A -   """
25.38,853.321,0.0424732, NaN, NaN, NaN,0.0384545," ""- N/A -   """
25.41,854.622,0.04252596, NaN, NaN, NaN,0.0384545," ""- N/A -   """
25.44,856.0413,0.0425787, NaN, NaN, NaN,0.03601294," ""- N/A -   """
25.47,857.3424,0.0426315, NaN, NaN, NaN,0.0347922," ""- N/A -   """
25.5,858.5252,0.0426815, NaN, NaN, NaN,0.0347922," ""- N/A -   """
25.53,859.9446,0.0427342, NaN, NaN, NaN,0.0335714," ""- N/A -   """
25.56,861.246,0.04278697, NaN, NaN, NaN,0.0323506," ""- N/A -   """
25.59,862.665,0.04283973, NaN, NaN, NaN,0.03112983," ""- N/A -   """
25.62,863.848,0.04288971, NaN, NaN, NaN,0.03112983," ""- N/A -   """
25.65,865.149,0.0429425, NaN, NaN, NaN,0.03112983," ""- N/A -   """
25.68,866.3317,0.04298967, NaN, NaN, NaN,0.03112983," ""- N/A -   """
25.71,867.6329,0.0430397, NaN, NaN, NaN,0.0323506," ""- N/A -   """
25.74,868.8156,0.04308964, NaN, NaN, NaN,0.0323506," ""- N/A -   """
25.77,870.117,0.0431424, NaN, NaN, NaN,0.0299091," ""- N/A -   """
25.8,871.5361,0.0431952, NaN, NaN, NaN,0.0299091," ""- N/A -   """
25.83,872.482,0.0432368, NaN, NaN, NaN,0.0323506," ""- N/A -   """
25.86,873.3103,0.0432757, NaN, NaN, NaN,0.0372337," ""- N/A -   """
25.89,874.3748,0.04331733, NaN, NaN, NaN,0.04089605," ""- N/A -   """
25.92,875.5577,0.0433645, NaN, NaN, NaN,0.04211683," ""- N/A -   """
25.95,876.8587,0.04341452, NaN, NaN, NaN,0.04211683," ""- N/A -   """
25.98,877.9233,0.04346172, NaN, NaN, NaN,0.0433376," ""- N/A -   """
26.01,879.224,0.0435117, NaN, NaN, NaN,0.0433376," ""- N/A -   """
26.04,880.525,0.0435617, NaN, NaN, NaN,0.0433376," ""- N/A -   """
26.07,881.827,0.0436117, NaN, NaN, NaN,0.0433376," ""- N/A -   """
26.1,883.1276,0.0436672, NaN, NaN, NaN,0.04211683," ""- N/A -   """
26.13,884.547,0.0437255, NaN, NaN, NaN,0.0384545," ""- N/A -   """
26.16,886.203,0.04378105, NaN, NaN, NaN,0.03601294," ""- N/A -   """
26.19,887.504,0.0438366, NaN, NaN, NaN,0.0335714," ""- N/A -   """
26.22,888.8051,0.0438893, NaN, NaN, NaN,0.0335714," ""- N/A -   """
26.25,890.1062,0.0439393, NaN, NaN, NaN,0.0335714," ""- N/A -   """
26.28,891.1707,0.0439865, NaN, NaN, NaN,0.0335714," ""- N/A -   """
26.31,892.4718,0.04403651, NaN, NaN, NaN,0.0335714," ""- N/A -   """
26.34,894.009,0.044092, NaN, NaN, NaN,0.03112983," ""- N/A -   """
26.37,895.192,0.0441448, NaN, NaN, NaN,0.0299091," ""- N/A -   """
26.4,896.4934,0.0441948, NaN, NaN, NaN,0.0299091," ""- N/A -   """
26.43,897.558,0.044242, NaN, NaN, NaN,0.03112983," ""- N/A -   """
26.46,898.7407,0.0442864, NaN, NaN, NaN,0.0335714," ""- N/A -   """
26.49,899.805,0.04433362, NaN, NaN, NaN,0.0347922," ""- N/A -   """
26.52,900.8698,0.04437527, NaN, NaN, NaN,0.0384545," ""- N/A -   """
26.55,901.934,0.0444169, NaN, NaN, NaN,0.04211683," ""- N/A -   """
26.58,902.8805,0.0444614, NaN, NaN, NaN,0.0445584," ""- N/A -   """
26.61,904.063,0.0445086, NaN, NaN, NaN,0.04699994," ""- N/A -   """
26.64,905.246,0.0445585, NaN, NaN, NaN,0.04699994," ""- N/A -   """
26.67,906.6655,0.04460852, NaN, NaN, NaN,0.04577916," ""- N/A -   """
26.7,908.0849,0.0446641, NaN, NaN, NaN,0.0445584," ""- N/A -   """
26.73,909.5043,0.0447196, NaN, NaN, NaN,0.04089605," ""- N/A -   """
26.76,910.9236,0.0447751, NaN, NaN, NaN,0.0384545," ""- N/A -   """
26.79,912.4613,0.0448334, NaN, NaN, NaN,0.0347922," ""- N/A -   """
26.82,913.8807,0.044889, NaN, NaN, NaN,0.0335714," ""- N/A -   """
26.85,915.0635,0.044939, NaN, NaN, NaN,0.0323506," ""- N/A -   """
26.88,916.2462,0.04498616, NaN, NaN, NaN,0.0335714," ""- N/A -   """
26.91,917.547,0.0450389, NaN, NaN, NaN,0.0323506," ""- N/A -   """
26.94,918.9667,0.0450945, NaN, NaN, NaN,0.03112983," ""- N/A -   """
26.97,920.3861,0.04514721, NaN, NaN, NaN,0.0299091," ""- N/A -   """
27,921.6872,0.04519719, NaN, NaN, NaN,0.0286883," ""- N/A -   """
27.03,922.87,0.04524717, NaN, NaN, NaN,0.0286883," ""- N/A -   """
27.06,924.1711,0.0452972, NaN, NaN, NaN,0.0286883," ""- N/A -   """
27.09,925.2356,0.04534158, NaN, NaN, NaN,0.03112983," ""- N/A -   """
27.12,926.3001,0.045386, NaN, NaN, NaN,0.0335714," ""- N/A -   """
27.15,927.2464,0.0454304, NaN, NaN, NaN,0.03601294," ""- N/A -   """
27.18,928.4292,0.04547487, NaN, NaN, NaN,0.0384545," ""- N/A -   """
27.21,929.4938,0.0455165, NaN, NaN, NaN,0.04211683," ""- N/A -   """
27.24,930.6765,0.0455637, NaN, NaN, NaN,0.0445584," ""- N/A -   """
27.27,931.8593,0.0456137, NaN, NaN, NaN,0.0445584," ""- N/A -   """
27.3,933.0422,0.04565813, NaN, NaN, NaN,0.04577916," ""- N/A -   """
27.33,934.3432,0.0457053, NaN, NaN, NaN,0.04699994," ""- N/A -   """
27.36,935.644,0.04575532, NaN, NaN, NaN,0.04699994," ""- N/A -   """
27.39,937.064,0.04581363, NaN, NaN, NaN,0.0433376," ""- N/A -   """
27.42,938.4831,0.04587194, NaN, NaN, NaN,0.04089605," ""- N/A -   """
27.45,939.902,0.0459247, NaN, NaN, NaN,0.0384545," ""- N/A -   """
27.48,941.44,0.045983, NaN, NaN, NaN,0.03601294," ""- N/A -   """
27.51,942.8595,0.04603855, NaN, NaN, NaN,0.0323506," ""- N/A -   """
27.54,944.2788,0.0460941, NaN, NaN, NaN,0.03112983," ""- N/A -   """
27.57,945.4617,0.0461413, NaN, NaN, NaN,0.03112983," ""- N/A -   """
27.6,946.6445,0.0461913, NaN, NaN, NaN,0.03112983," ""- N/A -   """
27.63,947.946,0.04624125, NaN, NaN, NaN,0.03112983," ""- N/A -   """
27.66,949.247,0.0462912, NaN, NaN, NaN,0.0323506," ""- N/A -   """
27.69,950.429,0.04633288, NaN, NaN, NaN,0.0347922," ""- N/A -   """
27.72,951.612,0.0463829, NaN, NaN, NaN,0.03601294," ""- N/A -   """
27.75,952.795,0.04643007, NaN, NaN, NaN,0.0372337," ""- N/A -   """
27.78,953.86,0.0464773, NaN, NaN, NaN,0.0372337," ""- N/A -   """
27.81,955.279,0.04653003, NaN, NaN, NaN,0.0372337," ""- N/A -   """
27.84,956.58,0.04658, NaN, NaN, NaN,0.03601294," ""- N/A -   """
27.87,957.7628,0.04662722, NaN, NaN, NaN,0.0372337," ""- N/A -   """
27.9,958.9457,0.0466716, NaN, NaN, NaN,0.0396753," ""- N/A -   """
27.93,959.8919,0.0467161, NaN, NaN, NaN,0.0433376," ""- N/A -   """
27.96,961.0747,0.04676328, NaN, NaN, NaN,0.0445584," ""- N/A -   """
27.99,962.3758,0.04681048, NaN, NaN, NaN,0.0445584," ""- N/A -   """
28.02,963.559,0.0468605, NaN, NaN, NaN,0.0445584," ""- N/A -   """
28.05,965.215,0.0469188, NaN, NaN, NaN,0.04211683," ""- N/A -   """
28.08,966.6339,0.0469771, NaN, NaN, NaN,0.0372337," ""- N/A -   """
28.11,968.0533,0.0470326, NaN, NaN, NaN,0.0347922," ""- N/A -   """
28.14,969.7092,0.0470909, NaN, NaN, NaN,0.03112983," ""- N/A -   """
28.17,971.129,0.0471465, NaN, NaN, NaN,0.0299091," ""- N/A -   """
28.2,972.3114,0.0471965, NaN, NaN, NaN,0.0286883," ""- N/A -   """
28.23,973.4942,0.04724366, NaN, NaN, NaN,0.0299091," ""- N/A -   """
28.26,974.677,0.0472881, NaN, NaN, NaN,0.0323506," ""- N/A -   """
28.29,975.7415,0.0473325, NaN, NaN, NaN,0.0347922," ""- N/A -   """
28.32,976.8061,0.0473769, NaN, NaN, NaN,0.0372337," ""- N/A -   """
28.35,978.1071,0.0474269, NaN, NaN, NaN,0.0372337," ""- N/A -   """
28.38,979.527,0.04748246, NaN, NaN, NaN,0.0347922," ""- N/A -   """
28.41,980.946,0.047538, NaN, NaN, NaN,0.0323506," ""- N/A -   """
28.44,982.4836,0.0475935, NaN, NaN, NaN,0.0299091," ""- N/A -   """
28.47,983.7846,0.0476407, NaN, NaN, NaN,0.03112983," ""- N/A -   """
28.5,984.8492,0.0476879, NaN, NaN, NaN,0.0335714," ""- N/A -   """
28.53,985.9137,0.04772959, NaN, NaN, NaN,0.03601294," ""- N/A -   """
28.56,986.86,0.0477712, NaN, NaN, NaN,0.0396753," ""- N/A -   """
28.59,988.0427,0.04781567, NaN, NaN, NaN,0.04211683," ""- N/A -   """
28.62,989.3438,0.0478712, NaN, NaN, NaN,0.04089605," ""- N/A -   """
28.65,990.6449,0.0479212, NaN, NaN, NaN,0.04089605," ""- N/A -   """
28.68,991.8277,0.0479684, NaN, NaN, NaN,0.04089605," ""- N/A -   """
28.71,993.247,0.0480211, NaN, NaN, NaN,0.04089605," ""- N/A -   """
28.74,994.548,0.04807113, NaN, NaN, NaN,0.04089605," ""- N/A -   """
28.77,995.9675,0.0481211, NaN, NaN, NaN,0.0396753," ""- N/A -   """
28.8,997.2687,0.04817387, NaN, NaN, NaN,0.0384545," ""- N/A -   """
28.83,998.57,0.0482239, NaN, NaN, NaN,0.0384545," ""- N/A -   """
28.86,999.7525,0.0482711, NaN, NaN, NaN,0.0396753," ""- N/A -   """
28.89,1000.94,0.0483238, NaN, NaN, NaN,0.0396753," ""- N/A -   """
28.92,1002.35,0.04837657, NaN, NaN, NaN,0.0372337," ""- N/A -   """
28.95,1003.66,0.04842933, NaN, NaN, NaN,0.03601294," ""- N/A -   """
28.98,1005.08,0.0484849, NaN, NaN, NaN,0.0335714," ""- N/A -   """
29.01,1006.49,0.0485376, NaN, NaN, NaN,0.0323506," ""- N/A -   """
29.04,1007.8,0.04859038, NaN, NaN, NaN,0.0323506," ""- N/A -   """
29.07,1008.98,0.0486376, NaN, NaN, NaN,0.0323506," ""- N/A -   """
29.1,1010.28,0.04868757, NaN, NaN, NaN,0.0335714," ""- N/A -   """
29.13,1011.46,0.0487348, NaN, NaN, NaN,0.0335714," ""- N/A -   """
29.16,1012.53,0.04878198, NaN, NaN, NaN,0.0347922," ""- N/A -   """
29.19,1013.954,0.0488375, NaN, NaN, NaN,0.0335714," ""- N/A -   """
29.22,1015.385,0.04889027, NaN, NaN, NaN,0.0323506," ""- N/A -   """
29.25,1016.34,0.0489319, NaN, NaN, NaN,0.0347922," ""- N/A -   """
29.28,1017.53,0.0489764, NaN, NaN, NaN,0.0372337," ""- N/A -   """
29.31,1018.72,0.04902078, NaN, NaN, NaN,0.0396753," ""- N/A -   """
29.34,1019.8,0.04906798, NaN, NaN, NaN,0.04089605," ""- N/A -   """
29.37,1020.99,0.0491124, NaN, NaN, NaN,0.0433376," ""- N/A -   """
29.4,1022.3,0.04916239, NaN, NaN, NaN,0.0433376," ""- N/A -   """
29.43,1023.61,0.04921515, NaN, NaN, NaN,0.0433376," ""- N/A -   """
29.46,1025.04,0.04926791, NaN, NaN, NaN,0.04089605," ""- N/A -   """
29.49,1026.48,0.0493234, NaN, NaN, NaN,0.0396753," ""- N/A -   """
29.52,1028.03,0.04938176, NaN, NaN, NaN,0.03601294," ""- N/A -   """
29.55,1029.46,0.0494373, NaN, NaN, NaN,0.0323506," ""- N/A -   """
29.58,1030.77,0.0494873, NaN, NaN, NaN,0.0323506," ""- N/A -   """
29.61,1032.08,0.0495373, NaN, NaN, NaN,0.0323506," ""- N/A -   """
29.64,1033.27,0.0495872, NaN, NaN, NaN,0.0323506," ""- N/A -   """
29.67,1034.35,0.04963444, NaN, NaN, NaN,0.0335714," ""- N/A -   """
29.7,1035.54,0.04967887, NaN, NaN, NaN,0.03601294," ""- N/A -   """
29.73,1036.85,0.0497316, NaN, NaN, NaN,0.0347922," ""- N/A -   """
29.76,1038.4,0.04978994, NaN, NaN, NaN,0.03112983," ""- N/A -   """
29.79,1039.95,0.0498483, NaN, NaN, NaN,0.0274675," ""- N/A -   """
29.808,1040.79,0.0498788, NaN, NaN, NaN,0.0286883," ""- N/A -   """