File: 2_Tensile_Data/Hamel_ForceTest_Bolt9_Test10.csv
Time, Load (lb), Position (in), AxialStrain (in), TransverseStrain (in), Auxiliary (), Control Out (V), Stress (psi)
0.0, 13.7999, 0.0, NaN, NaN, NaN, -0.006714277, "- N/A -   "
0.01, 13.7999, 2.776752E-6, NaN, NaN, NaN, -6.103888E-4, "- N/A -   "
0.02, 13.7999, 2.776752E-6, NaN, NaN, NaN, 0.007935055, "- N/A -   "
0.03, 13.7999, 2.776752E-6, NaN, NaN, NaN, 0.0274675, "- N/A -   "
0.04, 13.7999, 8.330256E-6, NaN, NaN, NaN, 0.0445584, "- N/A -   "
0.05, 14.0357, 2.2214e-05, NaN, NaN, NaN, 0.0592077, "- N/A -   "
0.06, 14.3896, 3.60978e-05, NaN, NaN, NaN, 0.07141549, "- N/A -   "
0.07, 14.8614, 6.108854E-5, NaN, NaN, NaN, 0.08118171, "- N/A -   "
0.08, 15.2152, 8.33026e-05, NaN, NaN, NaN, 0.0897272, "- N/A -   "
0.09, 15.687, 0.00011107, NaN, NaN, NaN, 0.09705182, "- N/A -   "
0.1, 16.1588, 0.000141614, NaN, NaN, NaN, 0.100714, "- N/A -   "
0.11, 16.6306, 0.000172159, NaN, NaN, NaN, 0.09461027, "- N/A -   "
0.12, 17.2203, 0.000202703, NaN, NaN, NaN, 0.0897272, "- N/A -   "
0.13, 17.5742, 0.000227694, NaN, NaN, NaN, 0.084844, "- N/A -   "
0.14, 17.928, 0.000255461, NaN, NaN, NaN, 0.0799609, "- N/A -   "
0.15, 18.2819, 0.000280452, NaN, NaN, NaN, 0.07751938, "- N/A -   "
0.16, 18.6357, 2.998892E-4, NaN, NaN, NaN, 0.0750778, "- N/A -   "
0.17, 18.8716, 3.221032E-4, NaN, NaN, NaN, 0.07263627, "- N/A -   "
0.18, 19.1075, 0.00034154, NaN, NaN, NaN, 0.07141549, "- N/A -   "
0.19, 19.4613, 0.000360978, NaN, NaN, NaN, 0.0701947, "- N/A -   "
0.2, 19.6972, 0.000383192, NaN, NaN, NaN, 0.06775316, "- N/A -   "
0.21, 20.05107, 0.000402629, NaN, NaN, NaN, 0.06653238, "- N/A -   "
0.22, 20.287, 0.000422066, NaN, NaN, NaN, 0.0653116, "- N/A -   "
0.23, 20.6408, 0.000441504, NaN, NaN, NaN, 0.0653116, "- N/A -   "
0.24, 20.7588, 4.609408E-4, NaN, NaN, NaN, 0.0640908, "- N/A -   "
0.25, 21.1126, 0.000480378, NaN, NaN, NaN, 0.06287005, "- N/A -   "
0.26, 21.46644, 0.000499815, NaN, NaN, NaN, 0.06164927, "- N/A -   "
0.27, 21.7023, 5.164758E-4, NaN, NaN, NaN, 0.0604285, "- N/A -   "
0.28, 22.0562, 5.359131E-4, NaN, NaN, NaN, 0.0592077, "- N/A -   "
0.29, 22.29207, 5.553504E-4, NaN, NaN, NaN, 0.0579869, "- N/A -   "
0.3, 22.528, 5.747876E-4, NaN, NaN, NaN, 0.05676616, "- N/A -   "
0.31, 22.7639, 0.000597002, NaN, NaN, NaN, 0.0555454, "- N/A -   "
0.32, 22.9998, 6.164389E-4, NaN, NaN, NaN, 0.0543246, "- N/A -   "
0.33, 23.3536, 0.000635876, NaN, NaN, NaN, 0.05188305, "- N/A -   "
0.34, 23.7074, 0.00065809, NaN, NaN, NaN, 0.05066227, "- N/A -   "
0.35, 24.0613, 0.000677527, NaN, NaN, NaN, 0.0494415, "- N/A -   "
0.36, 24.4151, 6.997415E-4, NaN, NaN, NaN, 0.04577916, "- N/A -   "
0.37, 24.65102, 7.191787E-4, NaN, NaN, NaN, 0.0445584, "- N/A -   "
0.38, 24.8869, 7.38616E-4, NaN, NaN, NaN, 0.0433376, "- N/A -   "
0.39, 25.1228, 0.000758053, NaN, NaN, NaN, 0.04211683, "- N/A -   "
0.4, 25.4767, 0.000774714, NaN, NaN, NaN, 0.04211683, "- N/A -   "
0.41, 25.5946, 0.000794151, NaN, NaN, NaN, 0.04089605, "- N/A -   "
0.42, 25.8305, 0.000813588, NaN, NaN, NaN, 0.04089605, "- N/A -   "
0.43, 26.18434, 8.302488E-4, NaN, NaN, NaN, 0.0396753, "- N/A -   "
0.44, 26.3023, 8.469093E-4, NaN, NaN, NaN, 0.0396753, "- N/A -   "
0.45, 26.5382, 8.635698E-4, NaN, NaN, NaN, 0.0396753, "- N/A -   "
0.46, 26.7741, 8.830071E-4, NaN, NaN, NaN, 0.0396753, "- N/A -   "
0.47, 27.1279, 0.000899668, NaN, NaN, NaN, 0.0384545, "- N/A -   "
0.48, 27.3638, 9.163281E-4, NaN, NaN, NaN, 0.0384545, "- N/A -   "
0.49, 27.5997, 0.000935765, NaN, NaN, NaN, 0.0372337, "- N/A -   "
0.5, 27.8356, 9.524259E-4, NaN, NaN, NaN, 0.0372337, "- N/A -   "
0.51, 28.1894, 0.000971863, NaN, NaN, NaN, 0.03601294, "- N/A -   "
0.52, 28.42534, 9.940772E-4, NaN, NaN, NaN, 0.0347922, "- N/A -   "
0.53, 28.7792, 0.00101351, NaN, NaN, NaN, 0.0335714, "- N/A -   "
0.54, 29.0151, 0.00103017, NaN, NaN, NaN, 0.0323506, "- N/A -   "
0.55, 29.251, 0.00104961, NaN, NaN, NaN, 0.03112983, "- N/A -   "
0.56, 29.4869, 0.00106627, NaN, NaN, NaN, 0.03112983, "- N/A -   "
0.57, 29.7228, 0.00108293, NaN, NaN, NaN, 0.03112983, "- N/A -   "
0.58, 29.9587, 0.00109959, NaN, NaN, NaN, 0.03112983, "- N/A -   "
0.59, 30.1946, 0.001119031, NaN, NaN, NaN, 0.0299091, "- N/A -   "
0.6, 30.4304, 0.00113569, NaN, NaN, NaN, 0.0299091, "- N/A -   "
0.61, 30.78429, 0.001152352, NaN, NaN, NaN, 0.0299091, "- N/A -   "
0.62, 30.9022, 0.00116901, NaN, NaN, NaN, 0.0299091, "- N/A -   "
0.63, 31.1381, 0.001185673, NaN, NaN, NaN, 0.0299091, "- N/A -   "
0.64, 31.492, 0.00120511, NaN, NaN, NaN, 0.0299091, "- N/A -   "
0.65, 31.72787, 0.00122177, NaN, NaN, NaN, 0.0286883, "- N/A -   "
0.66, 31.9638, 0.00123843, NaN, NaN, NaN, 0.0286883, "- N/A -   "
0.67, 32.1997, 0.00125509, NaN, NaN, NaN, 0.0286883, "- N/A -   "
0.68, 32.4356, 0.00126898, NaN, NaN, NaN, 0.0299091, "- N/A -   "
0.69, 32.5535, 0.00128286, NaN, NaN, NaN, 0.0323506, "- N/A -   "
0.7, 32.7894, 0.00129397, NaN, NaN, NaN, 0.0335714, "- N/A -   "
0.71, 32.9073, 0.00130785, NaN, NaN, NaN, 0.0347922, "- N/A -   "
0.72, 33.1432, 0.00132173, NaN, NaN, NaN, 0.03601294, "- N/A -   "
0.73, 33.3791, 0.00133562, NaN, NaN, NaN, 0.0372337, "- N/A -   "
0.74, 33.49708, 0.0013495, NaN, NaN, NaN, 0.0396753, "- N/A -   "
0.75, 33.73298, 0.00136339, NaN, NaN, NaN, 0.0396753, "- N/A -   "
0.76, 33.8509, 0.00137727, NaN, NaN, NaN, 0.04089605, "- N/A -   "
0.77, 34.2048, 0.00139393, NaN, NaN, NaN, 0.04089605, "- N/A -   "
0.78, 34.3227, 0.00141059, NaN, NaN, NaN, 0.04211683, "- N/A -   "
0.79, 34.55861, 0.00142447, NaN, NaN, NaN, 0.04211683, "- N/A -   "
0.8, 34.9125, 0.00144113, NaN, NaN, NaN, 0.04211683, "- N/A -   "
0.81, 35.0304, 0.00145779, NaN, NaN, NaN, 0.04211683, "- N/A -   "
0.82, 35.3842, 0.00147168, NaN, NaN, NaN, 0.0433376, "- N/A -   "
0.83, 35.50219, 0.00149112, NaN, NaN, NaN, 0.0433376, "- N/A -   "
0.84, 35.85603, 0.001505, NaN, NaN, NaN, 0.0433376, "- N/A -   "
0.85, 36.0919, 0.00152166, NaN, NaN, NaN, 0.0433376, "- N/A -   "
0.86, 36.32782, 0.00153832, NaN, NaN, NaN, 0.0433376, "- N/A -   "
0.87, 36.5637, 0.001554981, NaN, NaN, NaN, 0.0433376, "- N/A -   "
0.88, 36.79961, 0.00156886, NaN, NaN, NaN, 0.0445584, "- N/A -   "
0.89, 37.0355, 0.00158553, NaN, NaN, NaN, 0.0445584, "- N/A -   "
0.9, 37.3893, 0.00160496, NaN, NaN, NaN, 0.0445584, "- N/A -   "
0.91, 37.6252, 0.001621623, NaN, NaN, NaN, 0.0445584, "- N/A -   "
0.92, 37.8611, 0.00163828, NaN, NaN, NaN, 0.0433376, "- N/A -   "
0.93, 38.097, 0.001654944, NaN, NaN, NaN, 0.0433376, "- N/A -   "
0.94, 38.215, 0.00166883, NaN, NaN, NaN, 0.0445584, "- N/A -   "
0.95, 38.5688, 0.00168549, NaN, NaN, NaN, 0.0445584, "- N/A -   "
0.96, 38.8047, 0.00170215, NaN, NaN, NaN, 0.0445584, "- N/A -   "
0.97, 38.9227, 0.00171881, NaN, NaN, NaN, 0.0445584, "- N/A -   "
0.98, 39.2765, 0.00173547, NaN, NaN, NaN, 0.0445584, "- N/A -   "
0.99, 39.6304, 0.00175491, NaN, NaN, NaN, 0.0433376, "- N/A -   "
1, 39.8662, 0.00177434, NaN, NaN, NaN, 0.04211683, "- N/A -   "
1.01, 40.22009, 0.00179656, NaN, NaN, NaN, 0.04089605, "- N/A -   "
1.02, 40.456, 0.00181322, NaN, NaN, NaN, 0.0396753, "- N/A -   "
1.03, 40.8098, 0.001835433, NaN, NaN, NaN, 0.0384545, "- N/A -   "
1.04, 41.16367, 0.00185209, NaN, NaN, NaN, 0.0372337, "- N/A -   "
1.05, 41.39956, 0.00187153, NaN, NaN, NaN, 0.03601294, "- N/A -   "
1.06, 41.7534, 0.001890968, NaN, NaN, NaN, 0.0347922, "- N/A -   "
1.07, 41.9893, 0.00190763, NaN, NaN, NaN, 0.0347922, "- N/A -   "
1.08, 42.2252, 0.00192707, NaN, NaN, NaN, 0.0335714, "- N/A -   "
1.09, 42.4611, 0.0019465, NaN, NaN, NaN, 0.0335714, "- N/A -   "
1.1, 42.93288, 0.00196594, NaN, NaN, NaN, 0.0323506, "- N/A -   "
1.11, 43.1688, 0.001982601, NaN, NaN, NaN, 0.03112983, "- N/A -   "
1.12, 43.5226, 0.002002038, NaN, NaN, NaN, 0.0299091, "- N/A -   "
1.13, 43.75851, 0.0020187, NaN, NaN, NaN, 0.0299091, "- N/A -   "
1.14, 44.1124, 0.00203536, NaN, NaN, NaN, 0.0299091, "- N/A -   "
1.15, 44.34825, 0.00205202, NaN, NaN, NaN, 0.0299091, "- N/A -   "
1.16, 44.4662, 0.00206868, NaN, NaN, NaN, 0.0299091, "- N/A -   "
1.17, 44.82, 0.00208812, NaN, NaN, NaN, 0.0286883, "- N/A -   "
1.18, 45.05593, 0.00210478, NaN, NaN, NaN, 0.0286883, "- N/A -   "
1.19, 45.29183, 0.00212144, NaN, NaN, NaN, 0.0286883, "- N/A -   "
1.2, 45.6457, 0.00214088, NaN, NaN, NaN, 0.0286883, "- N/A -   "
1.21, 45.76362, 0.002157536, NaN, NaN, NaN, 0.0274675, "- N/A -   "
1.22, 46.11746, 0.0021742, NaN, NaN, NaN, 0.0274675, "- N/A -   "
1.23, 46.3534, 0.00219086, NaN, NaN, NaN, 0.0274675, "- N/A -   "
1.24, 46.7072, 0.00220752, NaN, NaN, NaN, 0.0274675, "- N/A -   "
1.25, 46.8251, 0.0022214, NaN, NaN, NaN, 0.0286883, "- N/A -   "
1.26, 47.061, 0.00223529, NaN, NaN, NaN, 0.0299091, "- N/A -   "
1.27, 47.179, 0.002249169, NaN, NaN, NaN, 0.03112983, "- N/A -   "
1.28, 47.5328, 0.00226305, NaN, NaN, NaN, 0.0323506, "- N/A -   "
1.29, 47.7687, 0.00228249, NaN, NaN, NaN, 0.0323506, "- N/A -   "
1.3, 48.00462, 0.00229637, NaN, NaN, NaN, 0.0323506, "- N/A -   "
1.31, 48.12257, 0.00231303, NaN, NaN, NaN, 0.0323506, "- N/A -   "
1.32, 48.59436, 0.00232969, NaN, NaN, NaN, 0.0323506, "- N/A -   "
1.33, 48.83025, 0.00234636, NaN, NaN, NaN, 0.0323506, "- N/A -   "
1.34, 49.0661, 0.002363016, NaN, NaN, NaN, 0.0323506, "- N/A -   "
1.35, 49.41999, 0.00237968, NaN, NaN, NaN, 0.0323506, "- N/A -   "
1.36, 49.6559, 0.00239634, NaN, NaN, NaN, 0.0323506, "- N/A -   "
1.37, 49.7738, 0.002413, NaN, NaN, NaN, 0.0335714, "- N/A -   "
1.38, 50.1277, 0.002426881, NaN, NaN, NaN, 0.0335714, "- N/A -   "
1.39, 50.2456, 0.00244354, NaN, NaN, NaN, 0.0335714, "- N/A -   "
1.4, 50.5995, 0.0024602, NaN, NaN, NaN, 0.0347922, "- N/A -   "
1.41, 50.83536, 0.00247686, NaN, NaN, NaN, 0.0335714, "- N/A -   "
1.42, 51.0713, 0.00249075, NaN, NaN, NaN, 0.0347922, "- N/A -   "
1.43, 51.30715, 0.00250463, NaN, NaN, NaN, 0.03601294, "- N/A -   "
1.44, 51.543, 0.00252129, NaN, NaN, NaN, 0.03601294, "- N/A -   "
1.45, 51.7789, 0.00253517, NaN, NaN, NaN, 0.0372337, "- N/A -   "
1.46, 51.89689, 0.00254906, NaN, NaN, NaN, 0.0384545, "- N/A -   "
1.47, 52.25073, 0.00256294, NaN, NaN, NaN, 0.0396753, "- N/A -   "
1.48, 52.48662, 0.0025796, NaN, NaN, NaN, 0.04089605, "- N/A -   "
1.49, 52.72252, 0.00259349, NaN, NaN, NaN, 0.04089605, "- N/A -   "
1.5, 52.9584, 0.00260737, NaN, NaN, NaN, 0.0433376, "- N/A -   "
1.51, 53.0764, 0.00262403, NaN, NaN, NaN, 0.0433376, "- N/A -   "
1.52, 53.4302, 0.002640691, NaN, NaN, NaN, 0.0433376, "- N/A -   "
1.53, 53.784, 0.00265457, NaN, NaN, NaN, 0.0433376, "- N/A -   "
1.54, 54.0199, 0.00267124, NaN, NaN, NaN, 0.0433376, "- N/A -   "
1.55, 54.2558, 0.0026879, NaN, NaN, NaN, 0.0433376, "- N/A -   "
1.56, 54.4917, 0.00270178, NaN, NaN, NaN, 0.0445584, "- N/A -   "
1.57, 54.7276, 0.00271844, NaN, NaN, NaN, 0.0445584, "- N/A -   "
1.58, 54.9635, 0.0027351, NaN, NaN, NaN, 0.0445584, "- N/A -   "
1.59, 55.3174, 0.00275176, NaN, NaN, NaN, 0.0445584, "- N/A -   "
1.6, 55.55326, 0.00276842, NaN, NaN, NaN, 0.0445584, "- N/A -   "
1.61, 55.9071, 0.002785082, NaN, NaN, NaN, 0.0445584, "- N/A -   "
1.62, 56.143, 0.00280174, NaN, NaN, NaN, 0.0445584, "- N/A -   "
1.63, 56.37889, 0.0028184, NaN, NaN, NaN, 0.0445584, "- N/A -   "
1.64, 56.73273, 0.00283506, NaN, NaN, NaN, 0.0445584, "- N/A -   "
1.65, 56.9686, 0.002854501, NaN, NaN, NaN, 0.0445584, "- N/A -   "
1.66, 57.20452, 0.00287116, NaN, NaN, NaN, 0.0433376, "- N/A -   "
1.67, 57.6763, 0.0028906, NaN, NaN, NaN, 0.04211683, "- N/A -   "
1.68, 57.91221, 0.002910036, NaN, NaN, NaN, 0.04089605, "- N/A -   "
1.69, 58.26605, 0.002929473, NaN, NaN, NaN, 0.0396753, "- N/A -   "
1.7, 58.5019, 0.00294891, NaN, NaN, NaN, 0.0384545, "- N/A -   "
1.71, 58.8558, 0.00296835, NaN, NaN, NaN, 0.0384545, "- N/A -   "
1.72, 59.2096, 0.002985008, NaN, NaN, NaN, 0.0372337, "- N/A -   "
1.73, 59.4455, 0.00300445, NaN, NaN, NaN, 0.03601294, "- N/A -   "
1.74, 59.79937, 0.00302388, NaN, NaN, NaN, 0.0347922, "- N/A -   "
1.75, 60.0353, 0.00304332, NaN, NaN, NaN, 0.0335714, "- N/A -   "
1.76, 60.5071, 0.00306276, NaN, NaN, NaN, 0.0335714, "- N/A -   "
1.77, 60.7429, 0.00308219, NaN, NaN, NaN, 0.0323506, "- N/A -   "
1.78, 61.09679, 0.003098855, NaN, NaN, NaN, 0.0323506, "- N/A -   "
1.79, 61.3327, 0.003115516, NaN, NaN, NaN, 0.03112983, "- N/A -   "
1.8, 61.56858, 0.00313218, NaN, NaN, NaN, 0.03112983, "- N/A -   "
1.81, 61.8045, 0.00314884, NaN, NaN, NaN, 0.03112983, "- N/A -   "
1.82, 62.1583, 0.003165497, NaN, NaN, NaN, 0.0323506, "- N/A -   "
1.83, 62.3942, 0.003179381, NaN, NaN, NaN, 0.0323506, "- N/A -   "
1.84, 62.6301, 0.00319326, NaN, NaN, NaN, 0.0335714, "- N/A -   "
1.85, 62.866, 0.003209925, NaN, NaN, NaN, 0.0335714, "- N/A -   "
1.86, 63.2198, 0.003226586, NaN, NaN, NaN, 0.0335714, "- N/A -   "
1.87, 63.33779, 0.003243246, NaN, NaN, NaN, 0.0347922, "- N/A -   "
1.88, 63.5737, 0.00325713, NaN, NaN, NaN, 0.0347922, "- N/A -   "
1.89, 63.92753, 0.00327379, NaN, NaN, NaN, 0.0347922, "- N/A -   "
1.9, 64.04548, 0.00328767, NaN, NaN, NaN, 0.03601294, "- N/A -   "
1.91, 64.28137, 0.003304335, NaN, NaN, NaN, 0.0372337, "- N/A -   "
1.92, 64.6352, 0.00331822, NaN, NaN, NaN, 0.0372337, "- N/A -   "
1.93, 64.87111, 0.00333488, NaN, NaN, NaN, 0.0372337, "- N/A -   "
1.94, 65.22495, 0.003354316, NaN, NaN, NaN, 0.0372337, "- N/A -   "
1.95, 65.5788, 0.003370977, NaN, NaN, NaN, 0.03601294, "- N/A -   "
1.96, 65.69674, 0.00338764, NaN, NaN, NaN, 0.03601294, "- N/A -   "
1.97, 66.16853, 0.00340707, NaN, NaN, NaN, 0.03601294, "- N/A -   "
1.98, 66.40443, 0.003423735, NaN, NaN, NaN, 0.0347922, "- N/A -   "
1.99, 66.75827, 0.00344317, NaN, NaN, NaN, 0.0347922, "- N/A -   "
2, 67.1121, 0.003459833, NaN, NaN, NaN, 0.0335714, "- N/A -   "
2.01, 67.34801, 0.00347927, NaN, NaN, NaN, 0.0323506, "- N/A -   "
2.02, 67.70185, 0.00349593, NaN, NaN, NaN, 0.0323506, "- N/A -   "
2.03, 67.9377, 0.00351259, NaN, NaN, NaN, 0.0323506, "- N/A -   "
2.04, 68.17364, 0.00352925, NaN, NaN, NaN, 0.0323506, "- N/A -   "
2.05, 68.40953, 0.00354591, NaN, NaN, NaN, 0.0323506, "- N/A -   "
2.06, 68.6454, 0.00356257, NaN, NaN, NaN, 0.0335714, "- N/A -   "
2.07, 68.9993, 0.00357646, NaN, NaN, NaN, 0.0335714, "- N/A -   "
2.08, 69.23517, 0.00359034, NaN, NaN, NaN, 0.0347922, "- N/A -   "
2.09, 69.35311, 0.003607, NaN, NaN, NaN, 0.0347922, "- N/A -   "
2.1, 69.707, 0.00362088, NaN, NaN, NaN, 0.03601294, "- N/A -   "
2.11, 70.0608, 0.003637545, NaN, NaN, NaN, 0.03601294, "- N/A -   "
2.12, 70.29669, 0.00365143, NaN, NaN, NaN, 0.0372337, "- N/A -   "
2.13, 70.5326, 0.00366809, NaN, NaN, NaN, 0.0372337, "- N/A -   "
2.14, 70.6505, 0.003681973, NaN, NaN, NaN, 0.0384545, "- N/A -   "
2.15, 70.88643, 0.00369863, NaN, NaN, NaN, 0.0396753, "- N/A -   "
2.16, 71.12233, 0.00370974, NaN, NaN, NaN, 0.04089605, "- N/A -   "
2.17, 71.4762, 0.0037264, NaN, NaN, NaN, 0.04089605, "- N/A -   "
2.18, 71.71206, 0.00374028, NaN, NaN, NaN, 0.04211683, "- N/A -   "
2.19, 72.06591, 0.00375972, NaN, NaN, NaN, 0.04211683, "- N/A -   "
2.2, 72.3018, 0.00377638, NaN, NaN, NaN, 0.04089605, "- N/A -   "
2.21, 72.65564, 0.00379582, NaN, NaN, NaN, 0.0396753, "- N/A -   "
2.22, 73.00948, 0.00381248, NaN, NaN, NaN, 0.0396753, "- N/A -   "
2.23, 73.36333, 0.00383192, NaN, NaN, NaN, 0.0384545, "- N/A -   "
2.24, 73.71717, 0.00385135, NaN, NaN, NaN, 0.0384545, "- N/A -   "
2.25, 73.83511, 0.00386802, NaN, NaN, NaN, 0.0384545, "- N/A -   "
2.26, 74.189, 0.0038819, NaN, NaN, NaN, 0.0384545, "- N/A -   "
2.27, 74.42485, 0.00390134, NaN, NaN, NaN, 0.0384545, "- N/A -   "
2.28, 74.66075, 0.00391522, NaN, NaN, NaN, 0.0384545, "- N/A -   "
2.29, 75.0146, 0.00393188, NaN, NaN, NaN, 0.0384545, "- N/A -   "
2.3, 75.25049, 0.00394854, NaN, NaN, NaN, 0.0384545, "- N/A -   "
2.31, 75.6043, 0.003965202, NaN, NaN, NaN, 0.0384545, "- N/A -   "
2.32, 75.8402, 0.003981862, NaN, NaN, NaN, 0.0384545, "- N/A -   "
2.33, 76.19407, 0.00399852, NaN, NaN, NaN, 0.0384545, "- N/A -   "
2.34, 76.43, 0.00401518, NaN, NaN, NaN, 0.0384545, "- N/A -   "
2.35, 76.7838, 0.00403462, NaN, NaN, NaN, 0.0372337, "- N/A -   "
2.36, 77.13765, 0.00405128, NaN, NaN, NaN, 0.0372337, "- N/A -   "
2.37, 77.37354, 0.00406794, NaN, NaN, NaN, 0.0372337, "- N/A -   "
2.38, 77.6094, 0.004084602, NaN, NaN, NaN, 0.0372337, "- N/A -   "
2.39, 77.96328, 0.00410404, NaN, NaN, NaN, 0.0372337, "- N/A -   "
2.4, 78.19917, 0.0041207, NaN, NaN, NaN, 0.0372337, "- N/A -   "
2.41, 78.55301, 0.00413458, NaN, NaN, NaN, 0.0372337, "- N/A -   "
2.42, 78.78891, 0.004154021, NaN, NaN, NaN, 0.0372337, "- N/A -   "
2.43, 79.2607, 0.00417068, NaN, NaN, NaN, 0.03601294, "- N/A -   "
2.44, 79.4966, 0.004187342, NaN, NaN, NaN, 0.03601294, "- N/A -   "
2.45, 79.73249, 0.004204, NaN, NaN, NaN, 0.0372337, "- N/A -   "
2.46, 79.96838, 0.00422066, NaN, NaN, NaN, 0.0372337, "- N/A -   "
2.47, 80.32223, 0.00423732, NaN, NaN, NaN, 0.03601294, "- N/A -   "
2.48, 80.55813, 0.004253984, NaN, NaN, NaN, 0.0372337, "- N/A -   "
2.49, 80.794, 0.00427064, NaN, NaN, NaN, 0.0372337, "- N/A -   "
2.5, 81.14786, 0.004287305, NaN, NaN, NaN, 0.0372337, "- N/A -   "
2.51, 81.38376, 0.00430119, NaN, NaN, NaN, 0.0372337, "- N/A -   "
2.52, 81.7376, 0.00432063, NaN, NaN, NaN, 0.03601294, "- N/A -   "
2.53, 82.09144, 0.004340063, NaN, NaN, NaN, 0.03601294, "- N/A -   "
2.54, 82.44528, 0.00435672, NaN, NaN, NaN, 0.03601294, "- N/A -   "
2.55, 82.79912, 0.004373384, NaN, NaN, NaN, 0.0347922, "- N/A -   "
2.56, 83.03502, 0.004392822, NaN, NaN, NaN, 0.0347922, "- N/A -   "
2.57, 83.38886, 0.004409482, NaN, NaN, NaN, 0.0335714, "- N/A -   "
2.58, 83.6248, 0.004428919, NaN, NaN, NaN, 0.0335714, "- N/A -   "
2.59, 83.86065, 0.00444558, NaN, NaN, NaN, 0.0323506, "- N/A -   "
2.6, 84.21449, 0.00446224, NaN, NaN, NaN, 0.0323506, "- N/A -   "
2.61, 84.45039, 0.0044789, NaN, NaN, NaN, 0.0323506, "- N/A -   "
2.62, 84.80424, 0.004495561, NaN, NaN, NaN, 0.0323506, "- N/A -   "
2.63, 85.04012, 0.004515, NaN, NaN, NaN, 0.0323506, "- N/A -   "
2.64, 85.39397, 0.004531659, NaN, NaN, NaN, 0.03112983, "- N/A -   "
2.65, 85.74781, 0.00454832, NaN, NaN, NaN, 0.03112983, "- N/A -   "
2.66, 85.9837, 0.004567757, NaN, NaN, NaN, 0.03112983, "- N/A -   "
2.67, 86.33755, 0.004584417, NaN, NaN, NaN, 0.03112983, "- N/A -   "
2.68, 86.69139, 0.004598301, NaN, NaN, NaN, 0.03112983, "- N/A -   "
2.69, 86.92729, 0.004614962, NaN, NaN, NaN, 0.03112983, "- N/A -   "
2.7, 87.16318, 0.004631622, NaN, NaN, NaN, 0.03112983, "- N/A -   "
2.71, 87.51702, 0.00464828, NaN, NaN, NaN, 0.03112983, "- N/A -   "
2.72, 87.75292, 0.00466217, NaN, NaN, NaN, 0.0323506, "- N/A -   "
2.73, 87.9888, 0.004678827, NaN, NaN, NaN, 0.0323506, "- N/A -   "
2.74, 88.22471, 0.004692711, NaN, NaN, NaN, 0.0335714, "- N/A -   "
2.75, 88.57855, 0.004709371, NaN, NaN, NaN, 0.0335714, "- N/A -   "
2.76, 88.8144, 0.004728808, NaN, NaN, NaN, 0.0335714, "- N/A -   "
2.77, 89.16828, 0.004745469, NaN, NaN, NaN, 0.0335714, "- N/A -   "
2.78, 89.52213, 0.00476213, NaN, NaN, NaN, 0.0323506, "- N/A -   "
2.79, 89.758, 0.004781567, NaN, NaN, NaN, 0.0323506, "- N/A -   "
2.8, 90.11186, 0.004798227, NaN, NaN, NaN, 0.0323506, "- N/A -   "
2.81, 90.34776, 0.004814888, NaN, NaN, NaN, 0.0323506, "- N/A -   "
2.82, 90.58366, 0.004828771, NaN, NaN, NaN, 0.0323506, "- N/A -   "
2.83, 90.81956, 0.00484266, NaN, NaN, NaN, 0.0335714, "- N/A -   "
2.84, 91.1734, 0.004856539, NaN, NaN, NaN, 0.0347922, "- N/A -   "
2.85, 91.40929, 0.004870423, NaN, NaN, NaN, 0.03601294, "- N/A -   "
2.86, 91.64519, 0.00488431, NaN, NaN, NaN, 0.0372337, "- N/A -   "
2.87, 91.88108, 0.00490097, NaN, NaN, NaN, 0.0384545, "- N/A -   "
2.88, 92.117, 0.004914851, NaN, NaN, NaN, 0.0384545, "- N/A -   "
2.89, 92.47082, 0.00493151, NaN, NaN, NaN, 0.0384545, "- N/A -   "
2.9, 92.82466, 0.004950949, NaN, NaN, NaN, 0.0384545, "- N/A -   "
2.91, 93.1785, 0.004967609, NaN, NaN, NaN, 0.0372337, "- N/A -   "
2.92, 93.41439, 0.004981493, NaN, NaN, NaN, 0.0384545, "- N/A -   "
2.93, 93.65029, 0.004995377, NaN, NaN, NaN, 0.0396753, "- N/A -   "
2.94, 93.76824, 0.00500926, NaN, NaN, NaN, 0.04089605, "- N/A -   "
2.95, 94.0041, 0.005023144, NaN, NaN, NaN, 0.04211683, "- N/A -   "
2.96, 94.35797, 0.005039805, NaN, NaN, NaN, 0.04211683, "- N/A -   "
2.97, 94.59387, 0.00505369, NaN, NaN, NaN, 0.0433376, "- N/A -   "
2.98, 94.9477, 0.005070349, NaN, NaN, NaN, 0.0433376, "- N/A -   "
2.99, 95.18361, 0.005084233, NaN, NaN, NaN, 0.0445584, "- N/A -   "
3, 95.41951, 0.00510089, NaN, NaN, NaN, 0.0445584, "- N/A -   "
3.01, 95.6554, 0.005117554, NaN, NaN, NaN, 0.04577916, "- N/A -   "
3.02, 96.12719, 0.005134214, NaN, NaN, NaN, 0.0445584, "- N/A -   "
3.03, 96.481, 0.00515365, NaN, NaN, NaN, 0.0445584, "- N/A -   "
3.04, 96.83487, 0.00517031, NaN, NaN, NaN, 0.0445584, "- N/A -   "
3.05, 97.07077, 0.005184196, NaN, NaN, NaN, 0.0445584, "- N/A -   "
3.06, 97.30666, 0.005203633, NaN, NaN, NaN, 0.0445584, "- N/A -   "
3.07, 97.6605, 0.00522029, NaN, NaN, NaN, 0.0433376, "- N/A -   "
3.08, 97.8964, 0.005239731, NaN, NaN, NaN, 0.04211683, "- N/A -   "
3.09, 98.2502, 0.005256391, NaN, NaN, NaN, 0.04211683, "- N/A -   "
3.1, 98.83998, 0.00527583, NaN, NaN, NaN, 0.04089605, "- N/A -   "
3.11, 98.9579, 0.005295266, NaN, NaN, NaN, 0.0396753, "- N/A -   "
3.12, 99.42972, 0.005314703, NaN, NaN, NaN, 0.0384545, "- N/A -   "
3.13, 99.7836, 0.00533692, NaN, NaN, NaN, 0.0372337, "- N/A -   "
3.14, 100.137, 0.00535358, NaN, NaN, NaN, 0.03601294, "- N/A -   "
3.15, 100.6092, 0.00537579, NaN, NaN, NaN, 0.0347922, "- N/A -   "
3.16, 100.845, 0.00539245, NaN, NaN, NaN, 0.0335714, "- N/A -   "
3.17, 101.317, 0.00540911, NaN, NaN, NaN, 0.0335714, "- N/A -   "
3.18, 101.553, 0.00542855, NaN, NaN, NaN, 0.0335714, "- N/A -   "
3.19, 101.907, 0.00544243, NaN, NaN, NaN, 0.0335714, "- N/A -   "
3.2, 102.025, 0.00545909, NaN, NaN, NaN, 0.0335714, "- N/A -   "
3.21, 102.3784, 0.00547575, NaN, NaN, NaN, 0.0335714, "- N/A -   "
3.22, 102.6143, 0.00549242, NaN, NaN, NaN, 0.0335714, "- N/A -   "
3.23, 103.086, 0.00550908, NaN, NaN, NaN, 0.0335714, "- N/A -   "
3.24, 103.322, 0.00552851, NaN, NaN, NaN, 0.0335714, "- N/A -   "
3.25, 103.558, 0.00554517, NaN, NaN, NaN, 0.0335714, "- N/A -   "
3.26, 103.676, 0.00555906, NaN, NaN, NaN, 0.0335714, "- N/A -   "
3.27, 104.148, 0.00557572, NaN, NaN, NaN, 0.0347922, "- N/A -   "
3.28, 104.384, 0.00559238, NaN, NaN, NaN, 0.0347922, "- N/A -   "
3.29, 104.737, 0.00560904, NaN, NaN, NaN, 0.0347922, "- N/A -   "
3.3, 105.091, 0.00562292, NaN, NaN, NaN, 0.0347922, "- N/A -   "
3.31, 105.445, 0.00563958, NaN, NaN, NaN, 0.0347922, "- N/A -   "
3.32, 105.681, 0.005656244, NaN, NaN, NaN, 0.0347922, "- N/A -   "
3.33, 105.917, 0.00567568, NaN, NaN, NaN, 0.0347922, "- N/A -   "
3.34, 106.271, 0.00569234, NaN, NaN, NaN, 0.0335714, "- N/A -   "
3.35, 106.625, 0.005709002, NaN, NaN, NaN, 0.0335714, "- N/A -   "
3.36, 106.978, 0.00572844, NaN, NaN, NaN, 0.0323506, "- N/A -   "
3.37, 107.214, 0.00574788, NaN, NaN, NaN, 0.0323506, "- N/A -   "
3.38, 107.686, 0.00576454, NaN, NaN, NaN, 0.03112983, "- N/A -   "
3.39, 107.922, 0.0057812, NaN, NaN, NaN, 0.03112983, "- N/A -   "
3.4, 108.276, 0.00579508, NaN, NaN, NaN, 0.0323506, "- N/A -   "
3.41, 108.63, 0.005814519, NaN, NaN, NaN, 0.0323506, "- N/A -   "
3.42, 108.748, 0.00583118, NaN, NaN, NaN, 0.03112983, "- N/A -   "
3.43, 109.101, 0.00584784, NaN, NaN, NaN, 0.03112983, "- N/A -   "
3.44, 109.455, 0.0058645, NaN, NaN, NaN, 0.03112983, "- N/A -   "
3.45, 109.691, 0.00588116, NaN, NaN, NaN, 0.03112983, "- N/A -   "
3.46, 110.045, 0.005897821, NaN, NaN, NaN, 0.03112983, "- N/A -   "
3.47, 110.281, 0.0059117, NaN, NaN, NaN, 0.0323506, "- N/A -   "
3.48, 110.635, 0.00592837, NaN, NaN, NaN, 0.0323506, "- N/A -   "
3.49, 110.871, 0.00594225, NaN, NaN, NaN, 0.0335714, "- N/A -   "
3.5, 111.107, 0.005956133, NaN, NaN, NaN, 0.0347922, "- N/A -   "
3.51, 111.342, 0.005972794, NaN, NaN, NaN, 0.03601294, "- N/A -   "
3.52, 111.696, 0.005986677, NaN, NaN, NaN, 0.03601294, "- N/A -   "
3.53, 111.932, 0.00600056, NaN, NaN, NaN, 0.0372337, "- N/A -   "
3.54, 112.168, 0.006014445, NaN, NaN, NaN, 0.0396753, "- N/A -   "
3.55, 112.286, 0.006025552, NaN, NaN, NaN, 0.04089605, "- N/A -   "
3.56, 112.522, 0.00603944, NaN, NaN, NaN, 0.04211683, "- N/A -   "
3.57, 112.758, 0.00605054, NaN, NaN, NaN, 0.0445584, "- N/A -   "
3.58, 112.994, 0.006064426, NaN, NaN, NaN, 0.04577916, "- N/A -   "
3.59, 113.23, 0.006083864, NaN, NaN, NaN, 0.04577916, "- N/A -   "
3.6, 113.583, 0.006097747, NaN, NaN, NaN, 0.04577916, "- N/A -   "
3.61, 113.937, 0.00611718, NaN, NaN, NaN, 0.0445584, "- N/A -   "
3.62, 114.2911, 0.006133845, NaN, NaN, NaN, 0.04577916, "- N/A -   "
3.63, 114.645, 0.00615051, NaN, NaN, NaN, 0.04577916, "- N/A -   "
3.64, 114.999, 0.006167166, NaN, NaN, NaN, 0.04577916, "- N/A -   "
3.65, 115.353, 0.006183827, NaN, NaN, NaN, 0.04577916, "- N/A -   "
3.66, 115.706, 0.00619771, NaN, NaN, NaN, 0.04699994, "- N/A -   "
3.67, 115.942, 0.00621715, NaN, NaN, NaN, 0.04577916, "- N/A -   "
3.68, 116.296, 0.006236585, NaN, NaN, NaN, 0.0445584, "- N/A -   "
3.69, 116.65, 0.0062588, NaN, NaN, NaN, 0.0433376, "- N/A -   "
3.7, 117.004, 0.006278236, NaN, NaN, NaN, 0.04211683, "- N/A -   "
3.71, 117.476, 0.006294897, NaN, NaN, NaN, 0.04089605, "- N/A -   "
3.72, 117.712, 0.006314334, NaN, NaN, NaN, 0.04089605, "- N/A -   "
3.73, 118.065, 0.006330994, NaN, NaN, NaN, 0.0396753, "- N/A -   "
3.74, 118.537, 0.006347655, NaN, NaN, NaN, 0.0396753, "- N/A -   "
3.75, 118.7731, 0.006367092, NaN, NaN, NaN, 0.0384545, "- N/A -   "
3.76, 119.127, 0.006383753, NaN, NaN, NaN, 0.0384545, "- N/A -   "
3.77, 119.481, 0.00640319, NaN, NaN, NaN, 0.0384545, "- N/A -   "
3.78, 119.717, 0.00641985, NaN, NaN, NaN, 0.0372337, "- N/A -   "
3.79, 120.071, 0.00643929, NaN, NaN, NaN, 0.0372337, "- N/A -   "
3.8, 120.424, 0.006455948, NaN, NaN, NaN, 0.03601294, "- N/A -   "
3.81, 120.778, 0.006472609, NaN, NaN, NaN, 0.03601294, "- N/A -   "
3.82, 121.014, 0.006489269, NaN, NaN, NaN, 0.03601294, "- N/A -   "
3.83, 121.368, 0.006508706, NaN, NaN, NaN, 0.0347922, "- N/A -   "
3.84, 121.604, 0.006525367, NaN, NaN, NaN, 0.03601294, "- N/A -   "
3.85, 122.076, 0.00654203, NaN, NaN, NaN, 0.0347922, "- N/A -   "
3.86, 122.312, 0.006558688, NaN, NaN, NaN, 0.0347922, "- N/A -   "
3.87, 122.783, 0.006578125, NaN, NaN, NaN, 0.0335714, "- N/A -   "
3.88, 123.019, 0.006594786, NaN, NaN, NaN, 0.0335714, "- N/A -   "
3.89, 123.373, 0.006614223, NaN, NaN, NaN, 0.0323506, "- N/A -   "
3.9, 123.7269, 0.00663366, NaN, NaN, NaN, 0.0323506, "- N/A -   "
3.91, 123.963, 0.006650321, NaN, NaN, NaN, 0.0323506, "- N/A -   "
3.92, 124.317, 0.006666981, NaN, NaN, NaN, 0.03112983, "- N/A -   "
3.93, 124.67, 0.006683642, NaN, NaN, NaN, 0.03112983, "- N/A -   "
3.94, 125.024, 0.006703079, NaN, NaN, NaN, 0.0299091, "- N/A -   "
3.95, 125.378, 0.00672252, NaN, NaN, NaN, 0.0299091, "- N/A -   "
3.96, 125.732, 0.00673918, NaN, NaN, NaN, 0.0286883, "- N/A -   "
3.97, 125.9679, 0.00675584, NaN, NaN, NaN, 0.0286883, "- N/A -   "
3.98, 126.44, 0.006775275, NaN, NaN, NaN, 0.0286883, "- N/A -   "
3.99, 126.676, 0.006789158, NaN, NaN, NaN, 0.0286883, "- N/A -   "
4, 126.911, 0.006805819, NaN, NaN, NaN, 0.0286883, "- N/A -   "
4.01, 127.147, 0.00682248, NaN, NaN, NaN, 0.0299091, "- N/A -   "
4.02, 127.501, 0.006836363, NaN, NaN, NaN, 0.0299091, "- N/A -   "
4.03, 127.737, 0.006853024, NaN, NaN, NaN, 0.0299091, "- N/A -   "
4.04, 128.091, 0.00686968, NaN, NaN, NaN, 0.0299091, "- N/A -   "
4.05, 128.4448, 0.006886345, NaN, NaN, NaN, 0.0299091, "- N/A -   "
4.06, 128.6807, 0.00690301, NaN, NaN, NaN, 0.0299091, "- N/A -   "
4.07, 129.035, 0.00692244, NaN, NaN, NaN, 0.0299091, "- N/A -   "
4.08, 129.27, 0.0069391, NaN, NaN, NaN, 0.0299091, "- N/A -   "
4.09, 129.742, 0.00695576, NaN, NaN, NaN, 0.0299091, "- N/A -   "
4.1, 129.978, 0.00696965, NaN, NaN, NaN, 0.0299091, "- N/A -   "
4.11, 130.214, 0.006983531, NaN, NaN, NaN, 0.03112983, "- N/A -   "
4.12, 130.4499, 0.00699742, NaN, NaN, NaN, 0.0323506, "- N/A -   "
4.13, 130.6858, 0.0070113, NaN, NaN, NaN, 0.0335714, "- N/A -   "
4.14, 131.04, 0.00702796, NaN, NaN, NaN, 0.0335714, "- N/A -   "
4.15, 131.276, 0.007041843, NaN, NaN, NaN, 0.0347922, "- N/A -   "
4.16, 131.511, 0.00705573, NaN, NaN, NaN, 0.03601294, "- N/A -   "
4.17, 131.629, 0.00706961, NaN, NaN, NaN, 0.0372337, "- N/A -   "
4.18, 131.983, 0.007083494, NaN, NaN, NaN, 0.0384545, "- N/A -   "
4.19, 132.219, 0.00709738, NaN, NaN, NaN, 0.0396753, "- N/A -   "
4.2, 132.455, 0.00711126, NaN, NaN, NaN, 0.04089605, "- N/A -   "
4.21, 132.6909, 0.00712515, NaN, NaN, NaN, 0.04211683, "- N/A -   "
4.22, 132.9268, 0.00713903, NaN, NaN, NaN, 0.0433376, "- N/A -   "
4.23, 133.163, 0.007152913, NaN, NaN, NaN, 0.0445584, "- N/A -   "
4.24, 133.517, 0.0071668, NaN, NaN, NaN, 0.04577916, "- N/A -   "
4.25, 133.87, 0.00718346, NaN, NaN, NaN, 0.04577916, "- N/A -   "
4.26, 134.106, 0.00720012, NaN, NaN, NaN, 0.04577916, "- N/A -   "
4.27, 134.46, 0.00721678, NaN, NaN, NaN, 0.04699994, "- N/A -   "
4.28, 134.814, 0.00723344, NaN, NaN, NaN, 0.04577916, "- N/A -   "
4.29, 135.1678, 0.007252876, NaN, NaN, NaN, 0.0445584, "- N/A -   "
4.3, 135.64, 0.00727231, NaN, NaN, NaN, 0.0433376, "- N/A -   "
4.31, 135.993, 0.007288974, NaN, NaN, NaN, 0.0433376, "- N/A -   "
4.32, 136.229, 0.00730563, NaN, NaN, NaN, 0.0433376, "- N/A -   "
4.33, 136.583, 0.00732229, NaN, NaN, NaN, 0.0433376, "- N/A -   "
4.34, 136.819, 0.00733896, NaN, NaN, NaN, 0.0433376, "- N/A -   "
4.35, 137.173, 0.00735839, NaN, NaN, NaN, 0.0433376, "- N/A -   "
4.36, 137.527, 0.00737505, NaN, NaN, NaN, 0.0433376, "- N/A -   "
4.37, 137.763, 0.00739171, NaN, NaN, NaN, 0.0433376, "- N/A -   "
4.38, 138.116, 0.00740837, NaN, NaN, NaN, 0.0433376, "- N/A -   "
4.39, 138.47, 0.00742503, NaN, NaN, NaN, 0.0433376, "- N/A -   "
4.4, 138.706, 0.0074417, NaN, NaN, NaN, 0.0433376, "- N/A -   "
4.41, 139.06, 0.00745558, NaN, NaN, NaN, 0.0433376, "- N/A -   "
4.42, 139.296, 0.00747224, NaN, NaN, NaN, 0.0433376, "- N/A -   "
4.43, 139.768, 0.0074889, NaN, NaN, NaN, 0.0433376, "- N/A -   "
4.44, 140.004, 0.00750556, NaN, NaN, NaN, 0.0433376, "- N/A -   "
4.45, 140.357, 0.007525, NaN, NaN, NaN, 0.04211683, "- N/A -   "
4.46, 140.829, 0.00754443, NaN, NaN, NaN, 0.04089605, "- N/A -   "
4.47, 141.183, 0.00756387, NaN, NaN, NaN, 0.04089605, "- N/A -   "
4.48, 141.537, 0.00758331, NaN, NaN, NaN, 0.0384545, "- N/A -   "
4.49, 142.009, 0.007605524, NaN, NaN, NaN, 0.0372337, "- N/A -   "
4.5, 142.3626, 0.007624961, NaN, NaN, NaN, 0.0347922, "- N/A -   "
4.51, 142.716, 0.0076444, NaN, NaN, NaN, 0.0335714, "- N/A -   "
4.52, 143.188, 0.007666612, NaN, NaN, NaN, 0.0323506, "- N/A -   "
4.53, 143.542, 0.00768327, NaN, NaN, NaN, 0.03112983, "- N/A -   "
4.54, 143.896, 0.007699933, NaN, NaN, NaN, 0.03112983, "- N/A -   "
4.55, 144.132, 0.007716594, NaN, NaN, NaN, 0.03112983, "- N/A -   "
4.56, 144.486, 0.00773325, NaN, NaN, NaN, 0.03112983, "- N/A -   "
4.57, 144.8395, 0.00774991, NaN, NaN, NaN, 0.03112983, "- N/A -   "
4.58, 144.957, 0.007766575, NaN, NaN, NaN, 0.03112983, "- N/A -   "
4.59, 145.429, 0.007783236, NaN, NaN, NaN, 0.0323506, "- N/A -   "
4.6, 145.665, 0.00779712, NaN, NaN, NaN, 0.0323506, "- N/A -   "
4.61, 145.901, 0.007811003, NaN, NaN, NaN, 0.0335714, "- N/A -   "
4.62, 146.255, 0.007830441, NaN, NaN, NaN, 0.0323506, "- N/A -   "
4.63, 146.6087, 0.0078471, NaN, NaN, NaN, 0.0323506, "- N/A -   "
4.64, 146.963, 0.007863762, NaN, NaN, NaN, 0.0323506, "- N/A -   "
4.65, 147.198, 0.007880422, NaN, NaN, NaN, 0.0323506, "- N/A -   "
4.66, 147.434, 0.007897083, NaN, NaN, NaN, 0.0335714, "- N/A -   "
4.67, 147.906, 0.007913743, NaN, NaN, NaN, 0.0335714, "- N/A -   "
4.68, 148.024, 0.007927627, NaN, NaN, NaN, 0.0335714, "- N/A -   "
4.69, 148.378, 0.007944287, NaN, NaN, NaN, 0.0347922, "- N/A -   "
4.7, 148.732, 0.007958171, NaN, NaN, NaN, 0.0347922, "- N/A -   "
4.71, 149.204, 0.007974831, NaN, NaN, NaN, 0.0347922, "- N/A -   "
4.72, 149.3215, 0.007991492, NaN, NaN, NaN, 0.0347922, "- N/A -   "
4.73, 149.793, 0.008005376, NaN, NaN, NaN, 0.03601294, "- N/A -   "
4.74, 150.029, 0.008022036, NaN, NaN, NaN, 0.03601294, "- N/A -   "
4.75, 150.265, 0.008038697, NaN, NaN, NaN, 0.0372337, "- N/A -   "
4.76, 150.619, 0.008055357, NaN, NaN, NaN, 0.0372337, "- N/A -   "
4.77, 150.973, 0.008069241, NaN, NaN, NaN, 0.0372337, "- N/A -   "
4.78, 151.445, 0.008085902, NaN, NaN, NaN, 0.0372337, "- N/A -   "
4.79, 151.68, 0.008102562, NaN, NaN, NaN, 0.0372337, "- N/A -   "
4.8, 152.034, 0.008119223, NaN, NaN, NaN, 0.0384545, "- N/A -   "
4.81, 152.27, 0.008133106, NaN, NaN, NaN, 0.0384545, "- N/A -   "
4.82, 152.624, 0.008149767, NaN, NaN, NaN, 0.0384545, "- N/A -   "
4.83, 152.978, 0.008166427, NaN, NaN, NaN, 0.0384545, "- N/A -   "
4.84, 153.214, 0.008185865, NaN, NaN, NaN, 0.0384545, "- N/A -   "
4.85, 153.686, 0.008202525, NaN, NaN, NaN, 0.0372337, "- N/A -   "
4.86, 154.0394, 0.008219186, NaN, NaN, NaN, 0.0384545, "- N/A -   "
4.87, 154.2753, 0.008235846, NaN, NaN, NaN, 0.0384545, "- N/A -   "
4.88, 154.629, 0.00824973, NaN, NaN, NaN, 0.0384545, "- N/A -   "
4.89, 154.983, 0.00826639, NaN, NaN, NaN, 0.0384545, "- N/A -   "
4.9, 155.219, 0.008280274, NaN, NaN, NaN, 0.0396753, "- N/A -   "
4.91, 155.573, 0.008294158, NaN, NaN, NaN, 0.04089605, "- N/A -   "
4.92, 155.691, 0.008308042, NaN, NaN, NaN, 0.04211683, "- N/A -   "
4.93, 156.0445, 0.008321925, NaN, NaN, NaN, 0.0433376, "- N/A -   "
4.94, 156.398, 0.008338586, NaN, NaN, NaN, 0.0433376, "- N/A -   "
4.95, 156.752, 0.008355246, NaN, NaN, NaN, 0.0433376, "- N/A -   "
4.96, 157.106, 0.008371907, NaN, NaN, NaN, 0.0445584, "- N/A -   "
4.97, 157.46, 0.008388568, NaN, NaN, NaN, 0.0445584, "- N/A -   "
4.98, 157.814, 0.008405228, NaN, NaN, NaN, 0.0433376, "- N/A -   "
4.99, 158.168, 0.008421889, NaN, NaN, NaN, 0.0445584, "- N/A -   "
5, 158.521, 0.008435773, NaN, NaN, NaN, 0.0445584, "- N/A -   "
5.01, 158.875, 0.008452433, NaN, NaN, NaN, 0.0445584, "- N/A -   "
5.02, 159.347, 0.00847187, NaN, NaN, NaN, 0.0433376, "- N/A -   "
5.03, 159.583, 0.00848853, NaN, NaN, NaN, 0.0433376, "- N/A -   "
5.04, 160.055, 0.008507968, NaN, NaN, NaN, 0.0433376, "- N/A -   "
5.05, 160.409, 0.008527406, NaN, NaN, NaN, 0.04211683, "- N/A -   "
5.06, 160.88, 0.008546842, NaN, NaN, NaN, 0.0396753, "- N/A -   "
5.07, 161.352, 0.00856628, NaN, NaN, NaN, 0.0384545, "- N/A -   "
5.08, 161.942, 0.008588494, NaN, NaN, NaN, 0.0372337, "- N/A -   "
5.09, 162.414, 0.008607931, NaN, NaN, NaN, 0.0347922, "- N/A -   "
5.1, 162.768, 0.008627368, NaN, NaN, NaN, 0.0347922, "- N/A -   "
5.11, 163.121, 0.008644029, NaN, NaN, NaN, 0.0335714, "- N/A -   "
5.12, 163.475, 0.008663466, NaN, NaN, NaN, 0.0335714, "- N/A -   "
5.13, 163.829, 0.008680127, NaN, NaN, NaN, 0.0323506, "- N/A -   "
5.14, 164.301, 0.008699563, NaN, NaN, NaN, 0.0323506, "- N/A -   "
5.15, 164.773, 0.008716225, NaN, NaN, NaN, 0.03112983, "- N/A -   "
5.16, 165.009, 0.008735661, NaN, NaN, NaN, 0.03112983, "- N/A -   "
5.17, 165.4803, 0.008752322, NaN, NaN, NaN, 0.0299091, "- N/A -   "
5.18, 165.834, 0.008768982, NaN, NaN, NaN, 0.0299091, "- N/A -   "
5.19, 166.188, 0.008785644, NaN, NaN, NaN, 0.0299091, "- N/A -   "
5.2, 166.542, 0.008802303, NaN, NaN, NaN, 0.03112983, "- N/A -   "
5.21, 166.896, 0.008816187, NaN, NaN, NaN, 0.03112983, "- N/A -   "
5.22, 167.25, 0.008832848, NaN, NaN, NaN, 0.03112983, "- N/A -   "
5.23, 167.603, 0.008849508, NaN, NaN, NaN, 0.03112983, "- N/A -   "
5.24, 167.839, 0.008866169, NaN, NaN, NaN, 0.0323506, "- N/A -   "
5.25, 168.429, 0.00888283, NaN, NaN, NaN, 0.0323506, "- N/A -   "
5.26, 168.783, 0.008896713, NaN, NaN, NaN, 0.0323506, "- N/A -   "
5.27, 169.019, 0.008913374, NaN, NaN, NaN, 0.0335714, "- N/A -   "
5.28, 169.373, 0.008927258, NaN, NaN, NaN, 0.0335714, "- N/A -   "
5.29, 169.608, 0.008941141, NaN, NaN, NaN, 0.0347922, "- N/A -   "
5.3, 169.962, 0.008957801, NaN, NaN, NaN, 0.0347922, "- N/A -   "
5.31, 170.1982, 0.008974463, NaN, NaN, NaN, 0.03601294, "- N/A -   "
5.32, 170.67, 0.008988346, NaN, NaN, NaN, 0.03601294, "- N/A -   "
5.33, 171.024, 0.009005006, NaN, NaN, NaN, 0.03601294, "- N/A -   "
5.34, 171.378, 0.009021667, NaN, NaN, NaN, 0.0372337, "- N/A -   "
5.35, 171.732, 0.009038327, NaN, NaN, NaN, 0.03601294, "- N/A -   "
5.36, 172.203, 0.009054988, NaN, NaN, NaN, 0.03601294, "- N/A -   "
5.37, 172.557, 0.009071649, NaN, NaN, NaN, 0.03601294, "- N/A -   "
5.38, 172.911, 0.009088309, NaN, NaN, NaN, 0.03601294, "- N/A -   "
5.39, 173.383, 0.009107746, NaN, NaN, NaN, 0.0347922, "- N/A -   "
5.4, 173.737, 0.009127184, NaN, NaN, NaN, 0.0347922, "- N/A -   "
5.41, 174.208, 0.00914662, NaN, NaN, NaN, 0.0335714, "- N/A -   "
5.42, 174.562, 0.009163282, NaN, NaN, NaN, 0.0335714, "- N/A -   "
5.43, 174.9161, 0.009179941, NaN, NaN, NaN, 0.0323506, "- N/A -   "
5.44, 175.388, 0.009196603, NaN, NaN, NaN, 0.0323506, "- N/A -   "
5.45, 175.742, 0.009213263, NaN, NaN, NaN, 0.0323506, "- N/A -   "
5.46, 176.096, 0.009227146, NaN, NaN, NaN, 0.0335714, "- N/A -   "
5.47, 176.331, 0.009243807, NaN, NaN, NaN, 0.0335714, "- N/A -   "
5.48, 176.803, 0.009263244, NaN, NaN, NaN, 0.0323506, "- N/A -   "
5.49, 177.1571, 0.009279905, NaN, NaN, NaN, 0.0323506, "- N/A -   "
5.5, 177.511, 0.009293789, NaN, NaN, NaN, 0.0335714, "- N/A -   "
5.51, 177.865, 0.009310449, NaN, NaN, NaN, 0.0335714, "- N/A -   "
5.52, 178.219, 0.009329887, NaN, NaN, NaN, 0.0335714, "- N/A -   "
5.53, 178.455, 0.009340994, NaN, NaN, NaN, 0.0347922, "- N/A -   "
5.54, 178.808, 0.009354877, NaN, NaN, NaN, 0.03601294, "- N/A -   "
5.55, 179.162, 0.009371538, NaN, NaN, NaN, 0.03601294, "- N/A -   "
5.56, 179.3981, 0.009385422, NaN, NaN, NaN, 0.0372337, "- N/A -   "
5.57, 179.752, 0.009399305, NaN, NaN, NaN, 0.0384545, "- N/A -   "
5.58, 179.988, 0.009410412, NaN, NaN, NaN, 0.04089605, "- N/A -   "
5.59, 180.224, 0.00942707, NaN, NaN, NaN, 0.04089605, "- N/A -   "
5.6, 180.696, 0.009443733, NaN, NaN, NaN, 0.04211683, "- N/A -   "
5.61, 180.931, 0.009457617, NaN, NaN, NaN, 0.04211683, "- N/A -   "
5.62, 181.403, 0.00947428, NaN, NaN, NaN, 0.04211683, "- N/A -   "
5.63, 181.757, 0.009490938, NaN, NaN, NaN, 0.04211683, "- N/A -   "
5.64, 182.229, 0.009507598, NaN, NaN, NaN, 0.04211683, "- N/A -   "
5.65, 182.465, 0.009527036, NaN, NaN, NaN, 0.04089605, "- N/A -   "
5.66, 182.937, 0.009543696, NaN, NaN, NaN, 0.04211683, "- N/A -   "
5.67, 183.172, 0.009560357, NaN, NaN, NaN, 0.04089605, "- N/A -   "
5.68, 183.644, 0.009577017, NaN, NaN, NaN, 0.04089605, "- N/A -   "
5.69, 183.998, 0.009593678, NaN, NaN, NaN, 0.04089605, "- N/A -   "
5.7, 184.3519, 0.009610338, NaN, NaN, NaN, 0.04089605, "- N/A -   "
5.71, 184.706, 0.009626999, NaN, NaN, NaN, 0.04089605, "- N/A -   "
5.72, 185.178, 0.009646436, NaN, NaN, NaN, 0.0396753, "- N/A -   "
5.73, 185.531, 0.009663097, NaN, NaN, NaN, 0.0396753, "- N/A -   "
5.74, 186.003, 0.009682534, NaN, NaN, NaN, 0.0396753, "- N/A -   "
5.75, 186.239, 0.009699194, NaN, NaN, NaN, 0.0384545, "- N/A -   "
5.76, 186.711, 0.009715854, NaN, NaN, NaN, 0.0384545, "- N/A -   "
5.77, 187.183, 0.009735292, NaN, NaN, NaN, 0.0372337, "- N/A -   "
5.78, 187.536, 0.009751952, NaN, NaN, NaN, 0.0372337, "- N/A -   "
5.79, 187.89, 0.009768614, NaN, NaN, NaN, 0.0372337, "- N/A -   "
5.8, 188.1262, 0.009785274, NaN, NaN, NaN, 0.0372337, "- N/A -   "
5.81, 188.716, 0.00980193, NaN, NaN, NaN, 0.0372337, "- N/A -   "
5.82, 188.952, 0.009818594, NaN, NaN, NaN, 0.0384545, "- N/A -   "
5.83, 189.3057, 0.009832478, NaN, NaN, NaN, 0.0384545, "- N/A -   "
5.84, 189.5416, 0.009849139, NaN, NaN, NaN, 0.0384545, "- N/A -   "
5.85, 189.895, 0.0098658, NaN, NaN, NaN, 0.0384545, "- N/A -   "
5.86, 190.367, 0.00988246, NaN, NaN, NaN, 0.0384545, "- N/A -   "
5.87, 190.721, 0.009899121, NaN, NaN, NaN, 0.0384545, "- N/A -   "
5.88, 191.075, 0.00991578, NaN, NaN, NaN, 0.0384545, "- N/A -   "
5.89, 191.311, 0.009932442, NaN, NaN, NaN, 0.0384545, "- N/A -   "
5.9, 191.7826, 0.009949102, NaN, NaN, NaN, 0.0384545, "- N/A -   "
5.91, 192.136, 0.00996854, NaN, NaN, NaN, 0.0384545, "- N/A -   "
5.92, 192.49, 0.0099852, NaN, NaN, NaN, 0.0372337, "- N/A -   "
5.93, 193.08, 0.0100046, NaN, NaN, NaN, 0.03601294, "- N/A -   "
5.94, 193.434, 0.0100213, NaN, NaN, NaN, 0.03601294, "- N/A -   "
5.95, 193.906, 0.010038, NaN, NaN, NaN, 0.03601294, "- N/A -   "
5.96, 194.142, 0.0100574, NaN, NaN, NaN, 0.0347922, "- N/A -   "
[...]
30.07, 1151.81, 0.0502509, NaN, NaN, NaN, 0.0299091, "- N/A -   "
30.12, 1153.72, 0.05032585, NaN, NaN, NaN, 0.0335714, "- N/A -   "
30.17, 1155.51, 0.0504008, NaN, NaN, NaN, 0.0384545, "- N/A -   "
30.22, 1157.772, 0.05047857, NaN, NaN, NaN, 0.0396753, "- N/A -   "
30.27, 1159.68, 0.05055632, NaN, NaN, NaN, 0.0433376, "- N/A -   "
30.32, 1161.83, 0.0506313, NaN, NaN, NaN, 0.04577916, "- N/A -   "
30.37, 1164.21, 0.0507201, NaN, NaN, NaN, 0.0433376, "- N/A -   "
30.42, 1166.72, 0.0508146, NaN, NaN, NaN, 0.0396753, "- N/A -   "
30.47, 1169.22, 0.05090619, NaN, NaN, NaN, 0.0347922, "- N/A -   "
30.52, 1171.49, 0.05099227, NaN, NaN, NaN, 0.0335714, "- N/A -   "
30.57, 1173.75, 0.05107835, NaN, NaN, NaN, 0.0335714, "- N/A -   "
30.62, 1176.02, 0.05116165, NaN, NaN, NaN, 0.0323506, "- N/A -   "
30.67, 1178.4, 0.0512505, NaN, NaN, NaN, 0.0299091, "- N/A -   "
30.72, 1180.67, 0.0513338, NaN, NaN, NaN, 0.0299091, "- N/A -   "
30.77, 1182.7, 0.0514116, NaN, NaN, NaN, 0.0335714, "- N/A -   "
30.82, 1184.6, 0.0514865, NaN, NaN, NaN, 0.0372337, "- N/A -   "
30.87, 1186.51, 0.05155595, NaN, NaN, NaN, 0.0433376, "- N/A -   "
30.92, 1188.539, 0.0516337, NaN, NaN, NaN, 0.04577916, "- N/A -   "
30.97, 1190.69, 0.051717, NaN, NaN, NaN, 0.04577916, "- N/A -   "
31.02, 1193.309, 0.05181141, NaN, NaN, NaN, 0.04089605, "- N/A -   "
31.07, 1196.171, 0.05191415, NaN, NaN, NaN, 0.0323506, "- N/A -   "
31.12, 1198.44, 0.0519975, NaN, NaN, NaN, 0.0323506, "- N/A -   "
31.17, 1200.23, 0.05207243, NaN, NaN, NaN, 0.03601294, "- N/A -   "
31.22, 1202.49, 0.05215295, NaN, NaN, NaN, 0.0372337, "- N/A -   "
31.27, 1204.88, 0.0522446, NaN, NaN, NaN, 0.0335714, "- N/A -   "
31.32, 1207.26, 0.05233344, NaN, NaN, NaN, 0.03112983, "- N/A -   "
31.37, 1209.53, 0.052414, NaN, NaN, NaN, 0.0335714, "- N/A -   "
31.42, 1211.44, 0.05248616, NaN, NaN, NaN, 0.0372337, "- N/A -   "
31.47, 1213.58, 0.0525695, NaN, NaN, NaN, 0.0384545, "- N/A -   "
31.52, 1215.37, 0.0526444, NaN, NaN, NaN, 0.04089605, "- N/A -   "
31.57, 1217.76, 0.05272774, NaN, NaN, NaN, 0.04089605, "- N/A -   "
31.62, 1219.783, 0.0528083, NaN, NaN, NaN, 0.0433376, "- N/A -   "
31.67, 1222.05, 0.0528888, NaN, NaN, NaN, 0.0433376, "- N/A -   "
31.72, 1224.43, 0.0529749, NaN, NaN, NaN, 0.04211683, "- N/A -   "
31.77, 1226.7, 0.0530637, NaN, NaN, NaN, 0.0396753, "- N/A -   "
31.82, 1229.44, 0.05316369, NaN, NaN, NaN, 0.0335714, "- N/A -   "
31.87, 1231.95, 0.0532553, NaN, NaN, NaN, 0.0286883, "- N/A -   "
31.92, 1234.33, 0.0533414, NaN, NaN, NaN, 0.0286883, "- N/A -   "
31.97, 1236.359, 0.05342193, NaN, NaN, NaN, 0.0299091, "- N/A -   "
32.02, 1238.51, 0.0534969, NaN, NaN, NaN, 0.0335714, "- N/A -   "
32.07, 1240.29, 0.05356632, NaN, NaN, NaN, 0.0384545, "- N/A -   "
32.12, 1242.56, 0.0536496, NaN, NaN, NaN, 0.0384545, "- N/A -   "
32.17, 1244.83, 0.0537329, NaN, NaN, NaN, 0.0384545, "- N/A -   "
32.22, 1246.97, 0.05381345, NaN, NaN, NaN, 0.04089605, "- N/A -   "
32.27, 1249, 0.0538856, NaN, NaN, NaN, 0.0445584, "- N/A -   "
32.32, 1251.03, 0.0539689, NaN, NaN, NaN, 0.04577916, "- N/A -   "
32.37, 1253.77, 0.0540634, NaN, NaN, NaN, 0.0396753, "- N/A -   "
32.42, 1256.39, 0.0541605, NaN, NaN, NaN, 0.0335714, "- N/A -   "
32.47, 1258.9, 0.0542494, NaN, NaN, NaN, 0.03112983, "- N/A -   "
32.52, 1261.04, 0.0543383, NaN, NaN, NaN, 0.0286883, "- N/A -   "
32.57, 1263.07, 0.05441323, NaN, NaN, NaN, 0.0335714, "- N/A -   "
32.62, 1265.22, 0.05449098, NaN, NaN, NaN, 0.0347922, "- N/A -   "
32.67, 1267.603, 0.0545771, NaN, NaN, NaN, 0.0335714, "- N/A -   "
32.72, 1269.99, 0.05466869, NaN, NaN, NaN, 0.03112983, "- N/A -   "
32.77, 1272.02, 0.05474366, NaN, NaN, NaN, 0.0335714, "- N/A -   "
32.82, 1274.281, 0.0548186, NaN, NaN, NaN, 0.0372337, "- N/A -   "
32.87, 1276.07, 0.0548936, NaN, NaN, NaN, 0.04089605, "- N/A -   "
32.92, 1278.34, 0.0549769, NaN, NaN, NaN, 0.04211683, "- N/A -   "
32.97, 1280.48, 0.05506021, NaN, NaN, NaN, 0.04089605, "- N/A -   "
33.02, 1282.75, 0.0551435, NaN, NaN, NaN, 0.04089605, "- N/A -   "
33.07, 1285.133, 0.05523237, NaN, NaN, NaN, 0.0396753, "- N/A -   "
33.12, 1287.52, 0.05531567, NaN, NaN, NaN, 0.0384545, "- N/A -   "
33.17, 1289.78, 0.05539897, NaN, NaN, NaN, 0.0384545, "- N/A -   "
33.22, 1291.93, 0.05548228, NaN, NaN, NaN, 0.0384545, "- N/A -   "
33.27, 1294.43, 0.05557391, NaN, NaN, NaN, 0.0347922, "- N/A -   "
33.32, 1296.7, 0.05565999, NaN, NaN, NaN, 0.0335714, "- N/A -   "
33.37, 1298.97, 0.0557461, NaN, NaN, NaN, 0.0323506, "- N/A -   "
33.42, 1301.11, 0.0558266, NaN, NaN, NaN, 0.0335714, "- N/A -   "
33.47, 1303.02, 0.0559043, NaN, NaN, NaN, 0.03601294, "- N/A -   "
33.52, 1305.53, 0.0559932, NaN, NaN, NaN, 0.0335714, "- N/A -   "
33.57, 1307.67, 0.05607095, NaN, NaN, NaN, 0.03601294, "- N/A -   "
33.62, 1309.82, 0.0561515, NaN, NaN, NaN, 0.0372337, "- N/A -   "
33.67, 1311.85, 0.0562264, NaN, NaN, NaN, 0.04211683, "- N/A -   "
33.72, 1313.992, 0.05630697, NaN, NaN, NaN, 0.04211683, "- N/A -   "
33.77, 1316.26, 0.0563931, NaN, NaN, NaN, 0.04089605, "- N/A -   "
33.82, 1318.88, 0.0564847, NaN, NaN, NaN, 0.0372337, "- N/A -   "
33.87, 1321.5, 0.05658465, NaN, NaN, NaN, 0.0299091, "- N/A -   "
33.92, 1323.77, 0.05666795, NaN, NaN, NaN, 0.0299091, "- N/A -   "
33.97, 1326.04, 0.05675125, NaN, NaN, NaN, 0.0299091, "- N/A -   "
34.02, 1328.3, 0.0568346, NaN, NaN, NaN, 0.0299091, "- N/A -   "
34.07, 1330.33, 0.0569151, NaN, NaN, NaN, 0.03112983, "- N/A -   "
34.12, 1332.6, 0.0569956, NaN, NaN, NaN, 0.0323506, "- N/A -   "
34.17, 1334.74, 0.0570761, NaN, NaN, NaN, 0.0335714, "- N/A -   "
34.22, 1336.77, 0.0571539, NaN, NaN, NaN, 0.03601294, "- N/A -   "
34.27, 1338.56, 0.0572233, NaN, NaN, NaN, 0.04211683, "- N/A -   "
34.32, 1340.59, 0.0572983, NaN, NaN, NaN, 0.04577916, "- N/A -   "
34.37, 1342.851, 0.0573816, NaN, NaN, NaN, 0.04577916, "- N/A -   "
34.42, 1345.236, 0.05747321, NaN, NaN, NaN, 0.0433376, "- N/A -   "
34.47, 1347.86, 0.0575648, NaN, NaN, NaN, 0.0384545, "- N/A -   "
34.52, 1350.13, 0.05765092, NaN, NaN, NaN, 0.0372337, "- N/A -   "
34.57, 1352.51, 0.057737, NaN, NaN, NaN, 0.03601294, "- N/A -   "
34.62, 1355.01, 0.0578286, NaN, NaN, NaN, 0.0335714, "- N/A -   "
34.67, 1357.4, 0.05791749, NaN, NaN, NaN, 0.0299091, "- N/A -   "
34.72, 1359.67, 0.0580036, NaN, NaN, NaN, 0.0286883, "- N/A -   "
34.77, 1361.93, 0.0580896, NaN, NaN, NaN, 0.0286883, "- N/A -   "
34.82, 1363.96, 0.05816462, NaN, NaN, NaN, 0.03112983, "- N/A -   "
34.87, 1365.51, 0.0582285, NaN, NaN, NaN, 0.0396753, "- N/A -   "
34.92, 1367.54, 0.0583007, NaN, NaN, NaN, 0.0445584, "- N/A -   "
34.97, 1369.8, 0.0583895, NaN, NaN, NaN, 0.0433376, "- N/A -   "
35.02, 1372.19, 0.0584756, NaN, NaN, NaN, 0.04089605, "- N/A -   "
35.07, 1374.21, 0.0585534, NaN, NaN, NaN, 0.0433376, "- N/A -   "
35.12, 1376.6, 0.05864222, NaN, NaN, NaN, 0.04089605, "- N/A -   "
35.17, 1379.22, 0.0587366, NaN, NaN, NaN, 0.03601294, "- N/A -   "
35.22, 1382.08, 0.05883937, NaN, NaN, NaN, 0.0274675, "- N/A -   "
35.27, 1384.47, 0.0589282, NaN, NaN, NaN, 0.0250259, "- N/A -   "
35.32, 1386.5, 0.05900875, NaN, NaN, NaN, 0.0274675, "- N/A -   "
35.37, 1388.763, 0.0590865, NaN, NaN, NaN, 0.0299091, "- N/A -   "
35.42, 1390.55, 0.0591587, NaN, NaN, NaN, 0.0347922, "- N/A -   "
35.47, 1392.579, 0.05923645, NaN, NaN, NaN, 0.0372337, "- N/A -   "
35.52, 1394.96, 0.05931975, NaN, NaN, NaN, 0.0372337, "- N/A -   "
35.57, 1397.11, 0.05940027, NaN, NaN, NaN, 0.0384545, "- N/A -   "
35.62, 1399.26, 0.0594808, NaN, NaN, NaN, 0.04089605, "- N/A -   "
35.67, 1401.28, 0.0595585, NaN, NaN, NaN, 0.0433376, "- N/A -   "
35.72, 1403.31, 0.05962797, NaN, NaN, NaN, 0.0482207, "- N/A -   "
35.77, 1405.58, 0.0597168, NaN, NaN, NaN, 0.04577916, "- N/A -   "
35.82, 1408.44, 0.0598223, NaN, NaN, NaN, 0.0372337, "- N/A -   "
35.87, 1410.94, 0.05991397, NaN, NaN, NaN, 0.0323506, "- N/A -   "
35.92, 1413.33, 0.0600001, NaN, NaN, NaN, 0.03112983, "- N/A -   "
35.97, 1415.12, 0.06007225, NaN, NaN, NaN, 0.03601294, "- N/A -   "
36.02, 1417.14, 0.0601528, NaN, NaN, NaN, 0.0384545, "- N/A -   "
36.07, 1419.65, 0.0602389, NaN, NaN, NaN, 0.03601294, "- N/A -   "
36.12, 1422.03, 0.06032771, NaN, NaN, NaN, 0.0335714, "- N/A -   "
36.17, 1424.3, 0.0604138, NaN, NaN, NaN, 0.0323506, "- N/A -   "
36.22, 1426.45, 0.06049154, NaN, NaN, NaN, 0.0347922, "- N/A -   "
36.27, 1428.12, 0.0605582, NaN, NaN, NaN, 0.04211683, "- N/A -   "
36.32, 1430.26, 0.0606387, NaN, NaN, NaN, 0.0445584, "- N/A -   "
36.37, 1432.89, 0.0607303, NaN, NaN, NaN, 0.0396753, "- N/A -   "
36.42, 1435.15, 0.06081642, NaN, NaN, NaN, 0.0384545, "- N/A -   "
36.47, 1437.42, 0.0609025, NaN, NaN, NaN, 0.0384545, "- N/A -   "
36.52, 1439.8, 0.0609886, NaN, NaN, NaN, 0.03601294, "- N/A -   "
36.57, 1442.19, 0.0610747, NaN, NaN, NaN, 0.0347922, "- N/A -   "
36.62, 1444.45, 0.0611607, NaN, NaN, NaN, 0.0347922, "- N/A -   "
36.67, 1446.72, 0.0612468, NaN, NaN, NaN, 0.0323506, "- N/A -   "
36.72, 1448.99, 0.0613329, NaN, NaN, NaN, 0.0323506, "- N/A -   "
36.77, 1451.13, 0.0614106, NaN, NaN, NaN, 0.0335714, "- N/A -   "
36.82, 1453.4, 0.0614939, NaN, NaN, NaN, 0.0335714, "- N/A -   "
36.87, 1455.544, 0.06158, NaN, NaN, NaN, 0.0335714, "- N/A -   "
36.92, 1457.93, 0.0616661, NaN, NaN, NaN, 0.0323506, "- N/A -   "
36.97, 1459.84, 0.0617383, NaN, NaN, NaN, 0.0372337, "- N/A -   "
37.02, 1461.75, 0.0618133, NaN, NaN, NaN, 0.04089605, "- N/A -   "
37.07, 1463.77, 0.0618855, NaN, NaN, NaN, 0.0445584, "- N/A -   "
37.12, 1465.8, 0.061966, NaN, NaN, NaN, 0.04699994, "- N/A -   "
37.17, 1468.304, 0.06205207, NaN, NaN, NaN, 0.0445584, "- N/A -   "
37.22, 1470.69, 0.0621437, NaN, NaN, NaN, 0.04089605, "- N/A -   "
37.27, 1473.43, 0.0622409, NaN, NaN, NaN, 0.03601294, "- N/A -   "
37.32, 1475.7, 0.0623242, NaN, NaN, NaN, 0.0347922, "- N/A -   "
37.37, 1477.72, 0.06240472, NaN, NaN, NaN, 0.03601294, "- N/A -   "
37.42, 1480.23, 0.0624908, NaN, NaN, NaN, 0.0347922, "- N/A -   "
37.47, 1482.73, 0.0625852, NaN, NaN, NaN, 0.0299091, "- N/A -   "
37.52, 1485, 0.06267129, NaN, NaN, NaN, 0.0286883, "- N/A -   "
37.57, 1487.15, 0.0627518, NaN, NaN, NaN, 0.0299091, "- N/A -   "
37.62, 1489.05, 0.06282123, NaN, NaN, NaN, 0.03601294, "- N/A -   "
37.67, 1490.72, 0.06289065, NaN, NaN, NaN, 0.04211683, "- N/A -   "
37.72, 1492.75, 0.0629684, NaN, NaN, NaN, 0.0445584, "- N/A -   "
37.77, 1495.02, 0.0630517, NaN, NaN, NaN, 0.0445584, "- N/A -   "
37.82, 1497.4, 0.0631378, NaN, NaN, NaN, 0.0445584, "- N/A -   "
37.87, 1499.91, 0.06323219, NaN, NaN, NaN, 0.0396753, "- N/A -   "
37.92, 1502.53, 0.0633266, NaN, NaN, NaN, 0.0335714, "- N/A -   "
37.97, 1504.91, 0.06341268, NaN, NaN, NaN, 0.0323506, "- N/A -   "
38.02, 1507.18, 0.06349876, NaN, NaN, NaN, 0.03112983, "- N/A -   "
38.07, 1509.8, 0.0635932, NaN, NaN, NaN, 0.0274675, "- N/A -   "
38.12, 1512.07, 0.06367925, NaN, NaN, NaN, 0.0250259, "- N/A -   "
38.17, 1514.1, 0.063757, NaN, NaN, NaN, 0.0286883, "- N/A -   "
38.22, 1515.89, 0.06382641, NaN, NaN, NaN, 0.0335714, "- N/A -   "
38.27, 1517.91, 0.06390139, NaN, NaN, NaN, 0.0384545, "- N/A -   "
38.32, 1519.82, 0.06397358, NaN, NaN, NaN, 0.04211683, "- N/A -   "
38.37, 1521.85, 0.06404856, NaN, NaN, NaN, 0.04577916, "- N/A -   "
38.42, 1524.11, 0.0641346, NaN, NaN, NaN, 0.0445584, "- N/A -   "
38.47, 1526.38, 0.06421794, NaN, NaN, NaN, 0.0445584, "- N/A -   "
38.52, 1528.76, 0.0643068, NaN, NaN, NaN, 0.04211683, "- N/A -   "
38.57, 1531.15, 0.06439843, NaN, NaN, NaN, 0.0396753, "- N/A -   "
38.62, 1534.01, 0.0644956, NaN, NaN, NaN, 0.0323506, "- N/A -   "
38.67, 1536.4, 0.06458724, NaN, NaN, NaN, 0.0299091, "- N/A -   "
38.72, 1538.66, 0.06467333, NaN, NaN, NaN, 0.0274675, "- N/A -   "
38.77, 1540.81, 0.06475385, NaN, NaN, NaN, 0.0286883, "- N/A -   "
38.82, 1542.84, 0.06482883, NaN, NaN, NaN, 0.0323506, "- N/A -   "
38.87, 1544.74, 0.0649038, NaN, NaN, NaN, 0.0372337, "- N/A -   "
38.92, 1547.01, 0.06498432, NaN, NaN, NaN, 0.0372337, "- N/A -   "
38.97, 1549.4, 0.06507318, NaN, NaN, NaN, 0.0347922, "- N/A -   "
39.02, 1551.3, 0.06514537, NaN, NaN, NaN, 0.04089605, "- N/A -   "
39.07, 1553.33, 0.06521479, NaN, NaN, NaN, 0.04577916, "- N/A -   "
39.12, 1555.36, 0.0652981, NaN, NaN, NaN, 0.04699994, "- N/A -   "
39.17, 1557.98, 0.0653925, NaN, NaN, NaN, 0.04211683, "- N/A -   "
39.22, 1560.72, 0.0654952, NaN, NaN, NaN, 0.0323506, "- N/A -   "
39.27, 1562.99, 0.0655841, NaN, NaN, NaN, 0.0299091, "- N/A -   "
39.32, 1565.38, 0.0656702, NaN, NaN, NaN, 0.0299091, "- N/A -   "
39.37, 1567.28, 0.06574515, NaN, NaN, NaN, 0.0323506, "- N/A -   "
39.42, 1569.31, 0.06582012, NaN, NaN, NaN, 0.0372337, "- N/A -   "
39.47, 1571.58, 0.0659034, NaN, NaN, NaN, 0.03601294, "- N/A -   "
39.52, 1574.2, 0.06599784, NaN, NaN, NaN, 0.0323506, "- N/A -   "
39.57, 1576.47, 0.0660784, NaN, NaN, NaN, 0.0323506, "- N/A -   "
39.62, 1578.37, 0.06615333, NaN, NaN, NaN, 0.03601294, "- N/A -   "
39.67, 1580.4, 0.06623109, NaN, NaN, NaN, 0.0384545, "- N/A -   "
39.72, 1582.43, 0.06630883, NaN, NaN, NaN, 0.04089605, "- N/A -   "
39.77, 1584.81, 0.06639491, NaN, NaN, NaN, 0.0396753, "- N/A -   "
39.82, 1587.079, 0.0664782, NaN, NaN, NaN, 0.04089605, "- N/A -   "
39.87, 1589.34, 0.06656429, NaN, NaN, NaN, 0.04089605, "- N/A -   "
39.92, 1591.61, 0.06665037, NaN, NaN, NaN, 0.0384545, "- N/A -   "
39.97, 1594.234, 0.0667392, NaN, NaN, NaN, 0.03601294, "- N/A -   "
40.02, 1596.38, 0.06682254, NaN, NaN, NaN, 0.03601294, "- N/A -   "
40.07, 1598.53, 0.0669031, NaN, NaN, NaN, 0.0372337, "- N/A -   "
40.12, 1601.03, 0.06699469, NaN, NaN, NaN, 0.0347922, "- N/A -   "
40.17, 1603.178, 0.067078, NaN, NaN, NaN, 0.0335714, "- N/A -   "
40.22, 1605.44, 0.0671613, NaN, NaN, NaN, 0.0335714, "- N/A -   "
40.27, 1607.59, 0.0672446, NaN, NaN, NaN, 0.0335714, "- N/A -   "
40.32, 1609.98, 0.06733067, NaN, NaN, NaN, 0.0323506, "- N/A -   "
40.37, 1611.88, 0.06740843, NaN, NaN, NaN, 0.0347922, "- N/A -   "
40.42, 1613.79, 0.0674778, NaN, NaN, NaN, 0.04089605, "- N/A -   "
40.47, 1615.7, 0.06755559, NaN, NaN, NaN, 0.0433376, "- N/A -   "
40.52, 1617.97, 0.06763612, NaN, NaN, NaN, 0.0445584, "- N/A -   "
40.57, 1620.35, 0.0677222, NaN, NaN, NaN, 0.0433376, "- N/A -   "
40.62, 1622.85, 0.06781106, NaN, NaN, NaN, 0.04089605, "- N/A -   "
40.67, 1625.12, 0.06790269, NaN, NaN, NaN, 0.0372337, "- N/A -   "
40.72, 1627.74, 0.06799432, NaN, NaN, NaN, 0.0335714, "- N/A -   "
40.77, 1630.13, 0.0680832, NaN, NaN, NaN, 0.0323506, "- N/A -   "
40.82, 1632.28, 0.06816926, NaN, NaN, NaN, 0.0299091, "- N/A -   "
40.87, 1634.66, 0.0682553, NaN, NaN, NaN, 0.0286883, "- N/A -   "
40.92, 1637.05, 0.06834141, NaN, NaN, NaN, 0.0274675, "- N/A -   "
40.97, 1639.07, 0.0684219, NaN, NaN, NaN, 0.0286883, "- N/A -   "
41.02, 1640.86, 0.06849136, NaN, NaN, NaN, 0.0347922, "- N/A -   "
41.07, 1642.77, 0.06856356, NaN, NaN, NaN, 0.0396753, "- N/A -   "
41.12, 1644.56, 0.068633, NaN, NaN, NaN, 0.04577916, "- N/A -   "
41.17, 1646.705, 0.06871072, NaN, NaN, NaN, 0.0494415, "- N/A -   "
41.22, 1648.97, 0.0687968, NaN, NaN, NaN, 0.04699994, "- N/A -   "
41.27, 1651.36, 0.06889121, NaN, NaN, NaN, 0.0433376, "- N/A -   "
41.32, 1653.86, 0.06898562, NaN, NaN, NaN, 0.0384545, "- N/A -   "
41.37, 1656.36, 0.06907725, NaN, NaN, NaN, 0.0347922, "- N/A -   "
41.42, 1658.63, 0.06916056, NaN, NaN, NaN, 0.0347922, "- N/A -   "
41.47, 1660.78, 0.0692439, NaN, NaN, NaN, 0.0335714, "- N/A -   "
41.52, 1663.16, 0.06933271, NaN, NaN, NaN, 0.03112983, "- N/A -   "
41.57, 1665.43, 0.0694188, NaN, NaN, NaN, 0.0299091, "- N/A -   "
41.62, 1667.69, 0.0695021, NaN, NaN, NaN, 0.0299091, "- N/A -   "
41.67, 1669.36, 0.0695743, NaN, NaN, NaN, 0.0347922, "- N/A -   "
41.72, 1671.39, 0.0696493, NaN, NaN, NaN, 0.0396753, "- N/A -   "
41.77, 1673.3, 0.06972701, NaN, NaN, NaN, 0.04211683, "- N/A -   "
41.82, 1675.44, 0.0698075, NaN, NaN, NaN, 0.0433376, "- N/A -   "
41.87, 1677.35, 0.06988251, NaN, NaN, NaN, 0.04577916, "- N/A -   "
41.92, 1679.62, 0.06997137, NaN, NaN, NaN, 0.0445584, "- N/A -   "
41.97, 1682.24, 0.070063, NaN, NaN, NaN, 0.0396753, "- N/A -   "
42.02, 1684.87, 0.07015741, NaN, NaN, NaN, 0.0347922, "- N/A -   "
42.07, 1687.37, 0.0702546, NaN, NaN, NaN, 0.0286883, "- N/A -   "
42.12, 1689.75, 0.07034068, NaN, NaN, NaN, 0.0274675, "- N/A -   "
42.17, 1691.78, 0.0704212, NaN, NaN, NaN, 0.0286883, "- N/A -   "
42.22, 1693.81, 0.07049895, NaN, NaN, NaN, 0.03112983, "- N/A -   "
42.27, 1695.84, 0.07057948, NaN, NaN, NaN, 0.0335714, "- N/A -   "
42.32, 1697.86, 0.07065167, NaN, NaN, NaN, 0.0372337, "- N/A -   "
42.37, 1699.89, 0.07073498, NaN, NaN, NaN, 0.0372337, "- N/A -   "
42.42, 1702.16, 0.0708127, NaN, NaN, NaN, 0.0396753, "- N/A -   "
42.47, 1704.07, 0.07089047, NaN, NaN, NaN, 0.04211683, "- N/A -   "
42.52, 1706.09, 0.07096822, NaN, NaN, NaN, 0.04577916, "- N/A -   "
42.57, 1708.12, 0.07104875, NaN, NaN, NaN, 0.04577916, "- N/A -   "
42.62, 1710.86, 0.07114593, NaN, NaN, NaN, 0.0396753, "- N/A -   "
42.67, 1713.37, 0.07124312, NaN, NaN, NaN, 0.0347922, "- N/A -   "
42.72, 1715.63, 0.0713292, NaN, NaN, NaN, 0.0323506, "- N/A -   "
42.77, 1717.78, 0.0714125, NaN, NaN, NaN, 0.0335714, "- N/A -   "
42.82, 1719.81, 0.0714847, NaN, NaN, NaN, 0.0372337, "- N/A -   "
42.87, 1721.83, 0.071568, NaN, NaN, NaN, 0.0372337, "- N/A -   "
42.92, 1724.22, 0.07165686, NaN, NaN, NaN, 0.0347922, "- N/A -   "
42.97, 1726.6, 0.0717457, NaN, NaN, NaN, 0.0323506, "- N/A -   "
43.02, 1728.75, 0.0718262, NaN, NaN, NaN, 0.0335714, "- N/A -   "
43.07, 1730.78, 0.07190399, NaN, NaN, NaN, 0.03601294, "- N/A -   "
43.12, 1732.69, 0.0719817, NaN, NaN, NaN, 0.0384545, "- N/A -   "
43.17, 1735.07, 0.07206782, NaN, NaN, NaN, 0.0384545, "- N/A -   "
43.22, 1737.22, 0.07214557, NaN, NaN, NaN, 0.0396753, "- N/A -   "
43.27, 1739.24, 0.0722289, NaN, NaN, NaN, 0.0396753, "- N/A -   "
43.32, 1741.63, 0.07231772, NaN, NaN, NaN, 0.0372337, "- N/A -   "
43.37, 1744.01, 0.0724038, NaN, NaN, NaN, 0.03601294, "- N/A -   "
43.42, 1746.16, 0.07248711, NaN, NaN, NaN, 0.03601294, "- N/A -   "
43.47, 1748.19, 0.0725732, NaN, NaN, NaN, 0.0347922, "- N/A -   "
43.52, 1750.69, 0.07266482, NaN, NaN, NaN, 0.0323506, "- N/A -   "
43.57, 1753.08, 0.0727509, NaN, NaN, NaN, 0.0299091, "- N/A -   "
43.62, 1755.105, 0.07283142, NaN, NaN, NaN, 0.03112983, "- N/A -   "
43.67, 1757.13, 0.07290917, NaN, NaN, NaN, 0.0335714, "- N/A -   "
43.72, 1759.28, 0.07299525, NaN, NaN, NaN, 0.0335714, "- N/A -   "
43.77, 1761.43, 0.07307578, NaN, NaN, NaN, 0.0335714, "- N/A -   "
43.82, 1763.21, 0.073148, NaN, NaN, NaN, 0.0396753, "- N/A -   "
43.87, 1765.12, 0.07322572, NaN, NaN, NaN, 0.04211683, "- N/A -   "
43.92, 1767.15, 0.07330347, NaN, NaN, NaN, 0.0445584, "- N/A -   "
43.97, 1769.3, 0.073384, NaN, NaN, NaN, 0.0445584, "- N/A -   "
44.02, 1771.56, 0.07347008, NaN, NaN, NaN, 0.0433376, "- N/A -   "
44.07, 1774.066, 0.0735645, NaN, NaN, NaN, 0.0384545, "- N/A -   "
44.12, 1776.57, 0.07365889, NaN, NaN, NaN, 0.0347922, "- N/A -   "
44.17, 1778.72, 0.0737394, NaN, NaN, NaN, 0.0347922, "- N/A -   "
44.22, 1780.98, 0.0738255, NaN, NaN, NaN, 0.0335714, "- N/A -   "
44.27, 1783.13, 0.07391158, NaN, NaN, NaN, 0.0335714, "- N/A -   "
44.32, 1785.63, 0.07400321, NaN, NaN, NaN, 0.0286883, "- N/A -   "
44.37, 1787.66, 0.07408652, NaN, NaN, NaN, 0.0299091, "- N/A -   "
44.42, 1789.688, 0.0741643, NaN, NaN, NaN, 0.0323506, "- N/A -   "
44.47, 1791.48, 0.07423646, NaN, NaN, NaN, 0.0372337, "- N/A -   "
44.52, 1793.38, 0.07431143, NaN, NaN, NaN, 0.04089605, "- N/A -   "
44.57, 1795.41, 0.07438918, NaN, NaN, NaN, 0.0433376, "- N/A -   "
44.62, 1797.44, 0.07446693, NaN, NaN, NaN, 0.04577916, "- N/A -   "
44.67, 1799.71, 0.07455301, NaN, NaN, NaN, 0.0445584, "- N/A -   "
44.72, 1802.33, 0.07465297, NaN, NaN, NaN, 0.0372337, "- N/A -   "
44.77, 1804.59, 0.0747418, NaN, NaN, NaN, 0.03601294, "- N/A -   "
44.82, 1806.62, 0.07481958, NaN, NaN, NaN, 0.0372337, "- N/A -   "
44.87, 1809.01, 0.0749084, NaN, NaN, NaN, 0.03601294, "- N/A -   "
44.92, 1811.392, 0.07500007, NaN, NaN, NaN, 0.03112983, "- N/A -   "
44.963, 1813.42, 0.07507782, NaN, NaN, NaN, 0.0286883, "- N/A -   "