File: 2_Tensile_Data/Hamel_ForceTest_Bolt10_Test10.csv
Time, Load (lb), Position (in), AxialStrain (in), TransverseStrain (in), Auxiliary (), Control Out (V), Stress (psi)
0.0, 9.907588, 0.0, NaN, NaN, NaN, -0.006714277, "- N/A -   "
0.01, 9.907588, 2.776752E-6, NaN, NaN, NaN, -6.103888E-4, "- N/A -   "
0.02, 9.78964, 2.776752E-6, NaN, NaN, NaN, 0.006714277, "- N/A -   "
0.03, 9.907588, 5.553504E-6, NaN, NaN, NaN, 0.0238052, "- N/A -   "
0.04, 9.907588, 8.330256E-6, NaN, NaN, NaN, 0.04211683, "- N/A -   "
0.05, 10.1435, 1.94373e-05, NaN, NaN, NaN, 0.0579869, "- N/A -   "
0.06, 10.26143, 3.60978e-05, NaN, NaN, NaN, 0.0701947, "- N/A -   "
0.07, 10.73322, 5.5535e-05, NaN, NaN, NaN, 0.08118171, "- N/A -   "
0.08, 11.0871, 8.05258E-5, NaN, NaN, NaN, 0.0897272, "- N/A -   "
0.09, 11.323, 0.000108293, NaN, NaN, NaN, 0.09705182, "- N/A -   "
0.1, 11.7947, 1.388376E-4, NaN, NaN, NaN, 0.100714, "- N/A -   "
0.11, 12.14859, 0.000169382, NaN, NaN, NaN, 0.09338949, "- N/A -   "
0.12, 12.6204, 0.000202703, NaN, NaN, NaN, 0.0872856, "- N/A -   "
0.13, 12.8563, 2.304704E-4, NaN, NaN, NaN, 0.08240249, "- N/A -   "
0.14, 13.2101, 0.000255461, NaN, NaN, NaN, 0.07874016, "- N/A -   "
0.15, 13.446, 2.776752E-4, NaN, NaN, NaN, 0.0750778, "- N/A -   "
0.16, 13.7999, 2.998892E-4, NaN, NaN, NaN, 0.07385705, "- N/A -   "
0.17, 13.9178, 3.165497E-4, NaN, NaN, NaN, 0.07263627, "- N/A -   "
0.18, 14.1537, 0.000335987, NaN, NaN, NaN, 0.07141549, "- N/A -   "
0.19, 14.2716, 0.000355424, NaN, NaN, NaN, 0.0701947, "- N/A -   "
0.2, 14.5075, 3.748615E-4, NaN, NaN, NaN, 0.0701947, "- N/A -   "
0.21, 14.8614, 0.000391522, NaN, NaN, NaN, 0.0689739, "- N/A -   "
0.22, 14.9793, 4.13736E-4, NaN, NaN, NaN, 0.06653238, "- N/A -   "
0.23, 15.4511, 4.331733E-4, NaN, NaN, NaN, 0.0653116, "- N/A -   "
0.24, 15.5691, 0.000452611, NaN, NaN, NaN, 0.0640908, "- N/A -   "
0.25, 15.687, 4.720478E-4, NaN, NaN, NaN, 0.06287005, "- N/A -   "
0.26, 15.9229, 0.000491485, NaN, NaN, NaN, 0.06164927, "- N/A -   "
0.27, 16.27675, 0.000510922, NaN, NaN, NaN, 0.0604285, "- N/A -   "
0.28, 16.3947, 0.000533136, NaN, NaN, NaN, 0.0579869, "- N/A -   "
0.29, 16.74854, 5.553504E-4, NaN, NaN, NaN, 0.0555454, "- N/A -   "
0.3, 16.86649, 0.000577564, NaN, NaN, NaN, 0.0543246, "- N/A -   "
0.31, 17.2203, 0.000597002, NaN, NaN, NaN, 0.05188305, "- N/A -   "
0.32, 17.3383, 6.164389E-4, NaN, NaN, NaN, 0.05066227, "- N/A -   "
0.33, 17.5742, 0.000638653, NaN, NaN, NaN, 0.0494415, "- N/A -   "
0.34, 17.8101, 0.00065809, NaN, NaN, NaN, 0.0482207, "- N/A -   "
0.35, 18.046, 0.000677527, NaN, NaN, NaN, 0.04699994, "- N/A -   "
0.36, 18.2819, 6.969647E-4, NaN, NaN, NaN, 0.04577916, "- N/A -   "
0.37, 18.3998, 7.136252E-4, NaN, NaN, NaN, 0.0445584, "- N/A -   "
0.38, 18.6357, 0.000735839, NaN, NaN, NaN, 0.04211683, "- N/A -   "
0.39, 18.7536, 7.552765E-4, NaN, NaN, NaN, 0.04089605, "- N/A -   "
0.4, 18.9895, 7.71937E-4, NaN, NaN, NaN, 0.04089605, "- N/A -   "
0.41, 19.2254, 0.000791374, NaN, NaN, NaN, 0.0396753, "- N/A -   "
0.42, 19.3434, 8.108115E-4, NaN, NaN, NaN, 0.0396753, "- N/A -   "
0.43, 19.57928, 8.302488E-4, NaN, NaN, NaN, 0.0384545, "- N/A -   "
0.44, 19.8152, 8.469093E-4, NaN, NaN, NaN, 0.0372337, "- N/A -   "
0.45, 19.9331, 8.635698E-4, NaN, NaN, NaN, 0.0372337, "- N/A -   "
0.46, 20.05107, 0.00088023, NaN, NaN, NaN, 0.0384545, "- N/A -   "
0.47, 20.287, 0.000899668, NaN, NaN, NaN, 0.0372337, "- N/A -   "
0.48, 20.52286, 0.000919105, NaN, NaN, NaN, 0.03601294, "- N/A -   "
0.49, 20.8767, 0.000935765, NaN, NaN, NaN, 0.0347922, "- N/A -   "
0.5, 20.99465, 9.552026E-4, NaN, NaN, NaN, 0.0335714, "- N/A -   "
0.51, 21.2305, 9.746399E-4, NaN, NaN, NaN, 0.0323506, "- N/A -   "
0.52, 21.46644, 9.968539E-4, NaN, NaN, NaN, 0.03112983, "- N/A -   "
0.53, 21.5844, 0.00101351, NaN, NaN, NaN, 0.0299091, "- N/A -   "
0.54, 21.8203, 0.00103295, NaN, NaN, NaN, 0.0286883, "- N/A -   "
0.55, 22.0562, 0.00104961, NaN, NaN, NaN, 0.0286883, "- N/A -   "
0.56, 22.1741, 0.00106627, NaN, NaN, NaN, 0.0286883, "- N/A -   "
0.57, 22.29207, 0.00108293, NaN, NaN, NaN, 0.0286883, "- N/A -   "
0.58, 22.528, 0.001096817, NaN, NaN, NaN, 0.0299091, "- N/A -   "
0.59, 22.6459, 0.00111348, NaN, NaN, NaN, 0.03112983, "- N/A -   "
0.6, 22.88181, 0.00112736, NaN, NaN, NaN, 0.03112983, "- N/A -   "
0.61, 22.88181, 0.00114402, NaN, NaN, NaN, 0.03112983, "- N/A -   "
0.62, 23.1177, 0.00115791, NaN, NaN, NaN, 0.0323506, "- N/A -   "
0.63, 23.3536, 0.00117179, NaN, NaN, NaN, 0.0335714, "- N/A -   "
0.64, 23.3536, 0.00118845, NaN, NaN, NaN, 0.0347922, "- N/A -   "
0.65, 23.5895, 0.00120511, NaN, NaN, NaN, 0.0347922, "- N/A -   "
0.66, 23.7074, 0.001218994, NaN, NaN, NaN, 0.0347922, "- N/A -   "
0.67, 23.9433, 0.00123288, NaN, NaN, NaN, 0.03601294, "- N/A -   "
0.68, 24.1792, 0.00124954, NaN, NaN, NaN, 0.03601294, "- N/A -   "
0.69, 24.29718, 0.00126342, NaN, NaN, NaN, 0.0372337, "- N/A -   "
0.7, 24.4151, 0.00128008, NaN, NaN, NaN, 0.0372337, "- N/A -   "
0.71, 24.65102, 0.00129397, NaN, NaN, NaN, 0.0384545, "- N/A -   "
0.72, 24.769, 0.0013134, NaN, NaN, NaN, 0.0384545, "- N/A -   "
0.73, 24.8869, 0.00132729, NaN, NaN, NaN, 0.0384545, "- N/A -   "
0.74, 25.1228, 0.00134395, NaN, NaN, NaN, 0.0384545, "- N/A -   "
0.75, 25.3587, 0.00135783, NaN, NaN, NaN, 0.0396753, "- N/A -   "
0.76, 25.4767, 0.00137172, NaN, NaN, NaN, 0.04089605, "- N/A -   "
0.77, 25.5946, 0.00138838, NaN, NaN, NaN, 0.04089605, "- N/A -   "
0.78, 25.7125, 0.00140226, NaN, NaN, NaN, 0.04211683, "- N/A -   "
0.79, 25.9484, 0.00141892, NaN, NaN, NaN, 0.0433376, "- N/A -   "
0.8, 26.0664, 0.0014328, NaN, NaN, NaN, 0.0433376, "- N/A -   "
0.81, 26.18434, 0.00144946, NaN, NaN, NaN, 0.0445584, "- N/A -   "
0.82, 26.4202, 0.00146612, NaN, NaN, NaN, 0.0445584, "- N/A -   "
0.83, 26.5382, 0.00148001, NaN, NaN, NaN, 0.0445584, "- N/A -   "
0.84, 26.7741, 0.00149667, NaN, NaN, NaN, 0.04577916, "- N/A -   "
0.85, 27.01, 0.00151333, NaN, NaN, NaN, 0.04577916, "- N/A -   "
0.86, 27.1279, 0.00152999, NaN, NaN, NaN, 0.0445584, "- N/A -   "
0.87, 27.4818, 0.00154665, NaN, NaN, NaN, 0.0445584, "- N/A -   "
0.88, 27.5997, 0.00156609, NaN, NaN, NaN, 0.0433376, "- N/A -   "
0.89, 27.8356, 0.00158275, NaN, NaN, NaN, 0.0433376, "- N/A -   "
0.9, 27.95355, 0.001599409, NaN, NaN, NaN, 0.0433376, "- N/A -   "
0.91, 28.0715, 0.00161607, NaN, NaN, NaN, 0.0433376, "- N/A -   "
0.92, 28.3074, 0.00163273, NaN, NaN, NaN, 0.0445584, "- N/A -   "
0.93, 28.54329, 0.00164939, NaN, NaN, NaN, 0.0445584, "- N/A -   "
0.94, 28.7792, 0.00166605, NaN, NaN, NaN, 0.0433376, "- N/A -   "
0.95, 28.89713, 0.00168271, NaN, NaN, NaN, 0.0433376, "- N/A -   "
0.96, 29.251, 0.00169937, NaN, NaN, NaN, 0.0433376, "- N/A -   "
0.97, 29.3689, 0.00171881, NaN, NaN, NaN, 0.04211683, "- N/A -   "
0.98, 29.4869, 0.00173547, NaN, NaN, NaN, 0.04211683, "- N/A -   "
0.99, 29.84071, 0.00175491, NaN, NaN, NaN, 0.04089605, "- N/A -   "
1, 29.9587, 0.00177434, NaN, NaN, NaN, 0.0396753, "- N/A -   "
1.01, 30.4304, 0.00179378, NaN, NaN, NaN, 0.0396753, "- N/A -   "
1.02, 30.5484, 0.00181044, NaN, NaN, NaN, 0.0384545, "- N/A -   "
1.03, 30.78429, 0.00182988, NaN, NaN, NaN, 0.0372337, "- N/A -   "
1.04, 31.0202, 0.00184932, NaN, NaN, NaN, 0.03601294, "- N/A -   "
1.05, 31.2561, 0.00186875, NaN, NaN, NaN, 0.0347922, "- N/A -   "
1.06, 31.6099, 0.00188819, NaN, NaN, NaN, 0.0335714, "- N/A -   "
1.07, 31.8458, 0.00191041, NaN, NaN, NaN, 0.03112983, "- N/A -   "
1.08, 32.1997, 0.00192984, NaN, NaN, NaN, 0.0299091, "- N/A -   "
1.09, 32.3176, 0.00194928, NaN, NaN, NaN, 0.0286883, "- N/A -   "
1.1, 32.5535, 0.001968717, NaN, NaN, NaN, 0.0286883, "- N/A -   "
1.11, 32.9073, 0.00198538, NaN, NaN, NaN, 0.0274675, "- N/A -   "
1.12, 33.02529, 0.00200481, NaN, NaN, NaN, 0.0274675, "- N/A -   "
1.13, 33.2612, 0.0020187, NaN, NaN, NaN, 0.0274675, "- N/A -   "
1.14, 33.2612, 0.00203258, NaN, NaN, NaN, 0.0286883, "- N/A -   "
1.15, 33.61503, 0.00204924, NaN, NaN, NaN, 0.0299091, "- N/A -   "
1.16, 33.8509, 0.00206313, NaN, NaN, NaN, 0.0299091, "- N/A -   "
1.17, 33.9689, 0.00207979, NaN, NaN, NaN, 0.0299091, "- N/A -   "
1.18, 34.2048, 0.002093671, NaN, NaN, NaN, 0.03112983, "- N/A -   "
1.19, 34.4407, 0.00211033, NaN, NaN, NaN, 0.03112983, "- N/A -   "
1.2, 34.6766, 0.002126992, NaN, NaN, NaN, 0.03112983, "- N/A -   "
1.21, 34.9125, 0.00214365, NaN, NaN, NaN, 0.03112983, "- N/A -   "
1.22, 35.1483, 0.00216031, NaN, NaN, NaN, 0.03112983, "- N/A -   "
1.23, 35.3842, 0.00217697, NaN, NaN, NaN, 0.03112983, "- N/A -   "
1.24, 35.6201, 0.00219641, NaN, NaN, NaN, 0.03112983, "- N/A -   "
1.25, 35.85603, 0.00221029, NaN, NaN, NaN, 0.03112983, "- N/A -   "
1.26, 36.0919, 0.002226955, NaN, NaN, NaN, 0.03112983, "- N/A -   "
1.27, 36.32782, 0.00224362, NaN, NaN, NaN, 0.03112983, "- N/A -   "
1.28, 36.44577, 0.0022575, NaN, NaN, NaN, 0.0323506, "- N/A -   "
1.29, 36.6817, 0.002271383, NaN, NaN, NaN, 0.0335714, "- N/A -   "
1.3, 36.79961, 0.00228804, NaN, NaN, NaN, 0.0335714, "- N/A -   "
1.31, 37.0355, 0.002304704, NaN, NaN, NaN, 0.0347922, "- N/A -   "
1.32, 37.2714, 0.00232136, NaN, NaN, NaN, 0.0335714, "- N/A -   "
1.33, 37.5073, 0.00233525, NaN, NaN, NaN, 0.0347922, "- N/A -   "
1.34, 37.8611, 0.00235191, NaN, NaN, NaN, 0.0347922, "- N/A -   "
1.35, 37.9791, 0.00236857, NaN, NaN, NaN, 0.0347922, "- N/A -   "
1.36, 38.215, 0.00238523, NaN, NaN, NaN, 0.0347922, "- N/A -   "
1.37, 38.5688, 0.00240189, NaN, NaN, NaN, 0.0347922, "- N/A -   "
1.38, 38.68677, 0.00241855, NaN, NaN, NaN, 0.0347922, "- N/A -   "
1.39, 38.9227, 0.00243521, NaN, NaN, NaN, 0.0347922, "- N/A -   "
1.4, 39.15856, 0.00245465, NaN, NaN, NaN, 0.0347922, "- N/A -   "
1.41, 39.3945, 0.00247131, NaN, NaN, NaN, 0.0335714, "- N/A -   "
1.42, 39.7483, 0.00248797, NaN, NaN, NaN, 0.0335714, "- N/A -   "
1.43, 39.98419, 0.00250463, NaN, NaN, NaN, 0.0335714, "- N/A -   "
1.44, 40.22009, 0.00252129, NaN, NaN, NaN, 0.0335714, "- N/A -   "
1.45, 40.456, 0.00253517, NaN, NaN, NaN, 0.0347922, "- N/A -   "
1.46, 40.57393, 0.002549058, NaN, NaN, NaN, 0.03601294, "- N/A -   "
1.47, 40.9278, 0.00256572, NaN, NaN, NaN, 0.0372337, "- N/A -   "
1.48, 41.04572, 0.0025796, NaN, NaN, NaN, 0.0384545, "- N/A -   "
1.49, 41.16367, 0.00259071, NaN, NaN, NaN, 0.0396753, "- N/A -   "
1.5, 41.39956, 0.00260459, NaN, NaN, NaN, 0.04089605, "- N/A -   "
1.51, 41.6355, 0.00261848, NaN, NaN, NaN, 0.04211683, "- N/A -   "
1.52, 41.7534, 0.00263236, NaN, NaN, NaN, 0.0433376, "- N/A -   "
1.53, 42.1072, 0.00264902, NaN, NaN, NaN, 0.0433376, "- N/A -   "
1.54, 42.3431, 0.002662905, NaN, NaN, NaN, 0.0445584, "- N/A -   "
1.55, 42.4611, 0.00267957, NaN, NaN, NaN, 0.0445584, "- N/A -   "
1.56, 42.697, 0.00269345, NaN, NaN, NaN, 0.04577916, "- N/A -   "
1.57, 43.0508, 0.00271289, NaN, NaN, NaN, 0.04577916, "- N/A -   "
1.58, 43.2867, 0.00272955, NaN, NaN, NaN, 0.0445584, "- N/A -   "
1.59, 43.5226, 0.00274621, NaN, NaN, NaN, 0.0445584, "- N/A -   "
1.6, 43.75851, 0.00276287, NaN, NaN, NaN, 0.0445584, "- N/A -   "
1.61, 43.9944, 0.00277953, NaN, NaN, NaN, 0.04577916, "- N/A -   "
1.62, 44.2303, 0.00279619, NaN, NaN, NaN, 0.04577916, "- N/A -   "
1.63, 44.4662, 0.00281285, NaN, NaN, NaN, 0.0445584, "- N/A -   "
1.64, 44.70209, 0.00282951, NaN, NaN, NaN, 0.0445584, "- N/A -   "
1.65, 45.05593, 0.00284895, NaN, NaN, NaN, 0.0433376, "- N/A -   "
1.66, 45.40978, 0.00287116, NaN, NaN, NaN, 0.04211683, "- N/A -   "
1.67, 45.6457, 0.0028906, NaN, NaN, NaN, 0.04089605, "- N/A -   "
1.68, 45.9995, 0.002910036, NaN, NaN, NaN, 0.0396753, "- N/A -   "
1.69, 46.3534, 0.0029267, NaN, NaN, NaN, 0.0384545, "- N/A -   "
1.7, 46.5893, 0.00294613, NaN, NaN, NaN, 0.0384545, "- N/A -   "
1.71, 46.8251, 0.00296279, NaN, NaN, NaN, 0.0372337, "- N/A -   "
1.72, 47.179, 0.00297945, NaN, NaN, NaN, 0.0372337, "- N/A -   "
1.73, 47.4149, 0.002998892, NaN, NaN, NaN, 0.03601294, "- N/A -   "
1.74, 47.65078, 0.00301555, NaN, NaN, NaN, 0.03601294, "- N/A -   "
1.75, 48.00462, 0.003032213, NaN, NaN, NaN, 0.03601294, "- N/A -   "
1.76, 48.2405, 0.00305165, NaN, NaN, NaN, 0.0347922, "- N/A -   "
1.77, 48.47641, 0.00307109, NaN, NaN, NaN, 0.0347922, "- N/A -   "
1.78, 48.7123, 0.003087748, NaN, NaN, NaN, 0.0335714, "- N/A -   "
1.79, 49.0661, 0.00310719, NaN, NaN, NaN, 0.0335714, "- N/A -   "
1.8, 49.30204, 0.003123846, NaN, NaN, NaN, 0.0335714, "- N/A -   "
1.81, 49.5379, 0.00314051, NaN, NaN, NaN, 0.0323506, "- N/A -   "
1.82, 49.8918, 0.003157167, NaN, NaN, NaN, 0.0323506, "- N/A -   "
1.83, 50.1277, 0.00317383, NaN, NaN, NaN, 0.0323506, "- N/A -   "
1.84, 50.3636, 0.003190488, NaN, NaN, NaN, 0.0323506, "- N/A -   "
1.85, 50.5995, 0.00320715, NaN, NaN, NaN, 0.0323506, "- N/A -   "
1.86, 50.83536, 0.00322103, NaN, NaN, NaN, 0.0335714, "- N/A -   "
1.87, 51.0713, 0.00323769, NaN, NaN, NaN, 0.0335714, "- N/A -   "
1.88, 51.30715, 0.003254353, NaN, NaN, NaN, 0.0347922, "- N/A -   "
1.89, 51.543, 0.00327101, NaN, NaN, NaN, 0.0347922, "- N/A -   "
1.9, 51.89689, 0.00328767, NaN, NaN, NaN, 0.0347922, "- N/A -   "
1.91, 52.1328, 0.00330433, NaN, NaN, NaN, 0.0335714, "- N/A -   "
1.92, 52.36868, 0.003321, NaN, NaN, NaN, 0.0335714, "- N/A -   "
1.93, 52.48662, 0.00333488, NaN, NaN, NaN, 0.0347922, "- N/A -   "
1.94, 52.84047, 0.00335154, NaN, NaN, NaN, 0.0347922, "- N/A -   "
1.95, 52.9584, 0.0033682, NaN, NaN, NaN, 0.0347922, "- N/A -   "
1.96, 53.4302, 0.00338486, NaN, NaN, NaN, 0.0347922, "- N/A -   "
1.97, 53.6661, 0.00340152, NaN, NaN, NaN, 0.0347922, "- N/A -   "
1.98, 54.0199, 0.00342096, NaN, NaN, NaN, 0.0347922, "- N/A -   "
1.99, 54.3738, 0.0034404, NaN, NaN, NaN, 0.0335714, "- N/A -   "
2, 54.6097, 0.00345706, NaN, NaN, NaN, 0.0323506, "- N/A -   "
2.01, 54.9635, 0.00347372, NaN, NaN, NaN, 0.0323506, "- N/A -   "
2.02, 55.1994, 0.00349038, NaN, NaN, NaN, 0.0323506, "- N/A -   "
2.03, 55.43531, 0.00350704, NaN, NaN, NaN, 0.0323506, "- N/A -   "
2.04, 55.6712, 0.003523698, NaN, NaN, NaN, 0.0323506, "- N/A -   "
2.05, 56.02505, 0.00354036, NaN, NaN, NaN, 0.0323506, "- N/A -   "
2.06, 56.143, 0.00355424, NaN, NaN, NaN, 0.0335714, "- N/A -   "
2.07, 56.37889, 0.00356813, NaN, NaN, NaN, 0.0347922, "- N/A -   "
2.08, 56.73273, 0.00358201, NaN, NaN, NaN, 0.03601294, "- N/A -   "
2.09, 56.9686, 0.00359867, NaN, NaN, NaN, 0.03601294, "- N/A -   "
2.1, 57.20452, 0.003615331, NaN, NaN, NaN, 0.03601294, "- N/A -   "
2.11, 57.44042, 0.00362921, NaN, NaN, NaN, 0.0372337, "- N/A -   "
2.12, 57.6763, 0.0036431, NaN, NaN, NaN, 0.0384545, "- N/A -   "
2.13, 57.91221, 0.003659759, NaN, NaN, NaN, 0.0384545, "- N/A -   "
2.14, 58.26605, 0.00367642, NaN, NaN, NaN, 0.0396753, "- N/A -   "
2.15, 58.384, 0.0036903, NaN, NaN, NaN, 0.0396753, "- N/A -   "
2.16, 58.7378, 0.00370696, NaN, NaN, NaN, 0.04089605, "- N/A -   "
2.17, 58.9737, 0.00372085, NaN, NaN, NaN, 0.04089605, "- N/A -   "
2.18, 59.2096, 0.00373751, NaN, NaN, NaN, 0.04089605, "- N/A -   "
2.19, 59.5635, 0.00375139, NaN, NaN, NaN, 0.04211683, "- N/A -   "
2.2, 59.68142, 0.00376805, NaN, NaN, NaN, 0.04211683, "- N/A -   "
2.21, 60.0353, 0.00378471, NaN, NaN, NaN, 0.04211683, "- N/A -   "
2.22, 60.3891, 0.00380137, NaN, NaN, NaN, 0.04211683, "- N/A -   "
2.23, 60.7429, 0.00382081, NaN, NaN, NaN, 0.04089605, "- N/A -   "
2.24, 60.97884, 0.00384025, NaN, NaN, NaN, 0.04089605, "- N/A -   "
2.25, 61.3327, 0.00385691, NaN, NaN, NaN, 0.0396753, "- N/A -   "
2.26, 61.6865, 0.00387635, NaN, NaN, NaN, 0.0396753, "- N/A -   "
2.27, 61.8045, 0.00389301, NaN, NaN, NaN, 0.0396753, "- N/A -   "
2.28, 62.2763, 0.00390689, NaN, NaN, NaN, 0.0396753, "- N/A -   "
2.29, 62.5122, 0.003926327, NaN, NaN, NaN, 0.0396753, "- N/A -   "
2.3, 62.7481, 0.003940211, NaN, NaN, NaN, 0.0396753, "- N/A -   "
2.31, 62.98395, 0.00395687, NaN, NaN, NaN, 0.0396753, "- N/A -   "
2.32, 63.2198, 0.003973532, NaN, NaN, NaN, 0.0396753, "- N/A -   "
2.33, 63.6916, 0.00399019, NaN, NaN, NaN, 0.0396753, "- N/A -   "
2.34, 63.92753, 0.00400963, NaN, NaN, NaN, 0.0384545, "- N/A -   "
2.35, 64.16342, 0.00402907, NaN, NaN, NaN, 0.0384545, "- N/A -   "
2.36, 64.6352, 0.004048504, NaN, NaN, NaN, 0.0372337, "- N/A -   "
2.37, 64.87111, 0.00406794, NaN, NaN, NaN, 0.03601294, "- N/A -   "
2.38, 65.22495, 0.004084602, NaN, NaN, NaN, 0.0347922, "- N/A -   "
2.39, 65.5788, 0.004104039, NaN, NaN, NaN, 0.0347922, "- N/A -   "
2.4, 65.69674, 0.0041207, NaN, NaN, NaN, 0.0347922, "- N/A -   "
2.41, 66.16853, 0.00413736, NaN, NaN, NaN, 0.0335714, "- N/A -   "
2.42, 66.40443, 0.004151244, NaN, NaN, NaN, 0.0347922, "- N/A -   "
2.43, 66.75827, 0.0041679, NaN, NaN, NaN, 0.0347922, "- N/A -   "
2.44, 66.99416, 0.004187342, NaN, NaN, NaN, 0.0347922, "- N/A -   "
2.45, 67.23006, 0.004204002, NaN, NaN, NaN, 0.0347922, "- N/A -   "
2.46, 67.5839, 0.00422066, NaN, NaN, NaN, 0.0347922, "- N/A -   "
2.47, 67.81979, 0.004234547, NaN, NaN, NaN, 0.0347922, "- N/A -   "
2.48, 68.05569, 0.004251207, NaN, NaN, NaN, 0.0347922, "- N/A -   "
2.49, 68.29159, 0.00426787, NaN, NaN, NaN, 0.0347922, "- N/A -   "
2.5, 68.6454, 0.004284528, NaN, NaN, NaN, 0.03601294, "- N/A -   "
2.51, 68.9993, 0.004298412, NaN, NaN, NaN, 0.03601294, "- N/A -   "
2.52, 69.35311, 0.00431785, NaN, NaN, NaN, 0.0347922, "- N/A -   "
2.53, 69.589, 0.00433451, NaN, NaN, NaN, 0.03601294, "- N/A -   "
2.54, 69.8249, 0.00435117, NaN, NaN, NaN, 0.03601294, "- N/A -   "
2.55, 70.17874, 0.00436783, NaN, NaN, NaN, 0.0347922, "- N/A -   "
2.56, 70.5326, 0.004387268, NaN, NaN, NaN, 0.0347922, "- N/A -   "
2.57, 70.7685, 0.00440393, NaN, NaN, NaN, 0.0347922, "- N/A -   "
2.58, 71.12233, 0.00442059, NaN, NaN, NaN, 0.0335714, "- N/A -   "
2.59, 71.3582, 0.00443725, NaN, NaN, NaN, 0.0335714, "- N/A -   "
2.6, 71.71206, 0.00445391, NaN, NaN, NaN, 0.0335714, "- N/A -   "
2.61, 71.94796, 0.00447057, NaN, NaN, NaN, 0.0335714, "- N/A -   "
2.62, 72.3018, 0.004487231, NaN, NaN, NaN, 0.0335714, "- N/A -   "
2.63, 72.5377, 0.00450389, NaN, NaN, NaN, 0.0335714, "- N/A -   "
2.64, 72.77359, 0.004520552, NaN, NaN, NaN, 0.0335714, "- N/A -   "
2.65, 73.2454, 0.00453999, NaN, NaN, NaN, 0.0335714, "- N/A -   "
2.66, 73.48127, 0.00455665, NaN, NaN, NaN, 0.0335714, "- N/A -   "
2.67, 73.83511, 0.00457331, NaN, NaN, NaN, 0.0323506, "- N/A -   "
2.68, 74.189, 0.00458997, NaN, NaN, NaN, 0.0323506, "- N/A -   "
2.69, 74.42485, 0.00460385, NaN, NaN, NaN, 0.0335714, "- N/A -   "
2.7, 74.66075, 0.004623292, NaN, NaN, NaN, 0.0335714, "- N/A -   "
2.71, 75.0146, 0.00463718, NaN, NaN, NaN, 0.0335714, "- N/A -   "
2.72, 75.36844, 0.004656613, NaN, NaN, NaN, 0.0323506, "- N/A -   "
2.73, 75.6043, 0.00467327, NaN, NaN, NaN, 0.0335714, "- N/A -   "
2.74, 75.95817, 0.00468993, NaN, NaN, NaN, 0.0323506, "- N/A -   "
2.75, 76.19407, 0.00470659, NaN, NaN, NaN, 0.0323506, "- N/A -   "
2.76, 76.5479, 0.004726032, NaN, NaN, NaN, 0.03112983, "- N/A -   "
2.77, 76.90175, 0.004742692, NaN, NaN, NaN, 0.03112983, "- N/A -   "
2.78, 77.25559, 0.00476213, NaN, NaN, NaN, 0.0299091, "- N/A -   "
2.79, 77.49149, 0.00477879, NaN, NaN, NaN, 0.0299091, "- N/A -   "
2.8, 77.96328, 0.004798227, NaN, NaN, NaN, 0.0286883, "- N/A -   "
2.81, 78.19917, 0.00481489, NaN, NaN, NaN, 0.0286883, "- N/A -   "
2.82, 78.4351, 0.004828771, NaN, NaN, NaN, 0.03112983, "- N/A -   "
2.83, 78.55301, 0.00484266, NaN, NaN, NaN, 0.0323506, "- N/A -   "
2.84, 78.90686, 0.004853762, NaN, NaN, NaN, 0.0335714, "- N/A -   "
2.85, 79.0248, 0.004867646, NaN, NaN, NaN, 0.0347922, "- N/A -   "
2.86, 79.2607, 0.00488153, NaN, NaN, NaN, 0.03601294, "- N/A -   "
2.87, 79.61454, 0.00489541, NaN, NaN, NaN, 0.0372337, "- N/A -   "
2.88, 79.85043, 0.004909297, NaN, NaN, NaN, 0.0384545, "- N/A -   "
2.89, 80.0863, 0.004925958, NaN, NaN, NaN, 0.0396753, "- N/A -   "
2.9, 80.44018, 0.004939841, NaN, NaN, NaN, 0.0396753, "- N/A -   "
2.91, 80.67606, 0.00495373, NaN, NaN, NaN, 0.04089605, "- N/A -   "
2.92, 81.0299, 0.004970386, NaN, NaN, NaN, 0.04089605, "- N/A -   "
2.93, 81.26581, 0.00498427, NaN, NaN, NaN, 0.04211683, "- N/A -   "
2.94, 81.5017, 0.00500093, NaN, NaN, NaN, 0.04211683, "- N/A -   "
2.95, 81.8555, 0.005014814, NaN, NaN, NaN, 0.0433376, "- N/A -   "
2.96, 82.09144, 0.00503147, NaN, NaN, NaN, 0.0433376, "- N/A -   "
2.97, 82.32734, 0.00504814, NaN, NaN, NaN, 0.0445584, "- N/A -   "
2.98, 82.68118, 0.00506202, NaN, NaN, NaN, 0.0445584, "- N/A -   "
2.99, 83.03502, 0.00507868, NaN, NaN, NaN, 0.0445584, "- N/A -   "
3, 83.38886, 0.00509534, NaN, NaN, NaN, 0.0445584, "- N/A -   "
3.01, 83.74271, 0.005112, NaN, NaN, NaN, 0.04577916, "- N/A -   "
3.02, 84.09654, 0.00512866, NaN, NaN, NaN, 0.0445584, "- N/A -   "
3.03, 84.33244, 0.0051481, NaN, NaN, NaN, 0.0433376, "- N/A -   "
3.04, 84.68629, 0.00516476, NaN, NaN, NaN, 0.0433376, "- N/A -   "
3.05, 84.92217, 0.00517864, NaN, NaN, NaN, 0.0445584, "- N/A -   "
3.06, 85.276, 0.0051953, NaN, NaN, NaN, 0.0445584, "- N/A -   "
3.07, 85.62987, 0.00521474, NaN, NaN, NaN, 0.0445584, "- N/A -   "
3.08, 85.9837, 0.0052314, NaN, NaN, NaN, 0.0433376, "- N/A -   "
3.09, 86.33755, 0.00524806, NaN, NaN, NaN, 0.0433376, "- N/A -   "
3.1, 86.69139, 0.0052675, NaN, NaN, NaN, 0.04211683, "- N/A -   "
3.11, 87.04523, 0.00528694, NaN, NaN, NaN, 0.04211683, "- N/A -   "
3.12, 87.39908, 0.005303596, NaN, NaN, NaN, 0.04089605, "- N/A -   "
3.13, 87.75292, 0.00532303, NaN, NaN, NaN, 0.0396753, "- N/A -   "
3.14, 88.22471, 0.005345247, NaN, NaN, NaN, 0.0384545, "- N/A -   "
3.15, 88.57855, 0.00536468, NaN, NaN, NaN, 0.0372337, "- N/A -   "
3.16, 89.05035, 0.00538135, NaN, NaN, NaN, 0.03601294, "- N/A -   "
3.17, 89.40418, 0.00540078, NaN, NaN, NaN, 0.0347922, "- N/A -   "
3.18, 89.6401, 0.00542022, NaN, NaN, NaN, 0.0347922, "- N/A -   "
3.19, 89.99392, 0.00543688, NaN, NaN, NaN, 0.0335714, "- N/A -   "
3.2, 90.34776, 0.00545354, NaN, NaN, NaN, 0.0335714, "- N/A -   "
3.21, 90.58366, 0.00547298, NaN, NaN, NaN, 0.0335714, "- N/A -   "
3.22, 91.05545, 0.005486862, NaN, NaN, NaN, 0.0335714, "- N/A -   "
3.23, 91.40929, 0.005503522, NaN, NaN, NaN, 0.0335714, "- N/A -   "
3.24, 91.76313, 0.00552018, NaN, NaN, NaN, 0.0335714, "- N/A -   "
3.25, 91.99903, 0.00553962, NaN, NaN, NaN, 0.0323506, "- N/A -   "
3.26, 92.35287, 0.00555628, NaN, NaN, NaN, 0.0323506, "- N/A -   "
3.27, 92.70671, 0.00557294, NaN, NaN, NaN, 0.0323506, "- N/A -   "
3.28, 93.0606, 0.0055896, NaN, NaN, NaN, 0.0323506, "- N/A -   "
3.29, 93.2965, 0.00560626, NaN, NaN, NaN, 0.0323506, "- N/A -   "
3.3, 93.65029, 0.00562015, NaN, NaN, NaN, 0.0335714, "- N/A -   "
3.31, 93.8862, 0.005639583, NaN, NaN, NaN, 0.0335714, "- N/A -   "
3.32, 94.24, 0.005656244, NaN, NaN, NaN, 0.0323506, "- N/A -   "
3.33, 94.59387, 0.0056729, NaN, NaN, NaN, 0.0323506, "- N/A -   "
3.34, 94.9477, 0.00569234, NaN, NaN, NaN, 0.0323506, "- N/A -   "
3.35, 95.41951, 0.005709002, NaN, NaN, NaN, 0.0323506, "- N/A -   "
3.36, 95.5374, 0.00572566, NaN, NaN, NaN, 0.03112983, "- N/A -   "
3.37, 96.00924, 0.0057451, NaN, NaN, NaN, 0.0299091, "- N/A -   "
3.38, 96.599, 0.00576454, NaN, NaN, NaN, 0.0286883, "- N/A -   "
3.39, 96.83487, 0.00578397, NaN, NaN, NaN, 0.0274675, "- N/A -   "
3.4, 97.18872, 0.00580063, NaN, NaN, NaN, 0.0274675, "- N/A -   "
3.41, 97.54256, 0.005817295, NaN, NaN, NaN, 0.0274675, "- N/A -   "
3.42, 97.8964, 0.00583118, NaN, NaN, NaN, 0.0286883, "- N/A -   "
3.43, 98.13229, 0.00584784, NaN, NaN, NaN, 0.0286883, "- N/A -   "
3.44, 98.3682, 0.005861723, NaN, NaN, NaN, 0.0299091, "- N/A -   "
3.45, 98.60408, 0.005875607, NaN, NaN, NaN, 0.03112983, "- N/A -   "
3.46, 98.9579, 0.00588949, NaN, NaN, NaN, 0.0323506, "- N/A -   "
3.47, 99.1938, 0.00590337, NaN, NaN, NaN, 0.0335714, "- N/A -   "
3.48, 99.54767, 0.005920035, NaN, NaN, NaN, 0.0335714, "- N/A -   "
3.49, 99.7836, 0.005933919, NaN, NaN, NaN, 0.0347922, "- N/A -   "
3.5, 100.019, 0.005950579, NaN, NaN, NaN, 0.0347922, "- N/A -   "
3.51, 100.3733, 0.005964463, NaN, NaN, NaN, 0.03601294, "- N/A -   "
3.52, 100.6092, 0.00598112, NaN, NaN, NaN, 0.03601294, "- N/A -   "
3.53, 100.963, 0.005995007, NaN, NaN, NaN, 0.0372337, "- N/A -   "
3.54, 101.317, 0.00601167, NaN, NaN, NaN, 0.0384545, "- N/A -   "
3.55, 101.553, 0.00602277, NaN, NaN, NaN, 0.0396753, "- N/A -   "
3.56, 101.789, 0.006036659, NaN, NaN, NaN, 0.04089605, "- N/A -   "
3.57, 102.143, 0.006050542, NaN, NaN, NaN, 0.04211683, "- N/A -   "
3.58, 102.3784, 0.006064426, NaN, NaN, NaN, 0.0433376, "- N/A -   "
3.59, 102.6143, 0.00607831, NaN, NaN, NaN, 0.0445584, "- N/A -   "
3.6, 102.968, 0.00609497, NaN, NaN, NaN, 0.04577916, "- N/A -   "
3.61, 103.204, 0.006108854, NaN, NaN, NaN, 0.04577916, "- N/A -   "
3.62, 103.676, 0.006125515, NaN, NaN, NaN, 0.04699994, "- N/A -   "
3.63, 104.03, 0.006142175, NaN, NaN, NaN, 0.04699994, "- N/A -   "
3.64, 104.384, 0.00615884, NaN, NaN, NaN, 0.04699994, "- N/A -   "
3.65, 104.619, 0.006172719, NaN, NaN, NaN, 0.0482207, "- N/A -   "
3.66, 105.091, 0.006192157, NaN, NaN, NaN, 0.04699994, "- N/A -   "
3.67, 105.445, 0.00621159, NaN, NaN, NaN, 0.04699994, "- N/A -   "
3.68, 105.799, 0.006228254, NaN, NaN, NaN, 0.04577916, "- N/A -   "
3.69, 106.153, 0.006250468, NaN, NaN, NaN, 0.0445584, "- N/A -   "
3.7, 106.625, 0.00626991, NaN, NaN, NaN, 0.0433376, "- N/A -   "
3.71, 107.0963, 0.006286566, NaN, NaN, NaN, 0.0433376, "- N/A -   "
3.72, 107.3322, 0.006303227, NaN, NaN, NaN, 0.04211683, "- N/A -   "
3.73, 107.922, 0.006325441, NaN, NaN, NaN, 0.04089605, "- N/A -   "
3.74, 108.158, 0.006342101, NaN, NaN, NaN, 0.0396753, "- N/A -   "
3.75, 108.63, 0.006361538, NaN, NaN, NaN, 0.0384545, "- N/A -   "
3.76, 108.983, 0.006378199, NaN, NaN, NaN, 0.0384545, "- N/A -   "
3.77, 109.455, 0.00639486, NaN, NaN, NaN, 0.0384545, "- N/A -   "
3.78, 109.691, 0.006414297, NaN, NaN, NaN, 0.0372337, "- N/A -   "
3.79, 110.163, 0.006430957, NaN, NaN, NaN, 0.0372337, "- N/A -   "
3.8, 110.517, 0.006450394, NaN, NaN, NaN, 0.03601294, "- N/A -   "
3.81, 110.989, 0.006469832, NaN, NaN, NaN, 0.03601294, "- N/A -   "
3.82, 111.342, 0.006486492, NaN, NaN, NaN, 0.0347922, "- N/A -   "
3.83, 111.696, 0.006503153, NaN, NaN, NaN, 0.0347922, "- N/A -   "
3.84, 112.0501, 0.00652259, NaN, NaN, NaN, 0.0347922, "- N/A -   "
3.85, 112.404, 0.006536474, NaN, NaN, NaN, 0.0347922, "- N/A -   "
3.86, 112.64, 0.006555911, NaN, NaN, NaN, 0.0347922, "- N/A -   "
3.87, 113.112, 0.006569795, NaN, NaN, NaN, 0.0347922, "- N/A -   "
3.88, 113.465, 0.006589232, NaN, NaN, NaN, 0.0347922, "- N/A -   "
3.89, 113.819, 0.00660589, NaN, NaN, NaN, 0.0347922, "- N/A -   "
3.9, 114.173, 0.00662255, NaN, NaN, NaN, 0.0335714, "- N/A -   "
3.91, 114.527, 0.00664199, NaN, NaN, NaN, 0.0335714, "- N/A -   "
3.92, 114.881, 0.006658651, NaN, NaN, NaN, 0.0335714, "- N/A -   "
3.93, 115.353, 0.00667531, NaN, NaN, NaN, 0.0323506, "- N/A -   "
3.94, 115.706, 0.006694749, NaN, NaN, NaN, 0.03112983, "- N/A -   "
3.95, 116.06, 0.00671141, NaN, NaN, NaN, 0.03112983, "- N/A -   "
3.96, 116.5321, 0.00673085, NaN, NaN, NaN, 0.0299091, "- N/A -   "
3.97, 116.886, 0.006747507, NaN, NaN, NaN, 0.0299091, "- N/A -   "
3.98, 117.358, 0.00676417, NaN, NaN, NaN, 0.0299091, "- N/A -   "
3.99, 117.712, 0.00678083, NaN, NaN, NaN, 0.0299091, "- N/A -   "
4, 118.065, 0.00679749, NaN, NaN, NaN, 0.0299091, "- N/A -   "
4.01, 118.301, 0.006814149, NaN, NaN, NaN, 0.0299091, "- N/A -   "
4.02, 118.7731, 0.00683359, NaN, NaN, NaN, 0.0299091, "- N/A -   "
4.03, 119.009, 0.00685025, NaN, NaN, NaN, 0.0286883, "- N/A -   "
4.04, 119.481, 0.00686691, NaN, NaN, NaN, 0.0286883, "- N/A -   "
4.05, 119.835, 0.00688634, NaN, NaN, NaN, 0.0274675, "- N/A -   "
4.06, 120.188, 0.00690301, NaN, NaN, NaN, 0.0286883, "- N/A -   "
4.07, 120.542, 0.006916889, NaN, NaN, NaN, 0.0286883, "- N/A -   "
4.08, 121.014, 0.00693077, NaN, NaN, NaN, 0.0299091, "- N/A -   "
4.09, 121.132, 0.006947433, NaN, NaN, NaN, 0.0299091, "- N/A -   "
4.1, 121.486, 0.00696132, NaN, NaN, NaN, 0.03112983, "- N/A -   "
4.11, 121.958, 0.0069752, NaN, NaN, NaN, 0.0323506, "- N/A -   "
4.12, 122.312, 0.00699186, NaN, NaN, NaN, 0.0323506, "- N/A -   "
4.13, 122.429, 0.007005745, NaN, NaN, NaN, 0.0347922, "- N/A -   "
4.14, 122.901, 0.007016852, NaN, NaN, NaN, 0.03601294, "- N/A -   "
4.15, 123.137, 0.00703351, NaN, NaN, NaN, 0.0372337, "- N/A -   "
4.16, 123.491, 0.007047396, NaN, NaN, NaN, 0.0372337, "- N/A -   "
4.17, 123.7269, 0.00706406, NaN, NaN, NaN, 0.0384545, "- N/A -   "
4.18, 124.081, 0.00707794, NaN, NaN, NaN, 0.0384545, "- N/A -   "
4.19, 124.435, 0.00709182, NaN, NaN, NaN, 0.0396753, "- N/A -   "
4.2, 124.67, 0.007108485, NaN, NaN, NaN, 0.04089605, "- N/A -   "
4.21, 125.024, 0.007119592, NaN, NaN, NaN, 0.04211683, "- N/A -   "
4.22, 125.496, 0.00713625, NaN, NaN, NaN, 0.04211683, "- N/A -   "
4.23, 125.614, 0.00715014, NaN, NaN, NaN, 0.0433376, "- N/A -   "
4.24, 125.9679, 0.00716402, NaN, NaN, NaN, 0.0445584, "- N/A -   "
4.25, 126.44, 0.00718068, NaN, NaN, NaN, 0.0445584, "- N/A -   "
4.26, 126.794, 0.00719734, NaN, NaN, NaN, 0.04577916, "- N/A -   "
4.27, 127.029, 0.00721122, NaN, NaN, NaN, 0.04577916, "- N/A -   "
4.28, 127.501, 0.00722789, NaN, NaN, NaN, 0.04577916, "- N/A -   "
4.29, 127.737, 0.00724455, NaN, NaN, NaN, 0.04577916, "- N/A -   "
4.3, 128.209, 0.00726121, NaN, NaN, NaN, 0.04577916, "- N/A -   "
4.31, 128.563, 0.007277867, NaN, NaN, NaN, 0.04577916, "- N/A -   "
4.32, 128.917, 0.0072973, NaN, NaN, NaN, 0.04577916, "- N/A -   "
4.33, 129.27, 0.00731119, NaN, NaN, NaN, 0.04577916, "- N/A -   "
4.34, 129.742, 0.00732785, NaN, NaN, NaN, 0.04577916, "- N/A -   "
4.35, 129.978, 0.00734729, NaN, NaN, NaN, 0.04577916, "- N/A -   "
4.36, 130.4499, 0.00736395, NaN, NaN, NaN, 0.0445584, "- N/A -   "
4.37, 130.922, 0.00738061, NaN, NaN, NaN, 0.0445584, "- N/A -   "
4.38, 131.393, 0.007397267, NaN, NaN, NaN, 0.0445584, "- N/A -   "
4.39, 131.511, 0.0074167, NaN, NaN, NaN, 0.0445584, "- N/A -   "
4.4, 132.101, 0.00743336, NaN, NaN, NaN, 0.0433376, "- N/A -   "
4.41, 132.455, 0.007452802, NaN, NaN, NaN, 0.0433376, "- N/A -   "
4.42, 132.809, 0.007466686, NaN, NaN, NaN, 0.0433376, "- N/A -   "
4.43, 133.281, 0.00748612, NaN, NaN, NaN, 0.04211683, "- N/A -   "
4.44, 133.752, 0.00750556, NaN, NaN, NaN, 0.04211683, "- N/A -   "
4.45, 134.106, 0.007525, NaN, NaN, NaN, 0.04089605, "- N/A -   "
4.46, 134.46, 0.007541658, NaN, NaN, NaN, 0.0396753, "- N/A -   "
4.47, 134.932, 0.007558319, NaN, NaN, NaN, 0.0396753, "- N/A -   "
4.48, 135.286, 0.007577756, NaN, NaN, NaN, 0.0384545, "- N/A -   "
4.49, 135.758, 0.007597193, NaN, NaN, NaN, 0.0372337, "- N/A -   "
4.5, 136.347, 0.007619407, NaN, NaN, NaN, 0.03601294, "- N/A -   "
4.51, 136.701, 0.007636068, NaN, NaN, NaN, 0.0347922, "- N/A -   "
4.52, 137.291, 0.007655505, NaN, NaN, NaN, 0.0335714, "- N/A -   "
4.53, 137.527, 0.007677719, NaN, NaN, NaN, 0.0323506, "- N/A -   "
4.54, 137.999, 0.007697156, NaN, NaN, NaN, 0.03112983, "- N/A -   "
4.55, 138.47, 0.00771382, NaN, NaN, NaN, 0.0299091, "- N/A -   "
4.56, 138.942, 0.00773325, NaN, NaN, NaN, 0.0299091, "- N/A -   "
4.57, 139.178, 0.00774991, NaN, NaN, NaN, 0.0299091, "- N/A -   "
4.58, 139.65, 0.007763798, NaN, NaN, NaN, 0.0299091, "- N/A -   "
4.59, 139.8857, 0.007780459, NaN, NaN, NaN, 0.0299091, "- N/A -   "
4.6, 140.24, 0.007794343, NaN, NaN, NaN, 0.03112983, "- N/A -   "
4.61, 140.593, 0.00781378, NaN, NaN, NaN, 0.0299091, "- N/A -   "
4.62, 141.065, 0.00783044, NaN, NaN, NaN, 0.0299091, "- N/A -   "
4.63, 141.537, 0.0078471, NaN, NaN, NaN, 0.0299091, "- N/A -   "
4.64, 141.891, 0.007863761, NaN, NaN, NaN, 0.0299091, "- N/A -   "
4.65, 142.1267, 0.007877645, NaN, NaN, NaN, 0.03112983, "- N/A -   "
4.66, 142.481, 0.00789431, NaN, NaN, NaN, 0.0323506, "- N/A -   "
4.67, 142.8344, 0.007908189, NaN, NaN, NaN, 0.0323506, "- N/A -   "
4.68, 143.188, 0.00792485, NaN, NaN, NaN, 0.0323506, "- N/A -   "
4.69, 143.542, 0.007938734, NaN, NaN, NaN, 0.0335714, "- N/A -   "
4.7, 143.896, 0.007955394, NaN, NaN, NaN, 0.0347922, "- N/A -   "
4.71, 144.25, 0.007972055, NaN, NaN, NaN, 0.0347922, "- N/A -   "
4.72, 144.722, 0.007988716, NaN, NaN, NaN, 0.0335714, "- N/A -   "
4.73, 145.0754, 0.008005376, NaN, NaN, NaN, 0.0335714, "- N/A -   "
4.74, 145.429, 0.008022036, NaN, NaN, NaN, 0.0347922, "- N/A -   "
4.75, 145.665, 0.00803592, NaN, NaN, NaN, 0.03601294, "- N/A -   "
4.76, 146.019, 0.008049804, NaN, NaN, NaN, 0.0372337, "- N/A -   "
4.77, 146.3728, 0.008063687, NaN, NaN, NaN, 0.0372337, "- N/A -   "
4.78, 146.727, 0.008080348, NaN, NaN, NaN, 0.0384545, "- N/A -   "
4.79, 147.0805, 0.008097008, NaN, NaN, NaN, 0.0384545, "- N/A -   "
4.8, 147.434, 0.008113669, NaN, NaN, NaN, 0.0372337, "- N/A -   "
4.81, 147.906, 0.00813033, NaN, NaN, NaN, 0.0372337, "- N/A -   "
4.82, 148.26, 0.00814699, NaN, NaN, NaN, 0.0372337, "- N/A -   "
4.83, 148.732, 0.00816365, NaN, NaN, NaN, 0.0372337, "- N/A -   "
4.84, 149.0856, 0.008180311, NaN, NaN, NaN, 0.0372337, "- N/A -   "
4.85, 149.439, 0.008196971, NaN, NaN, NaN, 0.0372337, "- N/A -   "
4.86, 149.793, 0.008213632, NaN, NaN, NaN, 0.0372337, "- N/A -   "
4.87, 150.147, 0.008230292, NaN, NaN, NaN, 0.0384545, "- N/A -   "
4.88, 150.501, 0.008244176, NaN, NaN, NaN, 0.0384545, "- N/A -   "
4.89, 150.737, 0.008258061, NaN, NaN, NaN, 0.0396753, "- N/A -   "
4.9, 151.209, 0.00827472, NaN, NaN, NaN, 0.0396753, "- N/A -   "
4.91, 151.5625, 0.008288604, NaN, NaN, NaN, 0.04089605, "- N/A -   "
4.92, 151.916, 0.008302488, NaN, NaN, NaN, 0.04211683, "- N/A -   "
4.93, 152.27, 0.008319149, NaN, NaN, NaN, 0.0433376, "- N/A -   "
4.94, 152.624, 0.008333032, NaN, NaN, NaN, 0.0433376, "- N/A -   "
4.95, 152.978, 0.008349693, NaN, NaN, NaN, 0.0433376, "- N/A -   "
4.96, 153.332, 0.008366354, NaN, NaN, NaN, 0.0433376, "- N/A -   "
4.97, 153.686, 0.008383014, NaN, NaN, NaN, 0.0433376, "- N/A -   "
4.98, 154.0394, 0.008399675, NaN, NaN, NaN, 0.0433376, "- N/A -   "
4.99, 154.511, 0.008413558, NaN, NaN, NaN, 0.0445584, "- N/A -   "
5, 154.747, 0.008430218, NaN, NaN, NaN, 0.0445584, "- N/A -   "
5.01, 155.101, 0.00844688, NaN, NaN, NaN, 0.0445584, "- N/A -   "
5.02, 155.573, 0.008463539, NaN, NaN, NaN, 0.0445584, "- N/A -   "
5.03, 155.927, 0.008480201, NaN, NaN, NaN, 0.0445584, "- N/A -   "
5.04, 156.2804, 0.008499637, NaN, NaN, NaN, 0.0445584, "- N/A -   "
5.05, 156.752, 0.008519075, NaN, NaN, NaN, 0.0433376, "- N/A -   "
5.06, 157.224, 0.00853851, NaN, NaN, NaN, 0.04211683, "- N/A -   "
5.07, 157.696, 0.008557949, NaN, NaN, NaN, 0.0396753, "- N/A -   "
5.08, 158.168, 0.008577387, NaN, NaN, NaN, 0.0384545, "- N/A -   "
5.09, 158.639, 0.008596824, NaN, NaN, NaN, 0.0372337, "- N/A -   "
5.1, 159.111, 0.008616261, NaN, NaN, NaN, 0.03601294, "- N/A -   "
5.11, 159.465, 0.008635699, NaN, NaN, NaN, 0.0347922, "- N/A -   "
5.12, 159.937, 0.00865514, NaN, NaN, NaN, 0.0335714, "- N/A -   "
5.13, 160.409, 0.008674572, NaN, NaN, NaN, 0.0323506, "- N/A -   "
5.14, 160.88, 0.008691234, NaN, NaN, NaN, 0.0323506, "- N/A -   "
5.15, 161.234, 0.00871067, NaN, NaN, NaN, 0.03112983, "- N/A -   "
5.16, 161.588, 0.008727332, NaN, NaN, NaN, 0.03112983, "- N/A -   "
5.17, 161.942, 0.008746768, NaN, NaN, NaN, 0.03112983, "- N/A -   "
5.18, 162.414, 0.008763429, NaN, NaN, NaN, 0.0299091, "- N/A -   "
5.19, 162.885, 0.008780089, NaN, NaN, NaN, 0.0299091, "- N/A -   "
5.2, 163.357, 0.008799527, NaN, NaN, NaN, 0.0286883, "- N/A -   "
5.21, 163.711, 0.008816187, NaN, NaN, NaN, 0.0299091, "- N/A -   "
5.22, 164.065, 0.00883007, NaN, NaN, NaN, 0.0299091, "- N/A -   "
5.23, 164.419, 0.008846732, NaN, NaN, NaN, 0.0299091, "- N/A -   "
5.24, 164.655, 0.008860615, NaN, NaN, NaN, 0.03112983, "- N/A -   "
5.25, 165.009, 0.008874499, NaN, NaN, NaN, 0.0323506, "- N/A -   "
5.26, 165.362, 0.00889116, NaN, NaN, NaN, 0.0335714, "- N/A -   "
5.27, 165.598, 0.008905044, NaN, NaN, NaN, 0.0335714, "- N/A -   "
5.28, 165.952, 0.008918927, NaN, NaN, NaN, 0.0347922, "- N/A -   "
5.29, 166.306, 0.00893559, NaN, NaN, NaN, 0.03601294, "- N/A -   "
5.3, 166.66, 0.008949472, NaN, NaN, NaN, 0.03601294, "- N/A -   "
5.31, 167.132, 0.008966132, NaN, NaN, NaN, 0.03601294, "- N/A -   "
5.32, 167.485, 0.00898279, NaN, NaN, NaN, 0.03601294, "- N/A -   "
5.33, 167.839, 0.008999453, NaN, NaN, NaN, 0.0372337, "- N/A -   "
5.34, 168.311, 0.009013337, NaN, NaN, NaN, 0.0372337, "- N/A -   "
5.35, 168.665, 0.009029997, NaN, NaN, NaN, 0.0372337, "- N/A -   "
5.36, 168.901, 0.009046658, NaN, NaN, NaN, 0.0372337, "- N/A -   "
5.37, 169.373, 0.009063318, NaN, NaN, NaN, 0.0372337, "- N/A -   "
5.38, 169.726, 0.009085532, NaN, NaN, NaN, 0.03601294, "- N/A -   "
5.39, 170.316, 0.009102193, NaN, NaN, NaN, 0.0347922, "- N/A -   "
5.4, 170.552, 0.009121629, NaN, NaN, NaN, 0.0347922, "- N/A -   "
5.41, 171.142, 0.009141067, NaN, NaN, NaN, 0.0335714, "- N/A -   "
5.42, 171.496, 0.00915773, NaN, NaN, NaN, 0.0323506, "- N/A -   "
5.43, 171.9674, 0.009174388, NaN, NaN, NaN, 0.0323506, "- N/A -   "
5.44, 172.4392, 0.009193826, NaN, NaN, NaN, 0.0323506, "- N/A -   "
5.45, 172.793, 0.009210486, NaN, NaN, NaN, 0.0323506, "- N/A -   "
5.46, 173.1469, 0.009227146, NaN, NaN, NaN, 0.03112983, "- N/A -   "
5.47, 173.501, 0.009243807, NaN, NaN, NaN, 0.0323506, "- N/A -   "
5.48, 173.855, 0.009257691, NaN, NaN, NaN, 0.0323506, "- N/A -   "
5.49, 174.09, 0.009271575, NaN, NaN, NaN, 0.0335714, "- N/A -   "
5.5, 174.4443, 0.009285458, NaN, NaN, NaN, 0.0347922, "- N/A -   "
5.51, 174.9161, 0.009302119, NaN, NaN, NaN, 0.0347922, "- N/A -   "
5.52, 175.152, 0.009318779, NaN, NaN, NaN, 0.0347922, "- N/A -   "
5.53, 175.624, 0.00933544, NaN, NaN, NaN, 0.03601294, "- N/A -   "
5.54, 175.86, 0.009349324, NaN, NaN, NaN, 0.03601294, "- N/A -   "
5.55, 176.214, 0.009363207, NaN, NaN, NaN, 0.0372337, "- N/A -   "
5.56, 176.449, 0.009377091, NaN, NaN, NaN, 0.0384545, "- N/A -   "
5.57, 176.803, 0.009390975, NaN, NaN, NaN, 0.0396753, "- N/A -   "
5.58, 177.1571, 0.009407635, NaN, NaN, NaN, 0.0396753, "- N/A -   "
5.59, 177.511, 0.009421519, NaN, NaN, NaN, 0.04089605, "- N/A -   "
5.6, 177.747, 0.009438179, NaN, NaN, NaN, 0.04211683, "- N/A -   "
5.61, 178.219, 0.00945484, NaN, NaN, NaN, 0.04211683, "- N/A -   "
5.62, 178.572, 0.009471501, NaN, NaN, NaN, 0.04211683, "- N/A -   "
5.63, 179.162, 0.009490938, NaN, NaN, NaN, 0.04089605, "- N/A -   "
5.64, 179.3981, 0.009507598, NaN, NaN, NaN, 0.04089605, "- N/A -   "
5.65, 179.87, 0.00952148, NaN, NaN, NaN, 0.04089605, "- N/A -   "
5.66, 180.106, 0.009538143, NaN, NaN, NaN, 0.04089605, "- N/A -   "
5.67, 180.578, 0.009554803, NaN, NaN, NaN, 0.04089605, "- N/A -   "
5.68, 180.813, 0.009568687, NaN, NaN, NaN, 0.04211683, "- N/A -   "
5.69, 181.403, 0.009588124, NaN, NaN, NaN, 0.04211683, "- N/A -   "
5.7, 181.757, 0.009604785, NaN, NaN, NaN, 0.04211683, "- N/A -   "
5.71, 181.993, 0.009618668, NaN, NaN, NaN, 0.04211683, "- N/A -   "
5.72, 182.465, 0.00963811, NaN, NaN, NaN, 0.04211683, "- N/A -   "
5.73, 182.937, 0.009654766, NaN, NaN, NaN, 0.04089605, "- N/A -   "
5.74, 183.408, 0.009674203, NaN, NaN, NaN, 0.04089605, "- N/A -   "
5.75, 183.762, 0.009690863, NaN, NaN, NaN, 0.0396753, "- N/A -   "
5.76, 184.116, 0.009707525, NaN, NaN, NaN, 0.0396753, "- N/A -   "
5.77, 184.47, 0.009726961, NaN, NaN, NaN, 0.0384545, "- N/A -   "
5.78, 184.942, 0.009746399, NaN, NaN, NaN, 0.0372337, "- N/A -   "
5.79, 185.295, 0.009763059, NaN, NaN, NaN, 0.0372337, "- N/A -   "
5.8, 185.885, 0.009782497, NaN, NaN, NaN, 0.0372337, "- N/A -   "
5.81, 186.239, 0.009799156, NaN, NaN, NaN, 0.03601294, "- N/A -   "
5.82, 186.593, 0.009818594, NaN, NaN, NaN, 0.03601294, "- N/A -   "
5.83, 187.065, 0.009835254, NaN, NaN, NaN, 0.03601294, "- N/A -   "
5.84, 187.536, 0.00984914, NaN, NaN, NaN, 0.03601294, "- N/A -   "
5.85, 187.654, 0.0098658, NaN, NaN, NaN, 0.03601294, "- N/A -   "
5.86, 188.1262, 0.00988246, NaN, NaN, NaN, 0.03601294, "- N/A -   "
5.87, 188.3621, 0.009896343, NaN, NaN, NaN, 0.0372337, "- N/A -   "
5.88, 188.834, 0.009913003, NaN, NaN, NaN, 0.0372337, "- N/A -   "
5.89, 189.0698, 0.009929665, NaN, NaN, NaN, 0.0372337, "- N/A -   "
5.9, 189.5416, 0.009946326, NaN, NaN, NaN, 0.0372337, "- N/A -   "
5.91, 189.895, 0.009962986, NaN, NaN, NaN, 0.0384545, "- N/A -   "
5.92, 190.249, 0.009979647, NaN, NaN, NaN, 0.0372337, "- N/A -   "
5.93, 190.603, 0.009996306, NaN, NaN, NaN, 0.0372337, "- N/A -   "
5.94, 191.193, 0.010013, NaN, NaN, NaN, 0.0372337, "- N/A -   "
5.95, 191.311, 0.0100324, NaN, NaN, NaN, 0.0372337, "- N/A -   "
5.96, 191.7826, 0.0100463, NaN, NaN, NaN, 0.0372337, "- N/A -   "
[...]
41.45, 1651.475, 0.0692078, NaN, NaN, NaN, 0.0323506, "- N/A -   "
41.47, 1652.429, 0.06924386, NaN, NaN, NaN, 0.03112983, "- N/A -   "
41.49, 1653.383, 0.06927996, NaN, NaN, NaN, 0.0299091, "- N/A -   "
41.51, 1654.1, 0.06931328, NaN, NaN, NaN, 0.03112983, "- N/A -   "
41.53, 1655.05, 0.06934661, NaN, NaN, NaN, 0.0299091, "- N/A -   "
41.55, 1655.89, 0.0693799, NaN, NaN, NaN, 0.0299091, "- N/A -   "
41.57, 1656.84, 0.069416, NaN, NaN, NaN, 0.0286883, "- N/A -   "
41.59, 1657.8, 0.06944934, NaN, NaN, NaN, 0.0286883, "- N/A -   "
41.61, 1658.511, 0.06948266, NaN, NaN, NaN, 0.0299091, "- N/A -   "
41.63, 1659.35, 0.06951043, NaN, NaN, NaN, 0.03112983, "- N/A -   "
41.65, 1660.18, 0.06954098, NaN, NaN, NaN, 0.0323506, "- N/A -   "
41.67, 1660.78, 0.0695687, NaN, NaN, NaN, 0.0347922, "- N/A -   "
41.69, 1661.49, 0.0695993, NaN, NaN, NaN, 0.0372337, "- N/A -   "
41.71, 1662.21, 0.0696271, NaN, NaN, NaN, 0.0396753, "- N/A -   "
41.73, 1663.04, 0.0696576, NaN, NaN, NaN, 0.04089605, "- N/A -   "
41.75, 1663.76, 0.06968536, NaN, NaN, NaN, 0.04211683, "- N/A -   "
41.77, 1664.59, 0.06971869, NaN, NaN, NaN, 0.04211683, "- N/A -   "
41.79, 1665.43, 0.06975201, NaN, NaN, NaN, 0.04211683, "- N/A -   "
41.81, 1666.26, 0.0697881, NaN, NaN, NaN, 0.04211683, "- N/A -   "
41.83, 1667.22, 0.0698214, NaN, NaN, NaN, 0.04211683, "- N/A -   "
41.85, 1668.05, 0.06985197, NaN, NaN, NaN, 0.04211683, "- N/A -   "
41.87, 1668.89, 0.06988251, NaN, NaN, NaN, 0.0433376, "- N/A -   "
41.89, 1669.72, 0.06991584, NaN, NaN, NaN, 0.0445584, "- N/A -   "
41.91, 1670.56, 0.06994916, NaN, NaN, NaN, 0.0433376, "- N/A -   "
41.93, 1671.51, 0.0699853, NaN, NaN, NaN, 0.0433376, "- N/A -   "
41.95, 1672.46, 0.07002135, NaN, NaN, NaN, 0.04089605, "- N/A -   "
41.97, 1673.42, 0.07005467, NaN, NaN, NaN, 0.04089605, "- N/A -   "
41.99, 1674.37, 0.07009355, NaN, NaN, NaN, 0.0384545, "- N/A -   "
42.01, 1675.44, 0.07013242, NaN, NaN, NaN, 0.03601294, "- N/A -   "
42.03, 1676.518, 0.0701741, NaN, NaN, NaN, 0.0335714, "- N/A -   "
42.05, 1677.472, 0.0702102, NaN, NaN, NaN, 0.03112983, "- N/A -   "
42.07, 1678.55, 0.07024627, NaN, NaN, NaN, 0.0299091, "- N/A -   "
42.09, 1679.38, 0.07027959, NaN, NaN, NaN, 0.0299091, "- N/A -   "
42.11, 1680.334, 0.07031569, NaN, NaN, NaN, 0.0286883, "- N/A -   "
42.13, 1681.17, 0.07034901, NaN, NaN, NaN, 0.0286883, "- N/A -   "
42.15, 1682, 0.07038233, NaN, NaN, NaN, 0.0286883, "- N/A -   "
42.17, 1682.96, 0.0704129, NaN, NaN, NaN, 0.0299091, "- N/A -   "
42.19, 1683.55, 0.0704462, NaN, NaN, NaN, 0.03112983, "- N/A -   "
42.21, 1684.39, 0.07047674, NaN, NaN, NaN, 0.03112983, "- N/A -   "
42.23, 1685.22, 0.07050729, NaN, NaN, NaN, 0.0335714, "- N/A -   "
42.25, 1686.06, 0.07053783, NaN, NaN, NaN, 0.0335714, "- N/A -   "
42.27, 1686.893, 0.0705684, NaN, NaN, NaN, 0.0347922, "- N/A -   "
42.29, 1687.73, 0.0706017, NaN, NaN, NaN, 0.0347922, "- N/A -   "
42.31, 1688.56, 0.07063501, NaN, NaN, NaN, 0.0347922, "- N/A -   "
42.33, 1689.28, 0.07066556, NaN, NaN, NaN, 0.0372337, "- N/A -   "
42.35, 1690.11, 0.07069611, NaN, NaN, NaN, 0.0372337, "- N/A -   "
42.37, 1691.07, 0.0707322, NaN, NaN, NaN, 0.0372337, "- N/A -   "
42.39, 1692.02, 0.0707655, NaN, NaN, NaN, 0.03601294, "- N/A -   "
42.41, 1692.74, 0.0707988, NaN, NaN, NaN, 0.0372337, "- N/A -   "
42.43, 1693.45, 0.07082661, NaN, NaN, NaN, 0.0396753, "- N/A -   "
42.45, 1694.17, 0.07085438, NaN, NaN, NaN, 0.04089605, "- N/A -   "
42.47, 1694.88, 0.07088492, NaN, NaN, NaN, 0.0433376, "- N/A -   "
42.49, 1695.72, 0.07091269, NaN, NaN, NaN, 0.0445584, "- N/A -   "
42.51, 1696.55, 0.070946, NaN, NaN, NaN, 0.0445584, "- N/A -   "
42.53, 1697.39, 0.0709766, NaN, NaN, NaN, 0.04577916, "- N/A -   "
42.55, 1698.22, 0.0710071, NaN, NaN, NaN, 0.04699994, "- N/A -   "
42.57, 1699.06, 0.0710432, NaN, NaN, NaN, 0.04699994, "- N/A -   "
42.59, 1700.13, 0.0710793, NaN, NaN, NaN, 0.0445584, "- N/A -   "
42.61, 1701.08, 0.07111817, NaN, NaN, NaN, 0.04211683, "- N/A -   "
42.63, 1702.16, 0.07115982, NaN, NaN, NaN, 0.0396753, "- N/A -   "
42.65, 1703.35, 0.0711987, NaN, NaN, NaN, 0.03601294, "- N/A -   "
42.67, 1704.3, 0.07123757, NaN, NaN, NaN, 0.0347922, "- N/A -   "
42.69, 1705.26, 0.07127089, NaN, NaN, NaN, 0.0335714, "- N/A -   "
42.71, 1706.09, 0.07130421, NaN, NaN, NaN, 0.0335714, "- N/A -   "
42.73, 1706.93, 0.07134031, NaN, NaN, NaN, 0.0323506, "- N/A -   "
42.75, 1707.76, 0.07137363, NaN, NaN, NaN, 0.0335714, "- N/A -   "
42.77, 1708.6, 0.0714042, NaN, NaN, NaN, 0.0335714, "- N/A -   "
42.79, 1709.55, 0.07143472, NaN, NaN, NaN, 0.0347922, "- N/A -   "
42.81, 1710.147, 0.07146526, NaN, NaN, NaN, 0.03601294, "- N/A -   "
42.83, 1710.98, 0.07149581, NaN, NaN, NaN, 0.0372337, "- N/A -   "
42.85, 1711.94, 0.07153191, NaN, NaN, NaN, 0.0372337, "- N/A -   "
42.87, 1712.77, 0.0715652, NaN, NaN, NaN, 0.03601294, "- N/A -   "
42.89, 1713.61, 0.07159855, NaN, NaN, NaN, 0.03601294, "- N/A -   "
42.91, 1714.56, 0.07163465, NaN, NaN, NaN, 0.03601294, "- N/A -   "
42.93, 1715.51, 0.07167075, NaN, NaN, NaN, 0.0335714, "- N/A -   "
42.95, 1716.47, 0.07170685, NaN, NaN, NaN, 0.0323506, "- N/A -   "
42.97, 1717.54, 0.0717429, NaN, NaN, NaN, 0.0323506, "- N/A -   "
42.99, 1718.14, 0.07177626, NaN, NaN, NaN, 0.0323506, "- N/A -   "
43.01, 1718.97, 0.071804, NaN, NaN, NaN, 0.0335714, "- N/A -   "
43.03, 1719.81, 0.07183457, NaN, NaN, NaN, 0.0347922, "- N/A -   "
43.05, 1720.64, 0.0718679, NaN, NaN, NaN, 0.03601294, "- N/A -   "
43.07, 1721.36, 0.07189566, NaN, NaN, NaN, 0.0372337, "- N/A -   "
43.09, 1722.07, 0.07192621, NaN, NaN, NaN, 0.0384545, "- N/A -   "
43.11, 1722.907, 0.0719568, NaN, NaN, NaN, 0.0396753, "- N/A -   "
43.13, 1723.74, 0.07198729, NaN, NaN, NaN, 0.04089605, "- N/A -   "
43.15, 1724.7, 0.07202339, NaN, NaN, NaN, 0.0396753, "- N/A -   "
43.17, 1725.53, 0.07205671, NaN, NaN, NaN, 0.04089605, "- N/A -   "
43.19, 1726.48, 0.07209281, NaN, NaN, NaN, 0.0384545, "- N/A -   "
43.21, 1727.44, 0.07212613, NaN, NaN, NaN, 0.0384545, "- N/A -   "
43.23, 1728.39, 0.0721595, NaN, NaN, NaN, 0.0384545, "- N/A -   "
43.25, 1729.108, 0.07219277, NaN, NaN, NaN, 0.0384545, "- N/A -   "
43.27, 1729.82, 0.07222332, NaN, NaN, NaN, 0.0396753, "- N/A -   "
43.29, 1730.66, 0.07225386, NaN, NaN, NaN, 0.04089605, "- N/A -   "
43.31, 1731.61, 0.07228718, NaN, NaN, NaN, 0.04089605, "- N/A -   "
43.33, 1732.45, 0.07232328, NaN, NaN, NaN, 0.0396753, "- N/A -   "
43.35, 1733.4, 0.0723594, NaN, NaN, NaN, 0.0396753, "- N/A -   "
43.37, 1734.47, 0.0723927, NaN, NaN, NaN, 0.0384545, "- N/A -   "
43.39, 1735.19, 0.0724288, NaN, NaN, NaN, 0.0372337, "- N/A -   "
43.41, 1736.26, 0.0724649, NaN, NaN, NaN, 0.03601294, "- N/A -   "
43.43, 1737.098, 0.07249822, NaN, NaN, NaN, 0.03601294, "- N/A -   "
43.45, 1737.93, 0.0725343, NaN, NaN, NaN, 0.03601294, "- N/A -   "
43.47, 1738.77, 0.0725676, NaN, NaN, NaN, 0.0347922, "- N/A -   "
43.49, 1739.72, 0.07260095, NaN, NaN, NaN, 0.0347922, "- N/A -   "
43.51, 1740.68, 0.07263705, NaN, NaN, NaN, 0.0335714, "- N/A -   "
43.53, 1741.63, 0.07267315, NaN, NaN, NaN, 0.0335714, "- N/A -   "
43.55, 1742.46, 0.07270647, NaN, NaN, NaN, 0.0323506, "- N/A -   "
43.57, 1743.3, 0.0727398, NaN, NaN, NaN, 0.0323506, "- N/A -   "
43.59, 1744.37, 0.07277589, NaN, NaN, NaN, 0.0323506, "- N/A -   "
43.61, 1745.21, 0.07281199, NaN, NaN, NaN, 0.03112983, "- N/A -   "
43.63, 1746.16, 0.07284531, NaN, NaN, NaN, 0.0299091, "- N/A -   "
43.65, 1747, 0.07287863, NaN, NaN, NaN, 0.03112983, "- N/A -   "
43.67, 1747.83, 0.072912, NaN, NaN, NaN, 0.0299091, "- N/A -   "
43.69, 1748.67, 0.0729453, NaN, NaN, NaN, 0.0299091, "- N/A -   "
43.71, 1749.5, 0.07297859, NaN, NaN, NaN, 0.0299091, "- N/A -   "
43.73, 1750.33, 0.07301191, NaN, NaN, NaN, 0.0299091, "- N/A -   "
43.75, 1751.17, 0.07304523, NaN, NaN, NaN, 0.03112983, "- N/A -   "
43.77, 1751.89, 0.07307301, NaN, NaN, NaN, 0.0335714, "- N/A -   "
43.79, 1752.6, 0.073098, NaN, NaN, NaN, 0.03601294, "- N/A -   "
43.81, 1753.197, 0.0731285, NaN, NaN, NaN, 0.0384545, "- N/A -   "
43.83, 1754.03, 0.07315908, NaN, NaN, NaN, 0.0384545, "- N/A -   "
43.85, 1754.87, 0.07318962, NaN, NaN, NaN, 0.04089605, "- N/A -   "
43.87, 1755.7, 0.07322017, NaN, NaN, NaN, 0.04089605, "- N/A -   "
43.89, 1756.42, 0.07325072, NaN, NaN, NaN, 0.04211683, "- N/A -   "
43.91, 1757.25, 0.07328404, NaN, NaN, NaN, 0.0433376, "- N/A -   "
43.93, 1757.97, 0.07331458, NaN, NaN, NaN, 0.0445584, "- N/A -   "
43.95, 1758.921, 0.0733451, NaN, NaN, NaN, 0.0445584, "- N/A -   "
43.97, 1759.76, 0.07337845, NaN, NaN, NaN, 0.0445584, "- N/A -   "
43.99, 1760.59, 0.07340899, NaN, NaN, NaN, 0.04577916, "- N/A -   "
44.01, 1761.54, 0.07344787, NaN, NaN, NaN, 0.0445584, "- N/A -   "
44.03, 1762.5, 0.07348397, NaN, NaN, NaN, 0.04211683, "- N/A -   "
44.05, 1763.57, 0.07352284, NaN, NaN, NaN, 0.0396753, "- N/A -   "
44.07, 1764.65, 0.07356171, NaN, NaN, NaN, 0.0372337, "- N/A -   "
44.09, 1765.6, 0.07360058, NaN, NaN, NaN, 0.0347922, "- N/A -   "
44.11, 1766.55, 0.07363668, NaN, NaN, NaN, 0.0347922, "- N/A -   "
44.13, 1767.63, 0.07367278, NaN, NaN, NaN, 0.0323506, "- N/A -   "
44.15, 1768.46, 0.0737061, NaN, NaN, NaN, 0.0323506, "- N/A -   "
44.17, 1769.18, 0.07373665, NaN, NaN, NaN, 0.0335714, "- N/A -   "
44.19, 1770.13, 0.07376997, NaN, NaN, NaN, 0.0335714, "- N/A -   "
44.21, 1770.85, 0.07380329, NaN, NaN, NaN, 0.0347922, "- N/A -   "
44.23, 1771.681, 0.07383661, NaN, NaN, NaN, 0.0347922, "- N/A -   "
44.25, 1772.52, 0.07386993, NaN, NaN, NaN, 0.0335714, "- N/A -   "
44.27, 1773.59, 0.07390603, NaN, NaN, NaN, 0.0323506, "- N/A -   "
44.29, 1774.54, 0.0739421, NaN, NaN, NaN, 0.03112983, "- N/A -   "
44.31, 1775.5, 0.07397822, NaN, NaN, NaN, 0.0299091, "- N/A -   "
44.33, 1776.33, 0.07401155, NaN, NaN, NaN, 0.03112983, "- N/A -   "
44.35, 1777.17, 0.07404209, NaN, NaN, NaN, 0.0323506, "- N/A -   "
44.37, 1777.88, 0.07407264, NaN, NaN, NaN, 0.0335714, "- N/A -   "
44.39, 1778.72, 0.074106, NaN, NaN, NaN, 0.0347922, "- N/A -   "
44.41, 1779.55, 0.0741393, NaN, NaN, NaN, 0.0335714, "- N/A -   "
44.43, 1780.39, 0.0741726, NaN, NaN, NaN, 0.0347922, "- N/A -   "
44.45, 1781.22, 0.07420036, NaN, NaN, NaN, 0.03601294, "- N/A -   "
44.47, 1781.82, 0.07423091, NaN, NaN, NaN, 0.0384545, "- N/A -   "
44.49, 1782.533, 0.07425868, NaN, NaN, NaN, 0.0396753, "- N/A -   "
44.51, 1783.25, 0.07428922, NaN, NaN, NaN, 0.04089605, "- N/A -   "
44.53, 1783.964, 0.0743198, NaN, NaN, NaN, 0.04211683, "- N/A -   "
44.55, 1784.8, 0.07435031, NaN, NaN, NaN, 0.0445584, "- N/A -   "
44.57, 1785.63, 0.07438085, NaN, NaN, NaN, 0.0445584, "- N/A -   "
44.59, 1786.47, 0.07441417, NaN, NaN, NaN, 0.04577916, "- N/A -   "
44.61, 1787.303, 0.07445027, NaN, NaN, NaN, 0.0445584, "- N/A -   "
44.63, 1788.38, 0.07448637, NaN, NaN, NaN, 0.0433376, "- N/A -   "
44.65, 1789.33, 0.07451969, NaN, NaN, NaN, 0.04211683, "- N/A -   "
44.67, 1790.165, 0.0745558, NaN, NaN, NaN, 0.04211683, "- N/A -   "
44.69, 1791, 0.07458911, NaN, NaN, NaN, 0.04089605, "- N/A -   "
44.71, 1791.95, 0.07462521, NaN, NaN, NaN, 0.04089605, "- N/A -   "
44.73, 1793.03, 0.07466131, NaN, NaN, NaN, 0.0384545, "- N/A -   "
44.75, 1793.98, 0.07470018, NaN, NaN, NaN, 0.03601294, "- N/A -   "
44.77, 1794.94, 0.0747391, NaN, NaN, NaN, 0.0347922, "- N/A -   "
44.79, 1796.01, 0.07477515, NaN, NaN, NaN, 0.0323506, "- N/A -   "
44.81, 1796.96, 0.07480847, NaN, NaN, NaN, 0.0323506, "- N/A -   "
44.83, 1797.8, 0.07484179, NaN, NaN, NaN, 0.0323506, "- N/A -   "
44.85, 1798.632, 0.07487512, NaN, NaN, NaN, 0.0323506, "- N/A -   "
44.87, 1799.59, 0.0749112, NaN, NaN, NaN, 0.03112983, "- N/A -   "
44.89, 1800.54, 0.07494731, NaN, NaN, NaN, 0.0299091, "- N/A -   "
44.91, 1801.37, 0.07498063, NaN, NaN, NaN, 0.0299091, "- N/A -   "
44.93, 1802.21, 0.07501118, NaN, NaN, NaN, 0.03112983, "- N/A -   "
44.95, 1803.04, 0.07504728, NaN, NaN, NaN, 0.0299091, "- N/A -   "
44.97, 1803.879, 0.0750806, NaN, NaN, NaN, 0.0299091, "- N/A -   "
44.99, 1804.71, 0.0751139, NaN, NaN, NaN, 0.0299091, "- N/A -   "
45.01, 1805.67, 0.07515001, NaN, NaN, NaN, 0.0299091, "- N/A -   "
45.03, 1806.5, 0.07518056, NaN, NaN, NaN, 0.0299091, "- N/A -   "
45.05, 1807.22, 0.07521111, NaN, NaN, NaN, 0.0323506, "- N/A -   "
45.07, 1807.93, 0.07523887, NaN, NaN, NaN, 0.0347922, "- N/A -   "
45.09, 1808.53, 0.07526664, NaN, NaN, NaN, 0.0372337, "- N/A -   "
45.11, 1809.13, 0.0752944, NaN, NaN, NaN, 0.0396753, "- N/A -   "
45.13, 1809.96, 0.0753194, NaN, NaN, NaN, 0.04211683, "- N/A -   "
45.15, 1810.68, 0.07534994, NaN, NaN, NaN, 0.0433376, "- N/A -   "
45.17, 1811.51, 0.07538326, NaN, NaN, NaN, 0.0445584, "- N/A -   "
45.19, 1812.346, 0.07541381, NaN, NaN, NaN, 0.0445584, "- N/A -   "
45.21, 1813.18, 0.07544435, NaN, NaN, NaN, 0.04577916, "- N/A -   "
45.23, 1814.02, 0.0754804, NaN, NaN, NaN, 0.04577916, "- N/A -   "
45.25, 1814.97, 0.07551377, NaN, NaN, NaN, 0.0445584, "- N/A -   "
45.27, 1816.04, 0.07554986, NaN, NaN, NaN, 0.0445584, "- N/A -   "
45.29, 1816.76, 0.07558319, NaN, NaN, NaN, 0.0433376, "- N/A -   "
45.31, 1817.593, 0.07561373, NaN, NaN, NaN, 0.0445584, "- N/A -   "
45.33, 1818.547, 0.07564983, NaN, NaN, NaN, 0.0445584, "- N/A -   "
45.35, 1819.26, 0.0756832, NaN, NaN, NaN, 0.0433376, "- N/A -   "
45.37, 1820.34, 0.07571647, NaN, NaN, NaN, 0.0433376, "- N/A -   "
45.39, 1821.29, 0.07575257, NaN, NaN, NaN, 0.04211683, "- N/A -   "
45.41, 1822.24, 0.07579144, NaN, NaN, NaN, 0.04089605, "- N/A -   "
45.43, 1823.44, 0.07583032, NaN, NaN, NaN, 0.0372337, "- N/A -   "
45.45, 1824.39, 0.07587197, NaN, NaN, NaN, 0.0335714, "- N/A -   "
45.47, 1825.58, 0.0759108, NaN, NaN, NaN, 0.03112983, "- N/A -   "
45.49, 1826.42, 0.07594694, NaN, NaN, NaN, 0.03112983, "- N/A -   "
45.51, 1827.25, 0.07598026, NaN, NaN, NaN, 0.0299091, "- N/A -   "
45.53, 1828.09, 0.07601358, NaN, NaN, NaN, 0.0299091, "- N/A -   "
45.55, 1828.922, 0.07604413, NaN, NaN, NaN, 0.03112983, "- N/A -   "
45.57, 1829.64, 0.0760775, NaN, NaN, NaN, 0.03112983, "- N/A -   "
45.59, 1830.353, 0.07610799, NaN, NaN, NaN, 0.0323506, "- N/A -   "
45.61, 1831.307, 0.07614131, NaN, NaN, NaN, 0.0335714, "- N/A -   "
45.63, 1832.14, 0.07617186, NaN, NaN, NaN, 0.0347922, "- N/A -   "
45.65, 1832.98, 0.07620241, NaN, NaN, NaN, 0.03601294, "- N/A -   "
45.67, 1833.69, 0.07623573, NaN, NaN, NaN, 0.03601294, "- N/A -   "
45.69, 1834.53, 0.07626627, NaN, NaN, NaN, 0.03601294, "- N/A -   "
45.71, 1835.24, 0.0762968, NaN, NaN, NaN, 0.0384545, "- N/A -   "
45.73, 1836.2, 0.07632458, NaN, NaN, NaN, 0.0396753, "- N/A -   "
45.75, 1837.031, 0.07636068, NaN, NaN, NaN, 0.0384545, "- N/A -   "
45.77, 1837.99, 0.07639678, NaN, NaN, NaN, 0.0384545, "- N/A -   "
45.79, 1838.82, 0.0764301, NaN, NaN, NaN, 0.0372337, "- N/A -   "
45.81, 1839.77, 0.0764634, NaN, NaN, NaN, 0.0372337, "- N/A -   "
45.83, 1840.61, 0.07649396, NaN, NaN, NaN, 0.0384545, "- N/A -   "
45.85, 1841.205, 0.07652451, NaN, NaN, NaN, 0.0396753, "- N/A -   "
45.87, 1842.04, 0.07655505, NaN, NaN, NaN, 0.04089605, "- N/A -   "
45.89, 1842.76, 0.07658559, NaN, NaN, NaN, 0.04211683, "- N/A -   "
45.91, 1843.47, 0.07661614, NaN, NaN, NaN, 0.0433376, "- N/A -   "
45.93, 1844.31, 0.0766495, NaN, NaN, NaN, 0.0445584, "- N/A -   "
45.95, 1845.26, 0.07668, NaN, NaN, NaN, 0.0445584, "- N/A -   "
45.97, 1846.21, 0.0767161, NaN, NaN, NaN, 0.0433376, "- N/A -   "
45.99, 1847.05, 0.07674942, NaN, NaN, NaN, 0.0433376, "- N/A -   "
46.01, 1848.12, 0.07679108, NaN, NaN, NaN, 0.04089605, "- N/A -   "
46.03, 1849.31, 0.07683273, NaN, NaN, NaN, 0.0372337, "- N/A -   "
46.05, 1850.39, 0.0768744, NaN, NaN, NaN, 0.0335714, "- N/A -   "
46.07, 1851.222, 0.07691047, NaN, NaN, NaN, 0.03112983, "- N/A -   "
46.09, 1852.41, 0.07694657, NaN, NaN, NaN, 0.0299091, "- N/A -   "
46.11, 1853.13, 0.07698267, NaN, NaN, NaN, 0.0299091, "- N/A -   "
46.13, 1854.2, 0.07701599, NaN, NaN, NaN, 0.0299091, "- N/A -   "
46.15, 1855.04, 0.0770493, NaN, NaN, NaN, 0.0299091, "- N/A -   "
46.17, 1855.75, 0.07707986, NaN, NaN, NaN, 0.0299091, "- N/A -   "
46.19, 1856.47, 0.0771104, NaN, NaN, NaN, 0.03112983, "- N/A -   "
46.21, 1857.18, 0.07714094, NaN, NaN, NaN, 0.0335714, "- N/A -   "
46.23, 1858.02, 0.07717149, NaN, NaN, NaN, 0.0335714, "- N/A -   "
46.25, 1858.735, 0.07719925, NaN, NaN, NaN, 0.03601294, "- N/A -   "
46.27, 1859.57, 0.0772298, NaN, NaN, NaN, 0.0372337, "- N/A -   "
46.29, 1860.29, 0.0772631, NaN, NaN, NaN, 0.0372337, "- N/A -   "
46.31, 1861.12, 0.07729645, NaN, NaN, NaN, 0.0384545, "- N/A -   "
46.33, 1862.07, 0.07733255, NaN, NaN, NaN, 0.03601294, "- N/A -   "
46.35, 1863.03, 0.07736864, NaN, NaN, NaN, 0.0347922, "- N/A -   "
46.37, 1863.982, 0.07740474, NaN, NaN, NaN, 0.0335714, "- N/A -   "
46.39, 1864.94, 0.0774381, NaN, NaN, NaN, 0.0335714, "- N/A -   "
46.41, 1865.89, 0.0774686, NaN, NaN, NaN, 0.0347922, "- N/A -   "
46.43, 1866.49, 0.0774991, NaN, NaN, NaN, 0.03601294, "- N/A -   "
46.45, 1867.2, 0.07752691, NaN, NaN, NaN, 0.0384545, "- N/A -   "
46.47, 1867.92, 0.07756023, NaN, NaN, NaN, 0.0384545, "- N/A -   "
46.49, 1868.87, 0.07759355, NaN, NaN, NaN, 0.0384545, "- N/A -   "
46.51, 1869.47, 0.0776241, NaN, NaN, NaN, 0.0396753, "- N/A -   "
46.53, 1870.3, 0.07765465, NaN, NaN, NaN, 0.04089605, "- N/A -   "
46.55, 1871.14, 0.07768519, NaN, NaN, NaN, 0.04211683, "- N/A -   "
46.57, 1872.09, 0.07771851, NaN, NaN, NaN, 0.04211683, "- N/A -   "
46.59, 1872.81, 0.07775461, NaN, NaN, NaN, 0.04089605, "- N/A -   "
46.61, 1873.88, 0.07779071, NaN, NaN, NaN, 0.0396753, "- N/A -   "
46.63, 1874.71, 0.07782403, NaN, NaN, NaN, 0.04089605, "- N/A -   "
46.65, 1875.43, 0.0778518, NaN, NaN, NaN, 0.04211683, "- N/A -   "
46.67, 1876.38, 0.07788789, NaN, NaN, NaN, 0.04089605, "- N/A -   "
46.69, 1877.46, 0.07792399, NaN, NaN, NaN, 0.0396753, "- N/A -   "
46.71, 1878.29, 0.07796009, NaN, NaN, NaN, 0.0384545, "- N/A -   "
46.73, 1879.13, 0.07799341, NaN, NaN, NaN, 0.0384545, "- N/A -   "
46.75, 1879.96, 0.07802673, NaN, NaN, NaN, 0.0384545, "- N/A -   "
46.77, 1880.92, 0.0780628, NaN, NaN, NaN, 0.0372337, "- N/A -   "
46.79, 1881.75, 0.0780961, NaN, NaN, NaN, 0.0372337, "- N/A -   "
46.81, 1882.824, 0.07813502, NaN, NaN, NaN, 0.0347922, "- N/A -   "
46.83, 1883.78, 0.07817112, NaN, NaN, NaN, 0.0347922, "- N/A -   "
46.85, 1884.61, 0.07820444, NaN, NaN, NaN, 0.0347922, "- N/A -   "
46.87, 1885.45, 0.078235, NaN, NaN, NaN, 0.0347922, "- N/A -   "
46.89, 1886.28, 0.0782683, NaN, NaN, NaN, 0.0347922, "- N/A -   "
46.91, 1887.117, 0.0783044, NaN, NaN, NaN, 0.0347922, "- N/A -   "
46.93, 1888.07, 0.07833772, NaN, NaN, NaN, 0.0347922, "- N/A -   "
46.95, 1888.91, 0.07837104, NaN, NaN, NaN, 0.0335714, "- N/A -   "
46.97, 1889.74, 0.07840437, NaN, NaN, NaN, 0.0335714, "- N/A -   "
46.99, 1890.58, 0.0784377, NaN, NaN, NaN, 0.0335714, "- N/A -   "
47.01, 1891.53, 0.0784738, NaN, NaN, NaN, 0.0323506, "- N/A -   "
47.03, 1892.48, 0.07850988, NaN, NaN, NaN, 0.03112983, "- N/A -   "
47.05, 1893.2, 0.07854043, NaN, NaN, NaN, 0.0323506, "- N/A -   "
47.07, 1894.03, 0.07857098, NaN, NaN, NaN, 0.0335714, "- N/A -   "
47.09, 1894.87, 0.0786043, NaN, NaN, NaN, 0.0347922, "- N/A -   "
47.11, 1895.703, 0.0786348, NaN, NaN, NaN, 0.03601294, "- N/A -   "
47.13, 1896.54, 0.07866816, NaN, NaN, NaN, 0.0347922, "- N/A -   "
47.15, 1897.37, 0.07870426, NaN, NaN, NaN, 0.0347922, "- N/A -   "
47.17, 1898.21, 0.07873758, NaN, NaN, NaN, 0.0347922, "- N/A -   "
47.19, 1899.04, 0.07876812, NaN, NaN, NaN, 0.03601294, "- N/A -   "
47.21, 1899.76, 0.07879589, NaN, NaN, NaN, 0.0372337, "- N/A -   "
47.23, 1900.47, 0.07882366, NaN, NaN, NaN, 0.0396753, "- N/A -   "
47.25, 1901.19, 0.0788542, NaN, NaN, NaN, 0.04211683, "- N/A -   "
47.27, 1901.9, 0.07888474, NaN, NaN, NaN, 0.0433376, "- N/A -   "
47.29, 1902.739, 0.07891529, NaN, NaN, NaN, 0.0433376, "- N/A -   "
47.31, 1903.57, 0.07894861, NaN, NaN, NaN, 0.0433376, "- N/A -   "
47.33, 1904.53, 0.07898193, NaN, NaN, NaN, 0.0433376, "- N/A -   "
47.35, 1905.24, 0.07901525, NaN, NaN, NaN, 0.0433376, "- N/A -   "
47.37, 1906.2, 0.0790486, NaN, NaN, NaN, 0.0433376, "- N/A -   "
47.385, 1906.91, 0.07907634, NaN, NaN, NaN, 0.0433376, "- N/A -   "